stimOne,stimTwo,trials_1.thisRepN,trials_1.thisTrialN,trials_1.thisN,trials_1.thisIndex,presentation_positions,resp_key,corresponding_image,participant ID (two digits, e.g. 01),age,gender (m/f/-),normal or corrected-to-normal vision (y/n),normal colour vision (y/n),date,expName,frameRate,
stimuli/rgb_scene000102_render000001.png,stimuli/rgb_scene000102_render000003.png,0,0,0,133,"[0, 1]",right,1,111,19,f,y,y,2019_Apr_25_1557,2AFC_task,59.95491392436398,
stimuli/rgb_scene000004_render000002.png,stimuli/rgb_scene000004_render000004.png,0,1,1,12,"[1, 0]",left,1,111,19,f,y,y,2019_Apr_25_1557,2AFC_task,59.95491392436398,
stimuli/rgb_scene000102_render000001.png,stimuli/rgb_scene000102_render000006.png,0,2,2,136,"[0, 1]",right,1,111,19,f,y,y,2019_Apr_25_1557,2AFC_task,59.95491392436398,
stimuli/rgb_scene000004_render000000.png,stimuli/rgb_scene000004_render000005.png,0,3,3,4,"[1, 0]",left,1,111,19,f,y,y,2019_Apr_25_1557,2AFC_task,59.95491392436398,
stimuli/rgb_scene000113_render000002.png,stimuli/rgb_scene000113_render000004.png,0,4,4,159,"[1, 0]",left,1,111,19,f,y,y,2019_Apr_25_1557,2AFC_task,59.95491392436398,
stimuli/rgb_scene000195_render000004.png,stimuli/rgb_scene000195_render000006.png,0,5,5,208,"[1, 0]",left,1,111,19,f,y,y,2019_Apr_25_1557,2AFC_task,59.95491392436398,
stimuli/rgb_scene000096_render000003.png,stimuli/rgb_scene000096_render000005.png,0,6,6,121,"[1, 0]",left,1,111,19,f,y,y,2019_Apr_25_1557,2AFC_task,59.95491392436398,
stimuli/rgb_scene000195_render000002.png,stimuli/rgb_scene000195_render000005.png,0,7,7,202,"[1, 0]",right,0,111,19,f,y,y,2019_Apr_25_1557,2AFC_task,59.95491392436398,
stimuli/rgb_scene000090_render000002.png,stimuli/rgb_scene000090_render000004.png,0,8,8,75,"[1, 0]",right,0,111,19,f,y,y,2019_Apr_25_1557,2AFC_task,59.95491392436398,
stimuli/rgb_scene000005_render000001.png,stimuli/rgb_scene000005_render000005.png,0,9,9,30,"[0, 1]",left,0,111,19,f,y,y,2019_Apr_25_1557,2AFC_task,59.95491392436398,
stimuli/rgb_scene000113_render000002.png,stimuli/rgb_scene000113_render000006.png,0,10,10,161,"[0, 1]",right,1,111,19,f,y,y,2019_Apr_25_1557,2AFC_task,59.95491392436398,
stimuli/rgb_scene000090_render000001.png,stimuli/rgb_scene000090_render000005.png,0,11,11,72,"[0, 1]",left,0,111,19,f,y,y,2019_Apr_25_1557,2AFC_task,59.95491392436398,
stimuli/rgb_scene000146_render000004.png,stimuli/rgb_scene000146_render000005.png,0,12,12,186,"[1, 0]",left,1,111,19,f,y,y,2019_Apr_25_1557,2AFC_task,59.95491392436398,
stimuli/rgb_scene000146_render000003.png,stimuli/rgb_scene000146_render000004.png,0,13,13,183,"[0, 1]",right,1,111,19,f,y,y,2019_Apr_25_1557,2AFC_task,59.95491392436398,
stimuli/rgb_scene000095_render000000.png,stimuli/rgb_scene000095_render000002.png,0,14,14,85,"[0, 1]",right,1,111,19,f,y,y,2019_Apr_25_1557,2AFC_task,59.95491392436398,
stimuli/rgb_scene000004_render000001.png,stimuli/rgb_scene000004_render000002.png,0,15,15,6,"[0, 1]",right,1,111,19,f,y,y,2019_Apr_25_1557,2AFC_task,59.95491392436398,
stimuli/rgb_scene000005_render000004.png,stimuli/rgb_scene000005_render000006.png,0,16,16,40,"[0, 1]",right,1,111,19,f,y,y,2019_Apr_25_1557,2AFC_task,59.95491392436398,
stimuli/rgb_scene000005_render000003.png,stimuli/rgb_scene000005_render000004.png,0,17,17,36,"[1, 0]",right,0,111,19,f,y,y,2019_Apr_25_1557,2AFC_task,59.95491392436398,
stimuli/rgb_scene000113_render000003.png,stimuli/rgb_scene000113_render000005.png,0,18,18,163,"[0, 1]",right,1,111,19,f,y,y,2019_Apr_25_1557,2AFC_task,59.95491392436398,
stimuli/rgb_scene000195_render000005.png,stimuli/rgb_scene000195_render000006.png,0,19,19,209,"[1, 0]",right,0,111,19,f,y,y,2019_Apr_25_1557,2AFC_task,59.95491392436398,
stimuli/rgb_scene000195_render000000.png,stimuli/rgb_scene000195_render000001.png,0,20,20,189,"[1, 0]",right,0,111,19,f,y,y,2019_Apr_25_1557,2AFC_task,59.95491392436398,
stimuli/rgb_scene000113_render000005.png,stimuli/rgb_scene000113_render000006.png,0,21,21,167,"[0, 1]",right,1,111,19,f,y,y,2019_Apr_25_1557,2AFC_task,59.95491392436398,
stimuli/rgb_scene000195_render000002.png,stimuli/rgb_scene000195_render000006.png,0,22,22,203,"[0, 1]",left,0,111,19,f,y,y,2019_Apr_25_1557,2AFC_task,59.95491392436398,
stimuli/rgb_scene000095_render000000.png,stimuli/rgb_scene000095_render000006.png,0,23,23,89,"[0, 1]",right,1,111,19,f,y,y,2019_Apr_25_1557,2AFC_task,59.95491392436398,
stimuli/rgb_scene000146_render000005.png,stimuli/rgb_scene000146_render000006.png,0,24,24,188,"[1, 0]",left,1,111,19,f,y,y,2019_Apr_25_1557,2AFC_task,59.95491392436398,
stimuli/rgb_scene000012_render000003.png,stimuli/rgb_scene000012_render000004.png,0,25,25,57,"[0, 1]",right,1,111,19,f,y,y,2019_Apr_25_1557,2AFC_task,59.95491392436398,
stimuli/rgb_scene000004_render000004.png,stimuli/rgb_scene000004_render000006.png,0,26,26,19,"[1, 0]",left,1,111,19,f,y,y,2019_Apr_25_1557,2AFC_task,59.95491392436398,
stimuli/rgb_scene000146_render000001.png,stimuli/rgb_scene000146_render000005.png,0,27,27,177,"[1, 0]",left,1,111,19,f,y,y,2019_Apr_25_1557,2AFC_task,59.95491392436398,
stimuli/rgb_scene000113_render000001.png,stimuli/rgb_scene000113_render000004.png,0,28,28,155,"[1, 0]",left,1,111,19,f,y,y,2019_Apr_25_1557,2AFC_task,59.95491392436398,
stimuli/rgb_scene000095_render000001.png,stimuli/rgb_scene000095_render000006.png,0,29,29,94,"[1, 0]",left,1,111,19,f,y,y,2019_Apr_25_1557,2AFC_task,59.95491392436398,
stimuli/rgb_scene000012_render000001.png,stimuli/rgb_scene000012_render000005.png,0,30,30,51,"[1, 0]",left,1,111,19,f,y,y,2019_Apr_25_1557,2AFC_task,59.95491392436398,
stimuli/rgb_scene000005_render000001.png,stimuli/rgb_scene000005_render000002.png,0,31,31,27,"[0, 1]",left,0,111,19,f,y,y,2019_Apr_25_1557,2AFC_task,59.95491392436398,
stimuli/rgb_scene000090_render000001.png,stimuli/rgb_scene000090_render000006.png,0,32,32,73,"[0, 1]",left,0,111,19,f,y,y,2019_Apr_25_1557,2AFC_task,59.95491392436398,
stimuli/rgb_scene000096_render000001.png,stimuli/rgb_scene000096_render000004.png,0,33,33,113,"[1, 0]",left,1,111,19,f,y,y,2019_Apr_25_1557,2AFC_task,59.95491392436398,
stimuli/rgb_scene000096_render000000.png,stimuli/rgb_scene000096_render000006.png,0,34,34,110,"[0, 1]",right,1,111,19,f,y,y,2019_Apr_25_1557,2AFC_task,59.95491392436398,
stimuli/rgb_scene000096_render000002.png,stimuli/rgb_scene000096_render000005.png,0,35,35,118,"[0, 1]",right,1,111,19,f,y,y,2019_Apr_25_1557,2AFC_task,59.95491392436398,
stimuli/rgb_scene000005_render000000.png,stimuli/rgb_scene000005_render000005.png,0,36,36,25,"[0, 1]",left,0,111,19,f,y,y,2019_Apr_25_1557,2AFC_task,59.95491392436398,
stimuli/rgb_scene000095_render000002.png,stimuli/rgb_scene000095_render000003.png,0,37,37,95,"[1, 0]",left,1,111,19,f,y,y,2019_Apr_25_1557,2AFC_task,59.95491392436398,
stimuli/rgb_scene000102_render000002.png,stimuli/rgb_scene000102_render000005.png,0,38,38,139,"[1, 0]",left,1,111,19,f,y,y,2019_Apr_25_1557,2AFC_task,59.95491392436398,
stimuli/rgb_scene000012_render000005.png,stimuli/rgb_scene000012_render000006.png,0,39,39,62,"[0, 1]",right,1,111,19,f,y,y,2019_Apr_25_1557,2AFC_task,59.95491392436398,
stimuli/rgb_scene000113_render000001.png,stimuli/rgb_scene000113_render000005.png,0,40,40,156,"[1, 0]",left,1,111,19,f,y,y,2019_Apr_25_1557,2AFC_task,59.95491392436398,
stimuli/rgb_scene000005_render000002.png,stimuli/rgb_scene000005_render000003.png,0,41,41,32,"[0, 1]",right,1,111,19,f,y,y,2019_Apr_25_1557,2AFC_task,59.95491392436398,
stimuli/rgb_scene000090_render000004.png,stimuli/rgb_scene000090_render000005.png,0,42,42,81,"[1, 0]",right,0,111,19,f,y,y,2019_Apr_25_1557,2AFC_task,59.95491392436398,
stimuli/rgb_scene000012_render000001.png,stimuli/rgb_scene000012_render000002.png,0,43,43,48,"[0, 1]",right,1,111,19,f,y,y,2019_Apr_25_1557,2AFC_task,59.95491392436398,
stimuli/rgb_scene000102_render000001.png,stimuli/rgb_scene000102_render000004.png,0,44,44,134,"[1, 0]",left,1,111,19,f,y,y,2019_Apr_25_1557,2AFC_task,59.95491392436398,
stimuli/rgb_scene000195_render000004.png,stimuli/rgb_scene000195_render000005.png,0,45,45,207,"[0, 1]",left,0,111,19,f,y,y,2019_Apr_25_1557,2AFC_task,59.95491392436398,
stimuli/rgb_scene000096_render000000.png,stimuli/rgb_scene000096_render000005.png,0,46,46,109,"[0, 1]",right,1,111,19,f,y,y,2019_Apr_25_1557,2AFC_task,59.95491392436398,
stimuli/rgb_scene000102_render000003.png,stimuli/rgb_scene000102_render000004.png,0,47,47,141,"[0, 1]",right,1,111,19,f,y,y,2019_Apr_25_1557,2AFC_task,59.95491392436398,
stimuli/rgb_scene000113_render000001.png,stimuli/rgb_scene000113_render000006.png,0,48,48,157,"[1, 0]",left,1,111,19,f,y,y,2019_Apr_25_1557,2AFC_task,59.95491392436398,
stimuli/rgb_scene000195_render000002.png,stimuli/rgb_scene000195_render000004.png,0,49,49,201,"[0, 1]",right,1,111,19,f,y,y,2019_Apr_25_1557,2AFC_task,59.95491392436398,
stimuli/rgb_scene000102_render000003.png,stimuli/rgb_scene000102_render000006.png,0,50,50,143,"[1, 0]",left,1,111,19,f,y,y,2019_Apr_25_1557,2AFC_task,59.95491392436398,
stimuli/rgb_scene000004_render000000.png,stimuli/rgb_scene000004_render000003.png,0,51,51,2,"[1, 0]",left,1,111,19,f,y,y,2019_Apr_25_1557,2AFC_task,59.95491392436398,
stimuli/rgb_scene000004_render000001.png,stimuli/rgb_scene000004_render000004.png,0,52,52,8,"[1, 0]",left,1,111,19,f,y,y,2019_Apr_25_1557,2AFC_task,59.95491392436398,
stimuli/rgb_scene000146_render000000.png,stimuli/rgb_scene000146_render000005.png,0,53,53,172,"[0, 1]",right,1,111,19,f,y,y,2019_Apr_25_1557,2AFC_task,59.95491392436398,
stimuli/rgb_scene000146_render000002.png,stimuli/rgb_scene000146_render000005.png,0,54,54,181,"[0, 1]",right,1,111,19,f,y,y,2019_Apr_25_1557,2AFC_task,59.95491392436398,
stimuli/rgb_scene000096_render000004.png,stimuli/rgb_scene000096_render000005.png,0,55,55,123,"[0, 1]",right,1,111,19,f,y,y,2019_Apr_25_1557,2AFC_task,59.95491392436398,
stimuli/rgb_scene000096_render000005.png,stimuli/rgb_scene000096_render000006.png,0,56,56,125,"[0, 1]",right,1,111,19,f,y,y,2019_Apr_25_1557,2AFC_task,59.95491392436398,
stimuli/rgb_scene000090_render000000.png,stimuli/rgb_scene000090_render000005.png,0,57,57,67,"[1, 0]",right,0,111,19,f,y,y,2019_Apr_25_1557,2AFC_task,59.95491392436398,
stimuli/rgb_scene000096_render000001.png,stimuli/rgb_scene000096_render000006.png,0,58,58,115,"[0, 1]",right,1,111,19,f,y,y,2019_Apr_25_1557,2AFC_task,59.95491392436398,
stimuli/rgb_scene000113_render000000.png,stimuli/rgb_scene000113_render000004.png,0,59,59,150,"[0, 1]",right,1,111,19,f,y,y,2019_Apr_25_1557,2AFC_task,59.95491392436398,
stimuli/rgb_scene000095_render000000.png,stimuli/rgb_scene000095_render000005.png,0,60,60,88,"[1, 0]",left,1,111,19,f,y,y,2019_Apr_25_1557,2AFC_task,59.95491392436398,
stimuli/rgb_scene000090_render000000.png,stimuli/rgb_scene000090_render000003.png,0,61,61,65,"[0, 1]",left,0,111,19,f,y,y,2019_Apr_25_1557,2AFC_task,59.95491392436398,
stimuli/rgb_scene000102_render000000.png,stimuli/rgb_scene000102_render000002.png,0,62,62,127,"[0, 1]",right,1,111,19,f,y,y,2019_Apr_25_1557,2AFC_task,59.95491392436398,
stimuli/rgb_scene000102_render000005.png,stimuli/rgb_scene000102_render000006.png,0,63,63,146,"[0, 1]",left,0,111,19,f,y,y,2019_Apr_25_1557,2AFC_task,59.95491392436398,
stimuli/rgb_scene000113_render000000.png,stimuli/rgb_scene000113_render000003.png,0,64,64,149,"[0, 1]",right,1,111,19,f,y,y,2019_Apr_25_1557,2AFC_task,59.95491392436398,
stimuli/rgb_scene000090_render000001.png,stimuli/rgb_scene000090_render000004.png,0,65,65,71,"[1, 0]",right,0,111,19,f,y,y,2019_Apr_25_1557,2AFC_task,59.95491392436398,
stimuli/rgb_scene000146_render000002.png,stimuli/rgb_scene000146_render000006.png,0,66,66,182,"[1, 0]",left,1,111,19,f,y,y,2019_Apr_25_1557,2AFC_task,59.95491392436398,
stimuli/rgb_scene000113_render000003.png,stimuli/rgb_scene000113_render000004.png,0,67,67,162,"[1, 0]",left,1,111,19,f,y,y,2019_Apr_25_1557,2AFC_task,59.95491392436398,
stimuli/rgb_scene000102_render000002.png,stimuli/rgb_scene000102_render000004.png,0,68,68,138,"[0, 1]",right,1,111,19,f,y,y,2019_Apr_25_1557,2AFC_task,59.95491392436398,
stimuli/rgb_scene000195_render000003.png,stimuli/rgb_scene000195_render000006.png,0,69,69,206,"[1, 0]",right,0,111,19,f,y,y,2019_Apr_25_1557,2AFC_task,59.95491392436398,
stimuli/rgb_scene000113_render000003.png,stimuli/rgb_scene000113_render000006.png,0,70,70,164,"[0, 1]",right,1,111,19,f,y,y,2019_Apr_25_1557,2AFC_task,59.95491392436398,
stimuli/rgb_scene000090_render000000.png,stimuli/rgb_scene000090_render000006.png,0,71,71,68,"[1, 0]",right,0,111,19,f,y,y,2019_Apr_25_1557,2AFC_task,59.95491392436398,
stimuli/rgb_scene000195_render000001.png,stimuli/rgb_scene000195_render000006.png,0,72,72,199,"[0, 1]",left,0,111,19,f,y,y,2019_Apr_25_1557,2AFC_task,59.95491392436398,
stimuli/rgb_scene000004_render000000.png,stimuli/rgb_scene000004_render000006.png,0,73,73,5,"[1, 0]",left,1,111,19,f,y,y,2019_Apr_25_1557,2AFC_task,59.95491392436398,
stimuli/rgb_scene000096_render000001.png,stimuli/rgb_scene000096_render000003.png,0,74,74,112,"[0, 1]",right,1,111,19,f,y,y,2019_Apr_25_1557,2AFC_task,59.95491392436398,
stimuli/rgb_scene000095_render000002.png,stimuli/rgb_scene000095_render000005.png,0,75,75,97,"[1, 0]",left,1,111,19,f,y,y,2019_Apr_25_1557,2AFC_task,59.95491392436398,
stimuli/rgb_scene000005_render000000.png,stimuli/rgb_scene000005_render000001.png,0,76,76,21,"[1, 0]",right,0,111,19,f,y,y,2019_Apr_25_1557,2AFC_task,59.95491392436398,
stimuli/rgb_scene000090_render000000.png,stimuli/rgb_scene000090_render000002.png,0,77,77,64,"[0, 1]",left,0,111,19,f,y,y,2019_Apr_25_1557,2AFC_task,59.95491392436398,
stimuli/rgb_scene000090_render000003.png,stimuli/rgb_scene000090_render000006.png,0,78,78,80,"[1, 0]",right,0,111,19,f,y,y,2019_Apr_25_1557,2AFC_task,59.95491392436398,
stimuli/rgb_scene000102_render000000.png,stimuli/rgb_scene000102_render000003.png,0,79,79,128,"[0, 1]",right,1,111,19,f,y,y,2019_Apr_25_1557,2AFC_task,59.95491392436398,
stimuli/rgb_scene000012_render000000.png,stimuli/rgb_scene000012_render000004.png,0,80,80,45,"[1, 0]",left,1,111,19,f,y,y,2019_Apr_25_1557,2AFC_task,59.95491392436398,
stimuli/rgb_scene000146_render000001.png,stimuli/rgb_scene000146_render000004.png,0,81,81,176,"[1, 0]",left,1,111,19,f,y,y,2019_Apr_25_1557,2AFC_task,59.95491392436398,
stimuli/rgb_scene000090_render000002.png,stimuli/rgb_scene000090_render000005.png,0,82,82,76,"[1, 0]",right,0,111,19,f,y,y,2019_Apr_25_1557,2AFC_task,59.95491392436398,
stimuli/rgb_scene000004_render000002.png,stimuli/rgb_scene000004_render000006.png,0,83,83,14,"[0, 1]",right,1,111,19,f,y,y,2019_Apr_25_1557,2AFC_task,59.95491392436398,
stimuli/rgb_scene000005_render000000.png,stimuli/rgb_scene000005_render000002.png,0,84,84,22,"[0, 1]",right,1,111,19,f,y,y,2019_Apr_25_1557,2AFC_task,59.95491392436398,
stimuli/rgb_scene000095_render000003.png,stimuli/rgb_scene000095_render000004.png,0,85,85,99,"[1, 0]",left,1,111,19,f,y,y,2019_Apr_25_1557,2AFC_task,59.95491392436398,
stimuli/rgb_scene000096_render000000.png,stimuli/rgb_scene000096_render000001.png,0,86,86,105,"[0, 1]",right,1,111,19,f,y,y,2019_Apr_25_1557,2AFC_task,59.95491392436398,
stimuli/rgb_scene000090_render000002.png,stimuli/rgb_scene000090_render000003.png,0,87,87,74,"[1, 0]",right,0,111,19,f,y,y,2019_Apr_25_1557,2AFC_task,59.95491392436398,
stimuli/rgb_scene000004_render000000.png,stimuli/rgb_scene000004_render000001.png,0,88,88,0,"[0, 1]",right,1,111,19,f,y,y,2019_Apr_25_1557,2AFC_task,59.95491392436398,
stimuli/rgb_scene000012_render000000.png,stimuli/rgb_scene000012_render000003.png,0,89,89,44,"[0, 1]",right,1,111,19,f,y,y,2019_Apr_25_1557,2AFC_task,59.95491392436398,
stimuli/rgb_scene000095_render000003.png,stimuli/rgb_scene000095_render000006.png,0,90,90,101,"[0, 1]",right,1,111,19,f,y,y,2019_Apr_25_1557,2AFC_task,59.95491392436398,
stimuli/rgb_scene000005_render000003.png,stimuli/rgb_scene000005_render000006.png,0,91,91,38,"[0, 1]",left,0,111,19,f,y,y,2019_Apr_25_1557,2AFC_task,59.95491392436398,
stimuli/rgb_scene000012_render000002.png,stimuli/rgb_scene000012_render000006.png,0,92,92,56,"[1, 0]",left,1,111,19,f,y,y,2019_Apr_25_1557,2AFC_task,59.95491392436398,
stimuli/rgb_scene000095_render000001.png,stimuli/rgb_scene000095_render000005.png,0,93,93,93,"[1, 0]",left,1,111,19,f,y,y,2019_Apr_25_1557,2AFC_task,59.95491392436398,
stimuli/rgb_scene000012_render000001.png,stimuli/rgb_scene000012_render000004.png,0,94,94,50,"[0, 1]",right,1,111,19,f,y,y,2019_Apr_25_1557,2AFC_task,59.95491392436398,
stimuli/rgb_scene000012_render000003.png,stimuli/rgb_scene000012_render000005.png,0,95,95,58,"[0, 1]",right,1,111,19,f,y,y,2019_Apr_25_1557,2AFC_task,59.95491392436398,
stimuli/rgb_scene000195_render000001.png,stimuli/rgb_scene000195_render000002.png,0,96,96,195,"[1, 0]",left,1,111,19,f,y,y,2019_Apr_25_1557,2AFC_task,59.95491392436398,
stimuli/rgb_scene000090_render000000.png,stimuli/rgb_scene000090_render000001.png,0,97,97,63,"[1, 0]",left,1,111,19,f,y,y,2019_Apr_25_1557,2AFC_task,59.95491392436398,
stimuli/rgb_scene000090_render000004.png,stimuli/rgb_scene000090_render000006.png,0,98,98,82,"[1, 0]",right,0,111,19,f,y,y,2019_Apr_25_1557,2AFC_task,59.95491392436398,
stimuli/rgb_scene000095_render000000.png,stimuli/rgb_scene000095_render000004.png,0,99,99,87,"[0, 1]",right,1,111,19,f,y,y,2019_Apr_25_1557,2AFC_task,59.95491392436398,
stimuli/rgb_scene000102_render000000.png,stimuli/rgb_scene000102_render000004.png,0,100,100,129,"[0, 1]",right,1,111,19,f,y,y,2019_Apr_25_1557,2AFC_task,59.95491392436398,
stimuli/rgb_scene000146_render000002.png,stimuli/rgb_scene000146_render000003.png,0,101,101,179,"[0, 1]",right,1,111,19,f,y,y,2019_Apr_25_1557,2AFC_task,59.95491392436398,
stimuli/rgb_scene000113_render000001.png,stimuli/rgb_scene000113_render000003.png,0,102,102,154,"[0, 1]",right,1,111,19,f,y,y,2019_Apr_25_1557,2AFC_task,59.95491392436398,
stimuli/rgb_scene000096_render000003.png,stimuli/rgb_scene000096_render000004.png,0,103,103,120,"[0, 1]",right,1,111,19,f,y,y,2019_Apr_25_1557,2AFC_task,59.95491392436398,
stimuli/rgb_scene000195_render000003.png,stimuli/rgb_scene000195_render000004.png,0,104,104,204,"[0, 1]",left,0,111,19,f,y,y,2019_Apr_25_1557,2AFC_task,59.95491392436398,
stimuli/rgb_scene000095_render000004.png,stimuli/rgb_scene000095_render000005.png,0,105,105,102,"[1, 0]",left,1,111,19,f,y,y,2019_Apr_25_1557,2AFC_task,59.95491392436398,
stimuli/rgb_scene000090_render000002.png,stimuli/rgb_scene000090_render000006.png,0,106,106,77,"[0, 1]",left,0,111,19,f,y,y,2019_Apr_25_1557,2AFC_task,59.95491392436398,
stimuli/rgb_scene000090_render000001.png,stimuli/rgb_scene000090_render000002.png,0,107,107,69,"[0, 1]",right,1,111,19,f,y,y,2019_Apr_25_1557,2AFC_task,59.95491392436398,
stimuli/rgb_scene000102_render000004.png,stimuli/rgb_scene000102_render000006.png,0,108,108,145,"[0, 1]",right,1,111,19,f,y,y,2019_Apr_25_1557,2AFC_task,59.95491392436398,
stimuli/rgb_scene000146_render000002.png,stimuli/rgb_scene000146_render000004.png,0,109,109,180,"[1, 0]",left,1,111,19,f,y,y,2019_Apr_25_1557,2AFC_task,59.95491392436398,
stimuli/rgb_scene000005_render000001.png,stimuli/rgb_scene000005_render000006.png,0,110,110,31,"[1, 0]",right,0,111,19,f,y,y,2019_Apr_25_1557,2AFC_task,59.95491392436398,
stimuli/rgb_scene000004_render000001.png,stimuli/rgb_scene000004_render000003.png,0,111,111,7,"[1, 0]",left,1,111,19,f,y,y,2019_Apr_25_1557,2AFC_task,59.95491392436398,
stimuli/rgb_scene000195_render000001.png,stimuli/rgb_scene000195_render000003.png,0,112,112,196,"[0, 1]",right,1,111,19,f,y,y,2019_Apr_25_1557,2AFC_task,59.95491392436398,
stimuli/rgb_scene000195_render000001.png,stimuli/rgb_scene000195_render000005.png,0,113,113,198,"[0, 1]",left,0,111,19,f,y,y,2019_Apr_25_1557,2AFC_task,59.95491392436398,
stimuli/rgb_scene000102_render000002.png,stimuli/rgb_scene000102_render000006.png,0,114,114,140,"[0, 1]",right,1,111,19,f,y,y,2019_Apr_25_1557,2AFC_task,59.95491392436398,
stimuli/rgb_scene000004_render000001.png,stimuli/rgb_scene000004_render000006.png,0,115,115,10,"[1, 0]",left,1,111,19,f,y,y,2019_Apr_25_1557,2AFC_task,59.95491392436398,
stimuli/rgb_scene000004_render000003.png,stimuli/rgb_scene000004_render000005.png,0,116,116,16,"[0, 1]",right,1,111,19,f,y,y,2019_Apr_25_1557,2AFC_task,59.95491392436398,
stimuli/rgb_scene000146_render000000.png,stimuli/rgb_scene000146_render000006.png,0,117,117,173,"[1, 0]",left,1,111,19,f,y,y,2019_Apr_25_1557,2AFC_task,59.95491392436398,
stimuli/rgb_scene000195_render000000.png,stimuli/rgb_scene000195_render000005.png,0,118,118,193,"[1, 0]",right,0,111,19,f,y,y,2019_Apr_25_1557,2AFC_task,59.95491392436398,
stimuli/rgb_scene000005_render000000.png,stimuli/rgb_scene000005_render000006.png,0,119,119,26,"[1, 0]",right,0,111,19,f,y,y,2019_Apr_25_1557,2AFC_task,59.95491392436398,
stimuli/rgb_scene000012_render000001.png,stimuli/rgb_scene000012_render000003.png,0,120,120,49,"[1, 0]",left,1,111,19,f,y,y,2019_Apr_25_1557,2AFC_task,59.95491392436398,
stimuli/rgb_scene000146_render000001.png,stimuli/rgb_scene000146_render000006.png,0,121,121,178,"[0, 1]",right,1,111,19,f,y,y,2019_Apr_25_1557,2AFC_task,59.95491392436398,
stimuli/rgb_scene000113_render000000.png,stimuli/rgb_scene000113_render000002.png,0,122,122,148,"[1, 0]",left,1,111,19,f,y,y,2019_Apr_25_1557,2AFC_task,59.95491392436398,
stimuli/rgb_scene000113_render000002.png,stimuli/rgb_scene000113_render000005.png,0,123,123,160,"[0, 1]",right,1,111,19,f,y,y,2019_Apr_25_1557,2AFC_task,59.95491392436398,
stimuli/rgb_scene000012_render000002.png,stimuli/rgb_scene000012_render000004.png,0,124,124,54,"[0, 1]",right,1,111,19,f,y,y,2019_Apr_25_1557,2AFC_task,59.95491392436398,
stimuli/rgb_scene000113_render000002.png,stimuli/rgb_scene000113_render000003.png,0,125,125,158,"[1, 0]",left,1,111,19,f,y,y,2019_Apr_25_1557,2AFC_task,59.95491392436398,
stimuli/rgb_scene000095_render000002.png,stimuli/rgb_scene000095_render000004.png,0,126,126,96,"[1, 0]",left,1,111,19,f,y,y,2019_Apr_25_1557,2AFC_task,59.95491392436398,
stimuli/rgb_scene000195_render000000.png,stimuli/rgb_scene000195_render000004.png,0,127,127,192,"[0, 1]",right,1,111,19,f,y,y,2019_Apr_25_1557,2AFC_task,59.95491392436398,
stimuli/rgb_scene000102_render000000.png,stimuli/rgb_scene000102_render000006.png,0,128,128,131,"[1, 0]",left,1,111,19,f,y,y,2019_Apr_25_1557,2AFC_task,59.95491392436398,
stimuli/rgb_scene000096_render000003.png,stimuli/rgb_scene000096_render000006.png,0,129,129,122,"[0, 1]",right,1,111,19,f,y,y,2019_Apr_25_1557,2AFC_task,59.95491392436398,
stimuli/rgb_scene000096_render000000.png,stimuli/rgb_scene000096_render000003.png,0,130,130,107,"[0, 1]",right,1,111,19,f,y,y,2019_Apr_25_1557,2AFC_task,59.95491392436398,
stimuli/rgb_scene000146_render000001.png,stimuli/rgb_scene000146_render000003.png,0,131,131,175,"[1, 0]",left,1,111,19,f,y,y,2019_Apr_25_1557,2AFC_task,59.95491392436398,
stimuli/rgb_scene000096_render000000.png,stimuli/rgb_scene000096_render000002.png,0,132,132,106,"[0, 1]",right,1,111,19,f,y,y,2019_Apr_25_1557,2AFC_task,59.95491392436398,
stimuli/rgb_scene000146_render000004.png,stimuli/rgb_scene000146_render000006.png,0,133,133,187,"[0, 1]",right,1,111,19,f,y,y,2019_Apr_25_1557,2AFC_task,59.95491392436398,
stimuli/rgb_scene000102_render000000.png,stimuli/rgb_scene000102_render000005.png,0,134,134,130,"[0, 1]",right,1,111,19,f,y,y,2019_Apr_25_1557,2AFC_task,59.95491392436398,
stimuli/rgb_scene000146_render000001.png,stimuli/rgb_scene000146_render000002.png,0,135,135,174,"[1, 0]",left,1,111,19,f,y,y,2019_Apr_25_1557,2AFC_task,59.95491392436398,
stimuli/rgb_scene000146_render000003.png,stimuli/rgb_scene000146_render000005.png,0,136,136,184,"[1, 0]",left,1,111,19,f,y,y,2019_Apr_25_1557,2AFC_task,59.95491392436398,
stimuli/rgb_scene000195_render000003.png,stimuli/rgb_scene000195_render000005.png,0,137,137,205,"[0, 1]",left,0,111,19,f,y,y,2019_Apr_25_1557,2AFC_task,59.95491392436398,
stimuli/rgb_scene000113_render000000.png,stimuli/rgb_scene000113_render000001.png,0,138,138,147,"[1, 0]",left,1,111,19,f,y,y,2019_Apr_25_1557,2AFC_task,59.95491392436398,
stimuli/rgb_scene000102_render000002.png,stimuli/rgb_scene000102_render000003.png,0,139,139,137,"[0, 1]",right,1,111,19,f,y,y,2019_Apr_25_1557,2AFC_task,59.95491392436398,
stimuli/rgb_scene000102_render000003.png,stimuli/rgb_scene000102_render000005.png,0,140,140,142,"[0, 1]",right,1,111,19,f,y,y,2019_Apr_25_1557,2AFC_task,59.95491392436398,
stimuli/rgb_scene000096_render000001.png,stimuli/rgb_scene000096_render000005.png,0,141,141,114,"[0, 1]",right,1,111,19,f,y,y,2019_Apr_25_1557,2AFC_task,59.95491392436398,
stimuli/rgb_scene000113_render000004.png,stimuli/rgb_scene000113_render000006.png,0,142,142,166,"[1, 0]",left,1,111,19,f,y,y,2019_Apr_25_1557,2AFC_task,59.95491392436398,
stimuli/rgb_scene000005_render000002.png,stimuli/rgb_scene000005_render000006.png,0,143,143,35,"[1, 0]",right,0,111,19,f,y,y,2019_Apr_25_1557,2AFC_task,59.95491392436398,
stimuli/rgb_scene000095_render000000.png,stimuli/rgb_scene000095_render000003.png,0,144,144,86,"[1, 0]",left,1,111,19,f,y,y,2019_Apr_25_1557,2AFC_task,59.95491392436398,
stimuli/rgb_scene000102_render000004.png,stimuli/rgb_scene000102_render000005.png,0,145,145,144,"[1, 0]",left,1,111,19,f,y,y,2019_Apr_25_1557,2AFC_task,59.95491392436398,
stimuli/rgb_scene000005_render000003.png,stimuli/rgb_scene000005_render000005.png,0,146,146,37,"[0, 1]",left,0,111,19,f,y,y,2019_Apr_25_1557,2AFC_task,59.95491392436398,
stimuli/rgb_scene000004_render000002.png,stimuli/rgb_scene000004_render000005.png,0,147,147,13,"[1, 0]",left,1,111,19,f,y,y,2019_Apr_25_1557,2AFC_task,59.95491392436398,
stimuli/rgb_scene000195_render000001.png,stimuli/rgb_scene000195_render000004.png,0,148,148,197,"[1, 0]",right,0,111,19,f,y,y,2019_Apr_25_1557,2AFC_task,59.95491392436398,
stimuli/rgb_scene000146_render000000.png,stimuli/rgb_scene000146_render000004.png,0,149,149,171,"[1, 0]",left,1,111,19,f,y,y,2019_Apr_25_1557,2AFC_task,59.95491392436398,
stimuli/rgb_scene000012_render000000.png,stimuli/rgb_scene000012_render000001.png,0,150,150,42,"[0, 1]",right,1,111,19,f,y,y,2019_Apr_25_1557,2AFC_task,59.95491392436398,
stimuli/rgb_scene000004_render000000.png,stimuli/rgb_scene000004_render000002.png,0,151,151,1,"[1, 0]",left,1,111,19,f,y,y,2019_Apr_25_1557,2AFC_task,59.95491392436398,
stimuli/rgb_scene000004_render000003.png,stimuli/rgb_scene000004_render000004.png,0,152,152,15,"[1, 0]",left,1,111,19,f,y,y,2019_Apr_25_1557,2AFC_task,59.95491392436398,
stimuli/rgb_scene000096_render000002.png,stimuli/rgb_scene000096_render000004.png,0,153,153,117,"[0, 1]",right,1,111,19,f,y,y,2019_Apr_25_1557,2AFC_task,59.95491392436398,
stimuli/rgb_scene000004_render000002.png,stimuli/rgb_scene000004_render000003.png,0,154,154,11,"[0, 1]",right,1,111,19,f,y,y,2019_Apr_25_1557,2AFC_task,59.95491392436398,
stimuli/rgb_scene000004_render000000.png,stimuli/rgb_scene000004_render000004.png,0,155,155,3,"[1, 0]",left,1,111,19,f,y,y,2019_Apr_25_1557,2AFC_task,59.95491392436398,
stimuli/rgb_scene000090_render000000.png,stimuli/rgb_scene000090_render000004.png,0,156,156,66,"[0, 1]",left,0,111,19,f,y,y,2019_Apr_25_1557,2AFC_task,59.95491392436398,
stimuli/rgb_scene000113_render000000.png,stimuli/rgb_scene000113_render000005.png,0,157,157,151,"[1, 0]",left,1,111,19,f,y,y,2019_Apr_25_1557,2AFC_task,59.95491392436398,
stimuli/rgb_scene000195_render000000.png,stimuli/rgb_scene000195_render000003.png,0,158,158,191,"[0, 1]",right,1,111,19,f,y,y,2019_Apr_25_1557,2AFC_task,59.95491392436398,
stimuli/rgb_scene000012_render000004.png,stimuli/rgb_scene000012_render000006.png,0,159,159,61,"[0, 1]",right,1,111,19,f,y,y,2019_Apr_25_1557,2AFC_task,59.95491392436398,
stimuli/rgb_scene000012_render000000.png,stimuli/rgb_scene000012_render000005.png,0,160,160,46,"[0, 1]",right,1,111,19,f,y,y,2019_Apr_25_1557,2AFC_task,59.95491392436398,
stimuli/rgb_scene000005_render000002.png,stimuli/rgb_scene000005_render000005.png,0,161,161,34,"[1, 0]",right,0,111,19,f,y,y,2019_Apr_25_1557,2AFC_task,59.95491392436398,
stimuli/rgb_scene000113_render000001.png,stimuli/rgb_scene000113_render000002.png,0,162,162,153,"[1, 0]",left,1,111,19,f,y,y,2019_Apr_25_1557,2AFC_task,59.95491392436398,
stimuli/rgb_scene000146_render000000.png,stimuli/rgb_scene000146_render000003.png,0,163,163,170,"[1, 0]",left,1,111,19,f,y,y,2019_Apr_25_1557,2AFC_task,59.95491392436398,
stimuli/rgb_scene000004_render000001.png,stimuli/rgb_scene000004_render000005.png,0,164,164,9,"[0, 1]",right,1,111,19,f,y,y,2019_Apr_25_1557,2AFC_task,59.95491392436398,
stimuli/rgb_scene000096_render000001.png,stimuli/rgb_scene000096_render000002.png,0,165,165,111,"[0, 1]",right,1,111,19,f,y,y,2019_Apr_25_1557,2AFC_task,59.95491392436398,
stimuli/rgb_scene000012_render000001.png,stimuli/rgb_scene000012_render000006.png,0,166,166,52,"[1, 0]",left,1,111,19,f,y,y,2019_Apr_25_1557,2AFC_task,59.95491392436398,
stimuli/rgb_scene000090_render000003.png,stimuli/rgb_scene000090_render000004.png,0,167,167,78,"[1, 0]",right,0,111,19,f,y,y,2019_Apr_25_1557,2AFC_task,59.95491392436398,
stimuli/rgb_scene000095_render000001.png,stimuli/rgb_scene000095_render000004.png,0,168,168,92,"[0, 1]",right,1,111,19,f,y,y,2019_Apr_25_1557,2AFC_task,59.95491392436398,
stimuli/rgb_scene000102_render000000.png,stimuli/rgb_scene000102_render000001.png,0,169,169,126,"[1, 0]",left,1,111,19,f,y,y,2019_Apr_25_1557,2AFC_task,59.95491392436398,
stimuli/rgb_scene000095_render000004.png,stimuli/rgb_scene000095_render000006.png,0,170,170,103,"[1, 0]",left,1,111,19,f,y,y,2019_Apr_25_1557,2AFC_task,59.95491392436398,
stimuli/rgb_scene000004_render000003.png,stimuli/rgb_scene000004_render000006.png,0,171,171,17,"[0, 1]",right,1,111,19,f,y,y,2019_Apr_25_1557,2AFC_task,59.95491392436398,
stimuli/rgb_scene000012_render000002.png,stimuli/rgb_scene000012_render000003.png,0,172,172,53,"[1, 0]",left,1,111,19,f,y,y,2019_Apr_25_1557,2AFC_task,59.95491392436398,
stimuli/rgb_scene000146_render000000.png,stimuli/rgb_scene000146_render000002.png,0,173,173,169,"[0, 1]",right,1,111,19,f,y,y,2019_Apr_25_1557,2AFC_task,59.95491392436398,
stimuli/rgb_scene000095_render000003.png,stimuli/rgb_scene000095_render000005.png,0,174,174,100,"[1, 0]",left,1,111,19,f,y,y,2019_Apr_25_1557,2AFC_task,59.95491392436398,
stimuli/rgb_scene000012_render000004.png,stimuli/rgb_scene000012_render000005.png,0,175,175,60,"[1, 0]",left,1,111,19,f,y,y,2019_Apr_25_1557,2AFC_task,59.95491392436398,
stimuli/rgb_scene000005_render000000.png,stimuli/rgb_scene000005_render000004.png,0,176,176,24,"[1, 0]",right,0,111,19,f,y,y,2019_Apr_25_1557,2AFC_task,59.95491392436398,
stimuli/rgb_scene000012_render000000.png,stimuli/rgb_scene000012_render000006.png,0,177,177,47,"[0, 1]",right,1,111,19,f,y,y,2019_Apr_25_1557,2AFC_task,59.95491392436398,
stimuli/rgb_scene000005_render000004.png,stimuli/rgb_scene000005_render000005.png,0,178,178,39,"[1, 0]",right,0,111,19,f,y,y,2019_Apr_25_1557,2AFC_task,59.95491392436398,
stimuli/rgb_scene000096_render000002.png,stimuli/rgb_scene000096_render000006.png,0,179,179,119,"[0, 1]",right,1,111,19,f,y,y,2019_Apr_25_1557,2AFC_task,59.95491392436398,
stimuli/rgb_scene000095_render000001.png,stimuli/rgb_scene000095_render000003.png,0,180,180,91,"[0, 1]",right,1,111,19,f,y,y,2019_Apr_25_1557,2AFC_task,59.95491392436398,
stimuli/rgb_scene000195_render000002.png,stimuli/rgb_scene000195_render000003.png,0,181,181,200,"[0, 1]",right,1,111,19,f,y,y,2019_Apr_25_1557,2AFC_task,59.95491392436398,
stimuli/rgb_scene000005_render000005.png,stimuli/rgb_scene000005_render000006.png,0,182,182,41,"[1, 0]",right,0,111,19,f,y,y,2019_Apr_25_1557,2AFC_task,59.95491392436398,
stimuli/rgb_scene000195_render000000.png,stimuli/rgb_scene000195_render000006.png,0,183,183,194,"[1, 0]",left,1,111,19,f,y,y,2019_Apr_25_1557,2AFC_task,59.95491392436398,
stimuli/rgb_scene000090_render000005.png,stimuli/rgb_scene000090_render000006.png,0,184,184,83,"[0, 1]",left,0,111,19,f,y,y,2019_Apr_25_1557,2AFC_task,59.95491392436398,
stimuli/rgb_scene000095_render000005.png,stimuli/rgb_scene000095_render000006.png,0,185,185,104,"[1, 0]",left,1,111,19,f,y,y,2019_Apr_25_1557,2AFC_task,59.95491392436398,
stimuli/rgb_scene000090_render000001.png,stimuli/rgb_scene000090_render000003.png,0,186,186,70,"[1, 0]",right,0,111,19,f,y,y,2019_Apr_25_1557,2AFC_task,59.95491392436398,
stimuli/rgb_scene000113_render000004.png,stimuli/rgb_scene000113_render000005.png,0,187,187,165,"[0, 1]",right,1,111,19,f,y,y,2019_Apr_25_1557,2AFC_task,59.95491392436398,
stimuli/rgb_scene000146_render000000.png,stimuli/rgb_scene000146_render000001.png,0,188,188,168,"[0, 1]",right,1,111,19,f,y,y,2019_Apr_25_1557,2AFC_task,59.95491392436398,
stimuli/rgb_scene000012_render000003.png,stimuli/rgb_scene000012_render000006.png,0,189,189,59,"[0, 1]",right,1,111,19,f,y,y,2019_Apr_25_1557,2AFC_task,59.95491392436398,
stimuli/rgb_scene000005_render000000.png,stimuli/rgb_scene000005_render000003.png,0,190,190,23,"[1, 0]",right,0,111,19,f,y,y,2019_Apr_25_1557,2AFC_task,59.95491392436398,
stimuli/rgb_scene000113_render000000.png,stimuli/rgb_scene000113_render000006.png,0,191,191,152,"[1, 0]",left,1,111,19,f,y,y,2019_Apr_25_1557,2AFC_task,59.95491392436398,
stimuli/rgb_scene000005_render000001.png,stimuli/rgb_scene000005_render000004.png,0,192,192,29,"[0, 1]",left,0,111,19,f,y,y,2019_Apr_25_1557,2AFC_task,59.95491392436398,
stimuli/rgb_scene000095_render000000.png,stimuli/rgb_scene000095_render000001.png,0,193,193,84,"[1, 0]",left,1,111,19,f,y,y,2019_Apr_25_1557,2AFC_task,59.95491392436398,
stimuli/rgb_scene000095_render000001.png,stimuli/rgb_scene000095_render000002.png,0,194,194,90,"[1, 0]",left,1,111,19,f,y,y,2019_Apr_25_1557,2AFC_task,59.95491392436398,
stimuli/rgb_scene000096_render000000.png,stimuli/rgb_scene000096_render000004.png,0,195,195,108,"[0, 1]",right,1,111,19,f,y,y,2019_Apr_25_1557,2AFC_task,59.95491392436398,
stimuli/rgb_scene000102_render000001.png,stimuli/rgb_scene000102_render000005.png,0,196,196,135,"[0, 1]",right,1,111,19,f,y,y,2019_Apr_25_1557,2AFC_task,59.95491392436398,
stimuli/rgb_scene000095_render000002.png,stimuli/rgb_scene000095_render000006.png,0,197,197,98,"[0, 1]",right,1,111,19,f,y,y,2019_Apr_25_1557,2AFC_task,59.95491392436398,
stimuli/rgb_scene000195_render000000.png,stimuli/rgb_scene000195_render000002.png,0,198,198,190,"[1, 0]",left,1,111,19,f,y,y,2019_Apr_25_1557,2AFC_task,59.95491392436398,
stimuli/rgb_scene000096_render000004.png,stimuli/rgb_scene000096_render000006.png,0,199,199,124,"[0, 1]",right,1,111,19,f,y,y,2019_Apr_25_1557,2AFC_task,59.95491392436398,
stimuli/rgb_scene000102_render000001.png,stimuli/rgb_scene000102_render000002.png,0,200,200,132,"[0, 1]",right,1,111,19,f,y,y,2019_Apr_25_1557,2AFC_task,59.95491392436398,
stimuli/rgb_scene000004_render000004.png,stimuli/rgb_scene000004_render000005.png,0,201,201,18,"[0, 1]",right,1,111,19,f,y,y,2019_Apr_25_1557,2AFC_task,59.95491392436398,
stimuli/rgb_scene000090_render000003.png,stimuli/rgb_scene000090_render000005.png,0,202,202,79,"[1, 0]",right,0,111,19,f,y,y,2019_Apr_25_1557,2AFC_task,59.95491392436398,
stimuli/rgb_scene000012_render000002.png,stimuli/rgb_scene000012_render000005.png,0,203,203,55,"[0, 1]",right,1,111,19,f,y,y,2019_Apr_25_1557,2AFC_task,59.95491392436398,
stimuli/rgb_scene000004_render000005.png,stimuli/rgb_scene000004_render000006.png,0,204,204,20,"[1, 0]",left,1,111,19,f,y,y,2019_Apr_25_1557,2AFC_task,59.95491392436398,
stimuli/rgb_scene000005_render000002.png,stimuli/rgb_scene000005_render000004.png,0,205,205,33,"[1, 0]",right,0,111,19,f,y,y,2019_Apr_25_1557,2AFC_task,59.95491392436398,
stimuli/rgb_scene000096_render000002.png,stimuli/rgb_scene000096_render000003.png,0,206,206,116,"[1, 0]",left,1,111,19,f,y,y,2019_Apr_25_1557,2AFC_task,59.95491392436398,
stimuli/rgb_scene000012_render000000.png,stimuli/rgb_scene000012_render000002.png,0,207,207,43,"[0, 1]",right,1,111,19,f,y,y,2019_Apr_25_1557,2AFC_task,59.95491392436398,
stimuli/rgb_scene000005_render000001.png,stimuli/rgb_scene000005_render000003.png,0,208,208,28,"[1, 0]",right,0,111,19,f,y,y,2019_Apr_25_1557,2AFC_task,59.95491392436398,
stimuli/rgb_scene000146_render000003.png,stimuli/rgb_scene000146_render000006.png,0,209,209,185,"[1, 0]",left,1,111,19,f,y,y,2019_Apr_25_1557,2AFC_task,59.95491392436398,
stimuli/rgb_scene000113_render000000.png,stimuli/rgb_scene000113_render000003.png,1,0,210,149,"[1, 0]",left,1,111,19,f,y,y,2019_Apr_25_1557,2AFC_task,59.95491392436398,
stimuli/rgb_scene000195_render000004.png,stimuli/rgb_scene000195_render000006.png,1,1,211,208,"[0, 1]",left,0,111,19,f,y,y,2019_Apr_25_1557,2AFC_task,59.95491392436398,
stimuli/rgb_scene000102_render000000.png,stimuli/rgb_scene000102_render000001.png,1,2,212,126,"[1, 0]",left,1,111,19,f,y,y,2019_Apr_25_1557,2AFC_task,59.95491392436398,
stimuli/rgb_scene000005_render000002.png,stimuli/rgb_scene000005_render000004.png,1,3,213,33,"[1, 0]",right,0,111,19,f,y,y,2019_Apr_25_1557,2AFC_task,59.95491392436398,
stimuli/rgb_scene000195_render000000.png,stimuli/rgb_scene000195_render000003.png,1,4,214,191,"[0, 1]",right,1,111,19,f,y,y,2019_Apr_25_1557,2AFC_task,59.95491392436398,
stimuli/rgb_scene000012_render000001.png,stimuli/rgb_scene000012_render000005.png,1,5,215,51,"[0, 1]",right,1,111,19,f,y,y,2019_Apr_25_1557,2AFC_task,59.95491392436398,
stimuli/rgb_scene000090_render000002.png,stimuli/rgb_scene000090_render000004.png,1,6,216,75,"[1, 0]",right,0,111,19,f,y,y,2019_Apr_25_1557,2AFC_task,59.95491392436398,
stimuli/rgb_scene000195_render000002.png,stimuli/rgb_scene000195_render000006.png,1,7,217,203,"[1, 0]",right,0,111,19,f,y,y,2019_Apr_25_1557,2AFC_task,59.95491392436398,
stimuli/rgb_scene000146_render000000.png,stimuli/rgb_scene000146_render000005.png,1,8,218,172,"[0, 1]",right,1,111,19,f,y,y,2019_Apr_25_1557,2AFC_task,59.95491392436398,
stimuli/rgb_scene000102_render000002.png,stimuli/rgb_scene000102_render000003.png,1,9,219,137,"[0, 1]",right,1,111,19,f,y,y,2019_Apr_25_1557,2AFC_task,59.95491392436398,
stimuli/rgb_scene000012_render000003.png,stimuli/rgb_scene000012_render000006.png,1,10,220,59,"[1, 0]",left,1,111,19,f,y,y,2019_Apr_25_1557,2AFC_task,59.95491392436398,
stimuli/rgb_scene000090_render000005.png,stimuli/rgb_scene000090_render000006.png,1,11,221,83,"[0, 1]",right,1,111,19,f,y,y,2019_Apr_25_1557,2AFC_task,59.95491392436398,
stimuli/rgb_scene000146_render000003.png,stimuli/rgb_scene000146_render000005.png,1,12,222,184,"[0, 1]",right,1,111,19,f,y,y,2019_Apr_25_1557,2AFC_task,59.95491392436398,
stimuli/rgb_scene000005_render000003.png,stimuli/rgb_scene000005_render000006.png,1,13,223,38,"[0, 1]",left,0,111,19,f,y,y,2019_Apr_25_1557,2AFC_task,59.95491392436398,
stimuli/rgb_scene000095_render000003.png,stimuli/rgb_scene000095_render000005.png,1,14,224,100,"[0, 1]",right,1,111,19,f,y,y,2019_Apr_25_1557,2AFC_task,59.95491392436398,
stimuli/rgb_scene000012_render000001.png,stimuli/rgb_scene000012_render000004.png,1,15,225,50,"[1, 0]",left,1,111,19,f,y,y,2019_Apr_25_1557,2AFC_task,59.95491392436398,
stimuli/rgb_scene000095_render000004.png,stimuli/rgb_scene000095_render000006.png,1,16,226,103,"[1, 0]",left,1,111,19,f,y,y,2019_Apr_25_1557,2AFC_task,59.95491392436398,
stimuli/rgb_scene000146_render000001.png,stimuli/rgb_scene000146_render000006.png,1,17,227,178,"[0, 1]",right,1,111,19,f,y,y,2019_Apr_25_1557,2AFC_task,59.95491392436398,
stimuli/rgb_scene000012_render000002.png,stimuli/rgb_scene000012_render000006.png,1,18,228,56,"[0, 1]",right,1,111,19,f,y,y,2019_Apr_25_1557,2AFC_task,59.95491392436398,
stimuli/rgb_scene000113_render000003.png,stimuli/rgb_scene000113_render000005.png,1,19,229,163,"[0, 1]",right,1,111,19,f,y,y,2019_Apr_25_1557,2AFC_task,59.95491392436398,
stimuli/rgb_scene000012_render000000.png,stimuli/rgb_scene000012_render000001.png,1,20,230,42,"[1, 0]",left,1,111,19,f,y,y,2019_Apr_25_1557,2AFC_task,59.95491392436398,
stimuli/rgb_scene000090_render000002.png,stimuli/rgb_scene000090_render000006.png,1,21,231,77,"[0, 1]",left,0,111,19,f,y,y,2019_Apr_25_1557,2AFC_task,59.95491392436398,
stimuli/rgb_scene000090_render000000.png,stimuli/rgb_scene000090_render000006.png,1,22,232,68,"[1, 0]",right,0,111,19,f,y,y,2019_Apr_25_1557,2AFC_task,59.95491392436398,
stimuli/rgb_scene000113_render000001.png,stimuli/rgb_scene000113_render000002.png,1,23,233,153,"[0, 1]",right,1,111,19,f,y,y,2019_Apr_25_1557,2AFC_task,59.95491392436398,
stimuli/rgb_scene000195_render000001.png,stimuli/rgb_scene000195_render000004.png,1,24,234,197,"[0, 1]",left,0,111,19,f,y,y,2019_Apr_25_1557,2AFC_task,59.95491392436398,
stimuli/rgb_scene000146_render000004.png,stimuli/rgb_scene000146_render000005.png,1,25,235,186,"[1, 0]",left,1,111,19,f,y,y,2019_Apr_25_1557,2AFC_task,59.95491392436398,
stimuli/rgb_scene000096_render000004.png,stimuli/rgb_scene000096_render000005.png,1,26,236,123,"[0, 1]",right,1,111,19,f,y,y,2019_Apr_25_1557,2AFC_task,59.95491392436398,
stimuli/rgb_scene000004_render000003.png,stimuli/rgb_scene000004_render000004.png,1,27,237,15,"[1, 0]",left,1,111,19,f,y,y,2019_Apr_25_1557,2AFC_task,59.95491392436398,
stimuli/rgb_scene000090_render000000.png,stimuli/rgb_scene000090_render000003.png,1,28,238,65,"[1, 0]",right,0,111,19,f,y,y,2019_Apr_25_1557,2AFC_task,59.95491392436398,
stimuli/rgb_scene000195_render000000.png,stimuli/rgb_scene000195_render000005.png,1,29,239,193,"[0, 1]",left,0,111,19,f,y,y,2019_Apr_25_1557,2AFC_task,59.95491392436398,
stimuli/rgb_scene000090_render000000.png,stimuli/rgb_scene000090_render000004.png,1,30,240,66,"[1, 0]",right,0,111,19,f,y,y,2019_Apr_25_1557,2AFC_task,59.95491392436398,
stimuli/rgb_scene000005_render000002.png,stimuli/rgb_scene000005_render000006.png,1,31,241,35,"[0, 1]",left,0,111,19,f,y,y,2019_Apr_25_1557,2AFC_task,59.95491392436398,
stimuli/rgb_scene000012_render000000.png,stimuli/rgb_scene000012_render000005.png,1,32,242,46,"[0, 1]",right,1,111,19,f,y,y,2019_Apr_25_1557,2AFC_task,59.95491392436398,
stimuli/rgb_scene000090_render000000.png,stimuli/rgb_scene000090_render000002.png,1,33,243,64,"[1, 0]",right,0,111,19,f,y,y,2019_Apr_25_1557,2AFC_task,59.95491392436398,
stimuli/rgb_scene000146_render000002.png,stimuli/rgb_scene000146_render000005.png,1,34,244,181,"[0, 1]",right,1,111,19,f,y,y,2019_Apr_25_1557,2AFC_task,59.95491392436398,
stimuli/rgb_scene000012_render000000.png,stimuli/rgb_scene000012_render000006.png,1,35,245,47,"[0, 1]",right,1,111,19,f,y,y,2019_Apr_25_1557,2AFC_task,59.95491392436398,
stimuli/rgb_scene000095_render000001.png,stimuli/rgb_scene000095_render000005.png,1,36,246,93,"[0, 1]",right,1,111,19,f,y,y,2019_Apr_25_1557,2AFC_task,59.95491392436398,
stimuli/rgb_scene000096_render000003.png,stimuli/rgb_scene000096_render000004.png,1,37,247,120,"[0, 1]",right,1,111,19,f,y,y,2019_Apr_25_1557,2AFC_task,59.95491392436398,
stimuli/rgb_scene000012_render000004.png,stimuli/rgb_scene000012_render000005.png,1,38,248,60,"[1, 0]",left,1,111,19,f,y,y,2019_Apr_25_1557,2AFC_task,59.95491392436398,
stimuli/rgb_scene000102_render000001.png,stimuli/rgb_scene000102_render000004.png,1,39,249,134,"[0, 1]",right,1,111,19,f,y,y,2019_Apr_25_1557,2AFC_task,59.95491392436398,
stimuli/rgb_scene000096_render000002.png,stimuli/rgb_scene000096_render000006.png,1,40,250,119,"[1, 0]",left,1,111,19,f,y,y,2019_Apr_25_1557,2AFC_task,59.95491392436398,
stimuli/rgb_scene000004_render000002.png,stimuli/rgb_scene000004_render000006.png,1,41,251,14,"[0, 1]",right,1,111,19,f,y,y,2019_Apr_25_1557,2AFC_task,59.95491392436398,
stimuli/rgb_scene000090_render000003.png,stimuli/rgb_scene000090_render000006.png,1,42,252,80,"[1, 0]",right,0,111,19,f,y,y,2019_Apr_25_1557,2AFC_task,59.95491392436398,
stimuli/rgb_scene000195_render000000.png,stimuli/rgb_scene000195_render000006.png,1,43,253,194,"[0, 1]",left,0,111,19,f,y,y,2019_Apr_25_1557,2AFC_task,59.95491392436398,
stimuli/rgb_scene000012_render000003.png,stimuli/rgb_scene000012_render000005.png,1,44,254,58,"[0, 1]",right,1,111,19,f,y,y,2019_Apr_25_1557,2AFC_task,59.95491392436398,
stimuli/rgb_scene000146_render000001.png,stimuli/rgb_scene000146_render000004.png,1,45,255,176,"[1, 0]",left,1,111,19,f,y,y,2019_Apr_25_1557,2AFC_task,59.95491392436398,
stimuli/rgb_scene000095_render000000.png,stimuli/rgb_scene000095_render000004.png,1,46,256,87,"[1, 0]",left,1,111,19,f,y,y,2019_Apr_25_1557,2AFC_task,59.95491392436398,
stimuli/rgb_scene000146_render000000.png,stimuli/rgb_scene000146_render000003.png,1,47,257,170,"[1, 0]",left,1,111,19,f,y,y,2019_Apr_25_1557,2AFC_task,59.95491392436398,
stimuli/rgb_scene000146_render000004.png,stimuli/rgb_scene000146_render000006.png,1,48,258,187,"[1, 0]",left,1,111,19,f,y,y,2019_Apr_25_1557,2AFC_task,59.95491392436398,
stimuli/rgb_scene000012_render000001.png,stimuli/rgb_scene000012_render000002.png,1,49,259,48,"[0, 1]",right,1,111,19,f,y,y,2019_Apr_25_1557,2AFC_task,59.95491392436398,
stimuli/rgb_scene000195_render000001.png,stimuli/rgb_scene000195_render000005.png,1,50,260,198,"[0, 1]",left,0,111,19,f,y,y,2019_Apr_25_1557,2AFC_task,59.95491392436398,
stimuli/rgb_scene000004_render000002.png,stimuli/rgb_scene000004_render000004.png,1,51,261,12,"[1, 0]",left,1,111,19,f,y,y,2019_Apr_25_1557,2AFC_task,59.95491392436398,
stimuli/rgb_scene000005_render000002.png,stimuli/rgb_scene000005_render000005.png,1,52,262,34,"[0, 1]",left,0,111,19,f,y,y,2019_Apr_25_1557,2AFC_task,59.95491392436398,
stimuli/rgb_scene000095_render000000.png,stimuli/rgb_scene000095_render000002.png,1,53,263,85,"[0, 1]",right,1,111,19,f,y,y,2019_Apr_25_1557,2AFC_task,59.95491392436398,
stimuli/rgb_scene000012_render000002.png,stimuli/rgb_scene000012_render000004.png,1,54,264,54,"[1, 0]",left,1,111,19,f,y,y,2019_Apr_25_1557,2AFC_task,59.95491392436398,
stimuli/rgb_scene000012_render000000.png,stimuli/rgb_scene000012_render000004.png,1,55,265,45,"[1, 0]",left,1,111,19,f,y,y,2019_Apr_25_1557,2AFC_task,59.95491392436398,
stimuli/rgb_scene000004_render000004.png,stimuli/rgb_scene000004_render000006.png,1,56,266,19,"[1, 0]",left,1,111,19,f,y,y,2019_Apr_25_1557,2AFC_task,59.95491392436398,
stimuli/rgb_scene000102_render000005.png,stimuli/rgb_scene000102_render000006.png,1,57,267,146,"[0, 1]",right,1,111,19,f,y,y,2019_Apr_25_1557,2AFC_task,59.95491392436398,
stimuli/rgb_scene000113_render000001.png,stimuli/rgb_scene000113_render000006.png,1,58,268,157,"[0, 1]",right,1,111,19,f,y,y,2019_Apr_25_1557,2AFC_task,59.95491392436398,
stimuli/rgb_scene000005_render000002.png,stimuli/rgb_scene000005_render000003.png,1,59,269,32,"[0, 1]",right,1,111,19,f,y,y,2019_Apr_25_1557,2AFC_task,59.95491392436398,
stimuli/rgb_scene000095_render000001.png,stimuli/rgb_scene000095_render000002.png,1,60,270,90,"[0, 1]",right,1,111,19,f,y,y,2019_Apr_25_1557,2AFC_task,59.95491392436398,
stimuli/rgb_scene000004_render000000.png,stimuli/rgb_scene000004_render000005.png,1,61,271,4,"[1, 0]",left,1,111,19,f,y,y,2019_Apr_25_1557,2AFC_task,59.95491392436398,
stimuli/rgb_scene000090_render000003.png,stimuli/rgb_scene000090_render000004.png,1,62,272,78,"[1, 0]",right,0,111,19,f,y,y,2019_Apr_25_1557,2AFC_task,59.95491392436398,
stimuli/rgb_scene000146_render000002.png,stimuli/rgb_scene000146_render000006.png,1,63,273,182,"[0, 1]",right,1,111,19,f,y,y,2019_Apr_25_1557,2AFC_task,59.95491392436398,
stimuli/rgb_scene000012_render000003.png,stimuli/rgb_scene000012_render000004.png,1,64,274,57,"[1, 0]",left,1,111,19,f,y,y,2019_Apr_25_1557,2AFC_task,59.95491392436398,
stimuli/rgb_scene000096_render000001.png,stimuli/rgb_scene000096_render000003.png,1,65,275,112,"[0, 1]",right,1,111,19,f,y,y,2019_Apr_25_1557,2AFC_task,59.95491392436398,
stimuli/rgb_scene000004_render000002.png,stimuli/rgb_scene000004_render000003.png,1,66,276,11,"[1, 0]",left,1,111,19,f,y,y,2019_Apr_25_1557,2AFC_task,59.95491392436398,
stimuli/rgb_scene000095_render000002.png,stimuli/rgb_scene000095_render000005.png,1,67,277,97,"[1, 0]",left,1,111,19,f,y,y,2019_Apr_25_1557,2AFC_task,59.95491392436398,
stimuli/rgb_scene000095_render000003.png,stimuli/rgb_scene000095_render000006.png,1,68,278,101,"[1, 0]",left,1,111,19,f,y,y,2019_Apr_25_1557,2AFC_task,59.95491392436398,
stimuli/rgb_scene000102_render000001.png,stimuli/rgb_scene000102_render000005.png,1,69,279,135,"[0, 1]",right,1,111,19,f,y,y,2019_Apr_25_1557,2AFC_task,59.95491392436398,
stimuli/rgb_scene000113_render000001.png,stimuli/rgb_scene000113_render000005.png,1,70,280,156,"[0, 1]",right,1,111,19,f,y,y,2019_Apr_25_1557,2AFC_task,59.95491392436398,
stimuli/rgb_scene000004_render000003.png,stimuli/rgb_scene000004_render000005.png,1,71,281,16,"[1, 0]",left,1,111,19,f,y,y,2019_Apr_25_1557,2AFC_task,59.95491392436398,
stimuli/rgb_scene000005_render000004.png,stimuli/rgb_scene000005_render000005.png,1,72,282,39,"[1, 0]",right,0,111,19,f,y,y,2019_Apr_25_1557,2AFC_task,59.95491392436398,
stimuli/rgb_scene000004_render000000.png,stimuli/rgb_scene000004_render000006.png,1,73,283,5,"[1, 0]",left,1,111,19,f,y,y,2019_Apr_25_1557,2AFC_task,59.95491392436398,
stimuli/rgb_scene000113_render000000.png,stimuli/rgb_scene000113_render000006.png,1,74,284,152,"[0, 1]",right,1,111,19,f,y,y,2019_Apr_25_1557,2AFC_task,59.95491392436398,
stimuli/rgb_scene000005_render000000.png,stimuli/rgb_scene000005_render000003.png,1,75,285,23,"[1, 0]",left,1,111,19,f,y,y,2019_Apr_25_1557,2AFC_task,59.95491392436398,
stimuli/rgb_scene000005_render000000.png,stimuli/rgb_scene000005_render000002.png,1,76,286,22,"[1, 0]",left,1,111,19,f,y,y,2019_Apr_25_1557,2AFC_task,59.95491392436398,
stimuli/rgb_scene000004_render000004.png,stimuli/rgb_scene000004_render000005.png,1,77,287,18,"[1, 0]",left,1,111,19,f,y,y,2019_Apr_25_1557,2AFC_task,59.95491392436398,
stimuli/rgb_scene000005_render000000.png,stimuli/rgb_scene000005_render000005.png,1,78,288,25,"[0, 1]",right,1,111,19,f,y,y,2019_Apr_25_1557,2AFC_task,59.95491392436398,
stimuli/rgb_scene000096_render000003.png,stimuli/rgb_scene000096_render000006.png,1,79,289,122,"[0, 1]",right,1,111,19,f,y,y,2019_Apr_25_1557,2AFC_task,59.95491392436398,
stimuli/rgb_scene000005_render000000.png,stimuli/rgb_scene000005_render000006.png,1,80,290,26,"[1, 0]",right,0,111,19,f,y,y,2019_Apr_25_1557,2AFC_task,59.95491392436398,
stimuli/rgb_scene000004_render000003.png,stimuli/rgb_scene000004_render000006.png,1,81,291,17,"[0, 1]",right,1,111,19,f,y,y,2019_Apr_25_1557,2AFC_task,59.95491392436398,
stimuli/rgb_scene000146_render000001.png,stimuli/rgb_scene000146_render000005.png,1,82,292,177,"[0, 1]",right,1,111,19,f,y,y,2019_Apr_25_1557,2AFC_task,59.95491392436398,
stimuli/rgb_scene000102_render000001.png,stimuli/rgb_scene000102_render000006.png,1,83,293,136,"[1, 0]",right,0,111,19,f,y,y,2019_Apr_25_1557,2AFC_task,59.95491392436398,
stimuli/rgb_scene000102_render000002.png,stimuli/rgb_scene000102_render000006.png,1,84,294,140,"[0, 1]",right,1,111,19,f,y,y,2019_Apr_25_1557,2AFC_task,59.95491392436398,
stimuli/rgb_scene000195_render000003.png,stimuli/rgb_scene000195_render000005.png,1,85,295,205,"[0, 1]",left,0,111,19,f,y,y,2019_Apr_25_1557,2AFC_task,59.95491392436398,
stimuli/rgb_scene000146_render000002.png,stimuli/rgb_scene000146_render000003.png,1,86,296,179,"[1, 0]",left,1,111,19,f,y,y,2019_Apr_25_1557,2AFC_task,59.95491392436398,
stimuli/rgb_scene000102_render000002.png,stimuli/rgb_scene000102_render000005.png,1,87,297,139,"[0, 1]",right,1,111,19,f,y,y,2019_Apr_25_1557,2AFC_task,59.95491392436398,
stimuli/rgb_scene000096_render000000.png,stimuli/rgb_scene000096_render000003.png,1,88,298,107,"[1, 0]",left,1,111,19,f,y,y,2019_Apr_25_1557,2AFC_task,59.95491392436398,
stimuli/rgb_scene000096_render000000.png,stimuli/rgb_scene000096_render000005.png,1,89,299,109,"[1, 0]",left,1,111,19,f,y,y,2019_Apr_25_1557,2AFC_task,59.95491392436398,
stimuli/rgb_scene000005_render000001.png,stimuli/rgb_scene000005_render000006.png,1,90,300,31,"[0, 1]",right,1,111,19,f,y,y,2019_Apr_25_1557,2AFC_task,59.95491392436398,
stimuli/rgb_scene000095_render000002.png,stimuli/rgb_scene000095_render000006.png,1,91,301,98,"[0, 1]",right,1,111,19,f,y,y,2019_Apr_25_1557,2AFC_task,59.95491392436398,
stimuli/rgb_scene000096_render000000.png,stimuli/rgb_scene000096_render000004.png,1,92,302,108,"[0, 1]",right,1,111,19,f,y,y,2019_Apr_25_1557,2AFC_task,59.95491392436398,
stimuli/rgb_scene000195_render000001.png,stimuli/rgb_scene000195_render000003.png,1,93,303,196,"[1, 0]",left,1,111,19,f,y,y,2019_Apr_25_1557,2AFC_task,59.95491392436398,
stimuli/rgb_scene000090_render000000.png,stimuli/rgb_scene000090_render000005.png,1,94,304,67,"[0, 1]",left,0,111,19,f,y,y,2019_Apr_25_1557,2AFC_task,59.95491392436398,
stimuli/rgb_scene000102_render000003.png,stimuli/rgb_scene000102_render000005.png,1,95,305,142,"[1, 0]",left,1,111,19,f,y,y,2019_Apr_25_1557,2AFC_task,59.95491392436398,
stimuli/rgb_scene000102_render000000.png,stimuli/rgb_scene000102_render000004.png,1,96,306,129,"[1, 0]",left,1,111,19,f,y,y,2019_Apr_25_1557,2AFC_task,59.95491392436398,
stimuli/rgb_scene000004_render000001.png,stimuli/rgb_scene000004_render000005.png,1,97,307,9,"[1, 0]",left,1,111,19,f,y,y,2019_Apr_25_1557,2AFC_task,59.95491392436398,
stimuli/rgb_scene000195_render000002.png,stimuli/rgb_scene000195_render000005.png,1,98,308,202,"[1, 0]",right,0,111,19,f,y,y,2019_Apr_25_1557,2AFC_task,59.95491392436398,
stimuli/rgb_scene000113_render000000.png,stimuli/rgb_scene000113_render000001.png,1,99,309,147,"[1, 0]",left,1,111,19,f,y,y,2019_Apr_25_1557,2AFC_task,59.95491392436398,
stimuli/rgb_scene000005_render000003.png,stimuli/rgb_scene000005_render000005.png,1,100,310,37,"[1, 0]",right,0,111,19,f,y,y,2019_Apr_25_1557,2AFC_task,59.95491392436398,
stimuli/rgb_scene000113_render000004.png,stimuli/rgb_scene000113_render000006.png,1,101,311,166,"[1, 0]",left,1,111,19,f,y,y,2019_Apr_25_1557,2AFC_task,59.95491392436398,
stimuli/rgb_scene000102_render000003.png,stimuli/rgb_scene000102_render000006.png,1,102,312,143,"[0, 1]",right,1,111,19,f,y,y,2019_Apr_25_1557,2AFC_task,59.95491392436398,
stimuli/rgb_scene000102_render000001.png,stimuli/rgb_scene000102_render000003.png,1,103,313,133,"[0, 1]",right,1,111,19,f,y,y,2019_Apr_25_1557,2AFC_task,59.95491392436398,
stimuli/rgb_scene000195_render000001.png,stimuli/rgb_scene000195_render000006.png,1,104,314,199,"[1, 0]",right,0,111,19,f,y,y,2019_Apr_25_1557,2AFC_task,59.95491392436398,
stimuli/rgb_scene000102_render000000.png,stimuli/rgb_scene000102_render000002.png,1,105,315,127,"[1, 0]",left,1,111,19,f,y,y,2019_Apr_25_1557,2AFC_task,59.95491392436398,
stimuli/rgb_scene000146_render000000.png,stimuli/rgb_scene000146_render000002.png,1,106,316,169,"[1, 0]",left,1,111,19,f,y,y,2019_Apr_25_1557,2AFC_task,59.95491392436398,
stimuli/rgb_scene000113_render000002.png,stimuli/rgb_scene000113_render000005.png,1,107,317,160,"[0, 1]",right,1,111,19,f,y,y,2019_Apr_25_1557,2AFC_task,59.95491392436398,
stimuli/rgb_scene000095_render000001.png,stimuli/rgb_scene000095_render000004.png,1,108,318,92,"[1, 0]",left,1,111,19,f,y,y,2019_Apr_25_1557,2AFC_task,59.95491392436398,
stimuli/rgb_scene000012_render000005.png,stimuli/rgb_scene000012_render000006.png,1,109,319,62,"[1, 0]",right,0,111,19,f,y,y,2019_Apr_25_1557,2AFC_task,59.95491392436398,
stimuli/rgb_scene000004_render000000.png,stimuli/rgb_scene000004_render000004.png,1,110,320,3,"[0, 1]",right,1,111,19,f,y,y,2019_Apr_25_1557,2AFC_task,59.95491392436398,
stimuli/rgb_scene000004_render000001.png,stimuli/rgb_scene000004_render000006.png,1,111,321,10,"[1, 0]",left,1,111,19,f,y,y,2019_Apr_25_1557,2AFC_task,59.95491392436398,
stimuli/rgb_scene000195_render000004.png,stimuli/rgb_scene000195_render000005.png,1,112,322,207,"[0, 1]",left,0,111,19,f,y,y,2019_Apr_25_1557,2AFC_task,59.95491392436398,
stimuli/rgb_scene000004_render000000.png,stimuli/rgb_scene000004_render000001.png,1,113,323,0,"[0, 1]",right,1,111,19,f,y,y,2019_Apr_25_1557,2AFC_task,59.95491392436398,
stimuli/rgb_scene000090_render000002.png,stimuli/rgb_scene000090_render000003.png,1,114,324,74,"[1, 0]",right,0,111,19,f,y,y,2019_Apr_25_1557,2AFC_task,59.95491392436398,
stimuli/rgb_scene000096_render000004.png,stimuli/rgb_scene000096_render000006.png,1,115,325,124,"[1, 0]",left,1,111,19,f,y,y,2019_Apr_25_1557,2AFC_task,59.95491392436398,
stimuli/rgb_scene000146_render000000.png,stimuli/rgb_scene000146_render000004.png,1,116,326,171,"[0, 1]",right,1,111,19,f,y,y,2019_Apr_25_1557,2AFC_task,59.95491392436398,
stimuli/rgb_scene000113_render000000.png,stimuli/rgb_scene000113_render000004.png,1,117,327,150,"[1, 0]",left,1,111,19,f,y,y,2019_Apr_25_1557,2AFC_task,59.95491392436398,
stimuli/rgb_scene000005_render000005.png,stimuli/rgb_scene000005_render000006.png,1,118,328,41,"[0, 1]",left,0,111,19,f,y,y,2019_Apr_25_1557,2AFC_task,59.95491392436398,
stimuli/rgb_scene000146_render000000.png,stimuli/rgb_scene000146_render000001.png,1,119,329,168,"[1, 0]",left,1,111,19,f,y,y,2019_Apr_25_1557,2AFC_task,59.95491392436398,
stimuli/rgb_scene000096_render000002.png,stimuli/rgb_scene000096_render000004.png,1,120,330,117,"[0, 1]",right,1,111,19,f,y,y,2019_Apr_25_1557,2AFC_task,59.95491392436398,
stimuli/rgb_scene000095_render000005.png,stimuli/rgb_scene000095_render000006.png,1,121,331,104,"[0, 1]",right,1,111,19,f,y,y,2019_Apr_25_1557,2AFC_task,59.95491392436398,
stimuli/rgb_scene000113_render000001.png,stimuli/rgb_scene000113_render000004.png,1,122,332,155,"[0, 1]",right,1,111,19,f,y,y,2019_Apr_25_1557,2AFC_task,59.95491392436398,
stimuli/rgb_scene000195_render000005.png,stimuli/rgb_scene000195_render000006.png,1,123,333,209,"[1, 0]",right,0,111,19,f,y,y,2019_Apr_25_1557,2AFC_task,59.95491392436398,
stimuli/rgb_scene000005_render000000.png,stimuli/rgb_scene000005_render000004.png,1,124,334,24,"[1, 0]",right,0,111,19,f,y,y,2019_Apr_25_1557,2AFC_task,59.95491392436398,
stimuli/rgb_scene000095_render000000.png,stimuli/rgb_scene000095_render000006.png,1,125,335,89,"[1, 0]",left,1,111,19,f,y,y,2019_Apr_25_1557,2AFC_task,59.95491392436398,
stimuli/rgb_scene000096_render000000.png,stimuli/rgb_scene000096_render000006.png,1,126,336,110,"[1, 0]",left,1,111,19,f,y,y,2019_Apr_25_1557,2AFC_task,59.95491392436398,
stimuli/rgb_scene000113_render000001.png,stimuli/rgb_scene000113_render000003.png,1,127,337,154,"[0, 1]",right,1,111,19,f,y,y,2019_Apr_25_1557,2AFC_task,59.95491392436398,
stimuli/rgb_scene000012_render000001.png,stimuli/rgb_scene000012_render000006.png,1,128,338,52,"[1, 0]",left,1,111,19,f,y,y,2019_Apr_25_1557,2AFC_task,59.95491392436398,
stimuli/rgb_scene000090_render000001.png,stimuli/rgb_scene000090_render000005.png,1,129,339,72,"[0, 1]",left,0,111,19,f,y,y,2019_Apr_25_1557,2AFC_task,59.95491392436398,
stimuli/rgb_scene000005_render000004.png,stimuli/rgb_scene000005_render000006.png,1,130,340,40,"[0, 1]",left,0,111,19,f,y,y,2019_Apr_25_1557,2AFC_task,59.95491392436398,
stimuli/rgb_scene000102_render000002.png,stimuli/rgb_scene000102_render000004.png,1,131,341,138,"[0, 1]",right,1,111,19,f,y,y,2019_Apr_25_1557,2AFC_task,59.95491392436398,
stimuli/rgb_scene000102_render000000.png,stimuli/rgb_scene000102_render000005.png,1,132,342,130,"[1, 0]",left,1,111,19,f,y,y,2019_Apr_25_1557,2AFC_task,59.95491392436398,
stimuli/rgb_scene000113_render000002.png,stimuli/rgb_scene000113_render000006.png,1,133,343,161,"[1, 0]",left,1,111,19,f,y,y,2019_Apr_25_1557,2AFC_task,59.95491392436398,
stimuli/rgb_scene000090_render000001.png,stimuli/rgb_scene000090_render000002.png,1,134,344,69,"[0, 1]",left,0,111,19,f,y,y,2019_Apr_25_1557,2AFC_task,59.95491392436398,
stimuli/rgb_scene000005_render000001.png,stimuli/rgb_scene000005_render000002.png,1,135,345,27,"[0, 1]",right,1,111,19,f,y,y,2019_Apr_25_1557,2AFC_task,59.95491392436398,
stimuli/rgb_scene000102_render000004.png,stimuli/rgb_scene000102_render000006.png,1,136,346,145,"[0, 1]",right,1,111,19,f,y,y,2019_Apr_25_1557,2AFC_task,59.95491392436398,
stimuli/rgb_scene000004_render000005.png,stimuli/rgb_scene000004_render000006.png,1,137,347,20,"[0, 1]",right,1,111,19,f,y,y,2019_Apr_25_1557,2AFC_task,59.95491392436398,
stimuli/rgb_scene000095_render000000.png,stimuli/rgb_scene000095_render000003.png,1,138,348,86,"[1, 0]",left,1,111,19,f,y,y,2019_Apr_25_1557,2AFC_task,59.95491392436398,
stimuli/rgb_scene000195_render000003.png,stimuli/rgb_scene000195_render000006.png,1,139,349,206,"[1, 0]",right,0,111,19,f,y,y,2019_Apr_25_1557,2AFC_task,59.95491392436398,
stimuli/rgb_scene000113_render000003.png,stimuli/rgb_scene000113_render000004.png,1,140,350,162,"[1, 0]",left,1,111,19,f,y,y,2019_Apr_25_1557,2AFC_task,59.95491392436398,
stimuli/rgb_scene000012_render000000.png,stimuli/rgb_scene000012_render000002.png,1,141,351,43,"[1, 0]",left,1,111,19,f,y,y,2019_Apr_25_1557,2AFC_task,59.95491392436398,
stimuli/rgb_scene000012_render000000.png,stimuli/rgb_scene000012_render000003.png,1,142,352,44,"[1, 0]",left,1,111,19,f,y,y,2019_Apr_25_1557,2AFC_task,59.95491392436398,
stimuli/rgb_scene000146_render000002.png,stimuli/rgb_scene000146_render000004.png,1,143,353,180,"[0, 1]",right,1,111,19,f,y,y,2019_Apr_25_1557,2AFC_task,59.95491392436398,
stimuli/rgb_scene000195_render000002.png,stimuli/rgb_scene000195_render000004.png,1,144,354,201,"[0, 1]",left,0,111,19,f,y,y,2019_Apr_25_1557,2AFC_task,59.95491392436398,
stimuli/rgb_scene000146_render000003.png,stimuli/rgb_scene000146_render000006.png,1,145,355,185,"[0, 1]",right,1,111,19,f,y,y,2019_Apr_25_1557,2AFC_task,59.95491392436398,
stimuli/rgb_scene000090_render000002.png,stimuli/rgb_scene000090_render000005.png,1,146,356,76,"[1, 0]",right,0,111,19,f,y,y,2019_Apr_25_1557,2AFC_task,59.95491392436398,
stimuli/rgb_scene000146_render000005.png,stimuli/rgb_scene000146_render000006.png,1,147,357,188,"[1, 0]",left,1,111,19,f,y,y,2019_Apr_25_1557,2AFC_task,59.95491392436398,
stimuli/rgb_scene000146_render000001.png,stimuli/rgb_scene000146_render000003.png,1,148,358,175,"[0, 1]",right,1,111,19,f,y,y,2019_Apr_25_1557,2AFC_task,59.95491392436398,
stimuli/rgb_scene000096_render000001.png,stimuli/rgb_scene000096_render000006.png,1,149,359,115,"[1, 0]",left,1,111,19,f,y,y,2019_Apr_25_1557,2AFC_task,59.95491392436398,
stimuli/rgb_scene000005_render000003.png,stimuli/rgb_scene000005_render000004.png,1,150,360,36,"[0, 1]",left,0,111,19,f,y,y,2019_Apr_25_1557,2AFC_task,59.95491392436398,
stimuli/rgb_scene000096_render000001.png,stimuli/rgb_scene000096_render000002.png,1,151,361,111,"[1, 0]",left,1,111,19,f,y,y,2019_Apr_25_1557,2AFC_task,59.95491392436398,
stimuli/rgb_scene000146_render000000.png,stimuli/rgb_scene000146_render000006.png,1,152,362,173,"[0, 1]",right,1,111,19,f,y,y,2019_Apr_25_1557,2AFC_task,59.95491392436398,
stimuli/rgb_scene000095_render000002.png,stimuli/rgb_scene000095_render000003.png,1,153,363,95,"[1, 0]",left,1,111,19,f,y,y,2019_Apr_25_1557,2AFC_task,59.95491392436398,
stimuli/rgb_scene000113_render000000.png,stimuli/rgb_scene000113_render000005.png,1,154,364,151,"[0, 1]",right,1,111,19,f,y,y,2019_Apr_25_1557,2AFC_task,59.95491392436398,
stimuli/rgb_scene000090_render000001.png,stimuli/rgb_scene000090_render000003.png,1,155,365,70,"[0, 1]",left,0,111,19,f,y,y,2019_Apr_25_1557,2AFC_task,59.95491392436398,
stimuli/rgb_scene000004_render000000.png,stimuli/rgb_scene000004_render000003.png,1,156,366,2,"[0, 1]",right,1,111,19,f,y,y,2019_Apr_25_1557,2AFC_task,59.95491392436398,
stimuli/rgb_scene000102_render000001.png,stimuli/rgb_scene000102_render000002.png,1,157,367,132,"[0, 1]",right,1,111,19,f,y,y,2019_Apr_25_1557,2AFC_task,59.95491392436398,
stimuli/rgb_scene000195_render000000.png,stimuli/rgb_scene000195_render000001.png,1,158,368,189,"[0, 1]",right,1,111,19,f,y,y,2019_Apr_25_1557,2AFC_task,59.95491392436398,
stimuli/rgb_scene000095_render000003.png,stimuli/rgb_scene000095_render000004.png,1,159,369,99,"[0, 1]",right,1,111,19,f,y,y,2019_Apr_25_1557,2AFC_task,59.95491392436398,
stimuli/rgb_scene000096_render000003.png,stimuli/rgb_scene000096_render000005.png,1,160,370,121,"[0, 1]",right,1,111,19,f,y,y,2019_Apr_25_1557,2AFC_task,59.95491392436398,
stimuli/rgb_scene000004_render000001.png,stimuli/rgb_scene000004_render000004.png,1,161,371,8,"[0, 1]",right,1,111,19,f,y,y,2019_Apr_25_1557,2AFC_task,59.95491392436398,
stimuli/rgb_scene000095_render000001.png,stimuli/rgb_scene000095_render000006.png,1,162,372,94,"[1, 0]",left,1,111,19,f,y,y,2019_Apr_25_1557,2AFC_task,59.95491392436398,
stimuli/rgb_scene000095_render000004.png,stimuli/rgb_scene000095_render000005.png,1,163,373,102,"[1, 0]",left,1,111,19,f,y,y,2019_Apr_25_1557,2AFC_task,59.95491392436398,
stimuli/rgb_scene000096_render000001.png,stimuli/rgb_scene000096_render000005.png,1,164,374,114,"[1, 0]",left,1,111,19,f,y,y,2019_Apr_25_1557,2AFC_task,59.95491392436398,
stimuli/rgb_scene000090_render000003.png,stimuli/rgb_scene000090_render000005.png,1,165,375,79,"[0, 1]",left,0,111,19,f,y,y,2019_Apr_25_1557,2AFC_task,59.95491392436398,
stimuli/rgb_scene000195_render000003.png,stimuli/rgb_scene000195_render000004.png,1,166,376,204,"[1, 0]",left,1,111,19,f,y,y,2019_Apr_25_1557,2AFC_task,59.95491392436398,
stimuli/rgb_scene000090_render000004.png,stimuli/rgb_scene000090_render000005.png,1,167,377,81,"[0, 1]",left,0,111,19,f,y,y,2019_Apr_25_1557,2AFC_task,59.95491392436398,
stimuli/rgb_scene000004_render000002.png,stimuli/rgb_scene000004_render000005.png,1,168,378,13,"[1, 0]",left,1,111,19,f,y,y,2019_Apr_25_1557,2AFC_task,59.95491392436398,
stimuli/rgb_scene000005_render000001.png,stimuli/rgb_scene000005_render000003.png,1,169,379,28,"[1, 0]",right,0,111,19,f,y,y,2019_Apr_25_1557,2AFC_task,59.95491392436398,
stimuli/rgb_scene000004_render000000.png,stimuli/rgb_scene000004_render000002.png,1,170,380,1,"[1, 0]",left,1,111,19,f,y,y,2019_Apr_25_1557,2AFC_task,59.95491392436398,
stimuli/rgb_scene000096_render000002.png,stimuli/rgb_scene000096_render000003.png,1,171,381,116,"[1, 0]",left,1,111,19,f,y,y,2019_Apr_25_1557,2AFC_task,59.95491392436398,
stimuli/rgb_scene000113_render000002.png,stimuli/rgb_scene000113_render000004.png,1,172,382,159,"[0, 1]",right,1,111,19,f,y,y,2019_Apr_25_1557,2AFC_task,59.95491392436398,
stimuli/rgb_scene000195_render000000.png,stimuli/rgb_scene000195_render000004.png,1,173,383,192,"[1, 0]",left,1,111,19,f,y,y,2019_Apr_25_1557,2AFC_task,59.95491392436398,
stimuli/rgb_scene000004_render000001.png,stimuli/rgb_scene000004_render000002.png,1,174,384,6,"[0, 1]",right,1,111,19,f,y,y,2019_Apr_25_1557,2AFC_task,59.95491392436398,
stimuli/rgb_scene000095_render000000.png,stimuli/rgb_scene000095_render000001.png,1,175,385,84,"[1, 0]",left,1,111,19,f,y,y,2019_Apr_25_1557,2AFC_task,59.95491392436398,
stimuli/rgb_scene000012_render000002.png,stimuli/rgb_scene000012_render000005.png,1,176,386,55,"[0, 1]",right,1,111,19,f,y,y,2019_Apr_25_1557,2AFC_task,59.95491392436398,
stimuli/rgb_scene000113_render000003.png,stimuli/rgb_scene000113_render000006.png,1,177,387,164,"[1, 0]",left,1,111,19,f,y,y,2019_Apr_25_1557,2AFC_task,59.95491392436398,
stimuli/rgb_scene000113_render000005.png,stimuli/rgb_scene000113_render000006.png,1,178,388,167,"[0, 1]",right,1,111,19,f,y,y,2019_Apr_25_1557,2AFC_task,59.95491392436398,
stimuli/rgb_scene000090_render000004.png,stimuli/rgb_scene000090_render000006.png,1,179,389,82,"[1, 0]",right,0,111,19,f,y,y,2019_Apr_25_1557,2AFC_task,59.95491392436398,
stimuli/rgb_scene000004_render000001.png,stimuli/rgb_scene000004_render000003.png,1,180,390,7,"[1, 0]",left,1,111,19,f,y,y,2019_Apr_25_1557,2AFC_task,59.95491392436398,
stimuli/rgb_scene000113_render000000.png,stimuli/rgb_scene000113_render000002.png,1,181,391,148,"[0, 1]",right,1,111,19,f,y,y,2019_Apr_25_1557,2AFC_task,59.95491392436398,
stimuli/rgb_scene000095_render000001.png,stimuli/rgb_scene000095_render000003.png,1,182,392,91,"[0, 1]",right,1,111,19,f,y,y,2019_Apr_25_1557,2AFC_task,59.95491392436398,
stimuli/rgb_scene000095_render000000.png,stimuli/rgb_scene000095_render000005.png,1,183,393,88,"[1, 0]",left,1,111,19,f,y,y,2019_Apr_25_1557,2AFC_task,59.95491392436398,
stimuli/rgb_scene000113_render000002.png,stimuli/rgb_scene000113_render000003.png,1,184,394,158,"[0, 1]",right,1,111,19,f,y,y,2019_Apr_25_1557,2AFC_task,59.95491392436398,
stimuli/rgb_scene000090_render000000.png,stimuli/rgb_scene000090_render000001.png,1,185,395,63,"[0, 1]",right,1,111,19,f,y,y,2019_Apr_25_1557,2AFC_task,59.95491392436398,
stimuli/rgb_scene000096_render000000.png,stimuli/rgb_scene000096_render000001.png,1,186,396,105,"[1, 0]",left,1,111,19,f,y,y,2019_Apr_25_1557,2AFC_task,59.95491392436398,
stimuli/rgb_scene000146_render000001.png,stimuli/rgb_scene000146_render000002.png,1,187,397,174,"[0, 1]",right,1,111,19,f,y,y,2019_Apr_25_1557,2AFC_task,59.95491392436398,
stimuli/rgb_scene000095_render000002.png,stimuli/rgb_scene000095_render000004.png,1,188,398,96,"[0, 1]",right,1,111,19,f,y,y,2019_Apr_25_1557,2AFC_task,59.95491392436398,
stimuli/rgb_scene000096_render000000.png,stimuli/rgb_scene000096_render000002.png,1,189,399,106,"[1, 0]",left,1,111,19,f,y,y,2019_Apr_25_1557,2AFC_task,59.95491392436398,
stimuli/rgb_scene000102_render000000.png,stimuli/rgb_scene000102_render000006.png,1,190,400,131,"[1, 0]",left,1,111,19,f,y,y,2019_Apr_25_1557,2AFC_task,59.95491392436398,
stimuli/rgb_scene000146_render000003.png,stimuli/rgb_scene000146_render000004.png,1,191,401,183,"[0, 1]",right,1,111,19,f,y,y,2019_Apr_25_1557,2AFC_task,59.95491392436398,
stimuli/rgb_scene000195_render000002.png,stimuli/rgb_scene000195_render000003.png,1,192,402,200,"[0, 1]",right,1,111,19,f,y,y,2019_Apr_25_1557,2AFC_task,59.95491392436398,
stimuli/rgb_scene000096_render000005.png,stimuli/rgb_scene000096_render000006.png,1,193,403,125,"[0, 1]",right,1,111,19,f,y,y,2019_Apr_25_1557,2AFC_task,59.95491392436398,
stimuli/rgb_scene000195_render000000.png,stimuli/rgb_scene000195_render000002.png,1,194,404,190,"[0, 1]",right,1,111,19,f,y,y,2019_Apr_25_1557,2AFC_task,59.95491392436398,
stimuli/rgb_scene000195_render000001.png,stimuli/rgb_scene000195_render000002.png,1,195,405,195,"[1, 0]",left,1,111,19,f,y,y,2019_Apr_25_1557,2AFC_task,59.95491392436398,
stimuli/rgb_scene000113_render000004.png,stimuli/rgb_scene000113_render000005.png,1,196,406,165,"[0, 1]",right,1,111,19,f,y,y,2019_Apr_25_1557,2AFC_task,59.95491392436398,
stimuli/rgb_scene000012_render000001.png,stimuli/rgb_scene000012_render000003.png,1,197,407,49,"[1, 0]",left,1,111,19,f,y,y,2019_Apr_25_1557,2AFC_task,59.95491392436398,
stimuli/rgb_scene000012_render000004.png,stimuli/rgb_scene000012_render000006.png,1,198,408,61,"[0, 1]",right,1,111,19,f,y,y,2019_Apr_25_1557,2AFC_task,59.95491392436398,
stimuli/rgb_scene000096_render000002.png,stimuli/rgb_scene000096_render000005.png,1,199,409,118,"[1, 0]",left,1,111,19,f,y,y,2019_Apr_25_1557,2AFC_task,59.95491392436398,
stimuli/rgb_scene000102_render000003.png,stimuli/rgb_scene000102_render000004.png,1,200,410,141,"[1, 0]",left,1,111,19,f,y,y,2019_Apr_25_1557,2AFC_task,59.95491392436398,
stimuli/rgb_scene000090_render000001.png,stimuli/rgb_scene000090_render000004.png,1,201,411,71,"[1, 0]",right,0,111,19,f,y,y,2019_Apr_25_1557,2AFC_task,59.95491392436398,
stimuli/rgb_scene000102_render000004.png,stimuli/rgb_scene000102_render000005.png,1,202,412,144,"[0, 1]",right,1,111,19,f,y,y,2019_Apr_25_1557,2AFC_task,59.95491392436398,
stimuli/rgb_scene000012_render000002.png,stimuli/rgb_scene000012_render000003.png,1,203,413,53,"[0, 1]",right,1,111,19,f,y,y,2019_Apr_25_1557,2AFC_task,59.95491392436398,
stimuli/rgb_scene000090_render000001.png,stimuli/rgb_scene000090_render000006.png,1,204,414,73,"[0, 1]",right,1,111,19,f,y,y,2019_Apr_25_1557,2AFC_task,59.95491392436398,
stimuli/rgb_scene000102_render000000.png,stimuli/rgb_scene000102_render000003.png,1,205,415,128,"[0, 1]",right,1,111,19,f,y,y,2019_Apr_25_1557,2AFC_task,59.95491392436398,
stimuli/rgb_scene000005_render000001.png,stimuli/rgb_scene000005_render000004.png,1,206,416,29,"[1, 0]",left,1,111,19,f,y,y,2019_Apr_25_1557,2AFC_task,59.95491392436398,
stimuli/rgb_scene000096_render000001.png,stimuli/rgb_scene000096_render000004.png,1,207,417,113,"[0, 1]",right,1,111,19,f,y,y,2019_Apr_25_1557,2AFC_task,59.95491392436398,
stimuli/rgb_scene000005_render000000.png,stimuli/rgb_scene000005_render000001.png,1,208,418,21,"[1, 0]",left,1,111,19,f,y,y,2019_Apr_25_1557,2AFC_task,59.95491392436398,
stimuli/rgb_scene000005_render000001.png,stimuli/rgb_scene000005_render000005.png,1,209,419,30,"[1, 0]",left,1,111,19,f,y,y,2019_Apr_25_1557,2AFC_task,59.95491392436398,
