stimOne,stimTwo,trials_1.thisRepN,trials_1.thisTrialN,trials_1.thisN,trials_1.thisIndex,presentation_positions,resp_key,corresponding_image,participant ID (two digits, e.g. 01),age,gender (m/f/-),normal or corrected-to-normal vision (y/n),normal colour vision (y/n),date,expName,frameRate,
stimuli/rgb_scene000113_render000001.png,stimuli/rgb_scene000113_render000005.png,0,0,0,156,"[0, 1]",right,1,123,21,f,y,y,2019_Apr_30_1256,2AFC_task,59.96016244394088,
stimuli/rgb_scene000113_render000002.png,stimuli/rgb_scene000113_render000004.png,0,1,1,159,"[1, 0]",left,1,123,21,f,y,y,2019_Apr_30_1256,2AFC_task,59.96016244394088,
stimuli/rgb_scene000095_render000004.png,stimuli/rgb_scene000095_render000006.png,0,2,2,103,"[0, 1]",right,1,123,21,f,y,y,2019_Apr_30_1256,2AFC_task,59.96016244394088,
stimuli/rgb_scene000095_render000003.png,stimuli/rgb_scene000095_render000006.png,0,3,3,101,"[0, 1]",right,1,123,21,f,y,y,2019_Apr_30_1256,2AFC_task,59.96016244394088,
stimuli/rgb_scene000005_render000000.png,stimuli/rgb_scene000005_render000006.png,0,4,4,26,"[1, 0]",left,1,123,21,f,y,y,2019_Apr_30_1256,2AFC_task,59.96016244394088,
stimuli/rgb_scene000095_render000002.png,stimuli/rgb_scene000095_render000005.png,0,5,5,97,"[0, 1]",right,1,123,21,f,y,y,2019_Apr_30_1256,2AFC_task,59.96016244394088,
stimuli/rgb_scene000012_render000002.png,stimuli/rgb_scene000012_render000003.png,0,6,6,53,"[0, 1]",right,1,123,21,f,y,y,2019_Apr_30_1256,2AFC_task,59.96016244394088,
stimuli/rgb_scene000113_render000000.png,stimuli/rgb_scene000113_render000006.png,0,7,7,152,"[0, 1]",right,1,123,21,f,y,y,2019_Apr_30_1256,2AFC_task,59.96016244394088,
stimuli/rgb_scene000005_render000002.png,stimuli/rgb_scene000005_render000005.png,0,8,8,34,"[1, 0]",left,1,123,21,f,y,y,2019_Apr_30_1256,2AFC_task,59.96016244394088,
stimuli/rgb_scene000004_render000004.png,stimuli/rgb_scene000004_render000006.png,0,9,9,19,"[0, 1]",right,1,123,21,f,y,y,2019_Apr_30_1256,2AFC_task,59.96016244394088,
stimuli/rgb_scene000113_render000005.png,stimuli/rgb_scene000113_render000006.png,0,10,10,167,"[0, 1]",right,1,123,21,f,y,y,2019_Apr_30_1256,2AFC_task,59.96016244394088,
stimuli/rgb_scene000012_render000001.png,stimuli/rgb_scene000012_render000002.png,0,11,11,48,"[1, 0]",left,1,123,21,f,y,y,2019_Apr_30_1256,2AFC_task,59.96016244394088,
stimuli/rgb_scene000090_render000000.png,stimuli/rgb_scene000090_render000001.png,0,12,12,63,"[0, 1]",right,1,123,21,f,y,y,2019_Apr_30_1256,2AFC_task,59.96016244394088,
stimuli/rgb_scene000102_render000002.png,stimuli/rgb_scene000102_render000004.png,0,13,13,138,"[1, 0]",left,1,123,21,f,y,y,2019_Apr_30_1256,2AFC_task,59.96016244394088,
stimuli/rgb_scene000146_render000001.png,stimuli/rgb_scene000146_render000003.png,0,14,14,175,"[0, 1]",right,1,123,21,f,y,y,2019_Apr_30_1256,2AFC_task,59.96016244394088,
stimuli/rgb_scene000102_render000000.png,stimuli/rgb_scene000102_render000003.png,0,15,15,128,"[0, 1]",right,1,123,21,f,y,y,2019_Apr_30_1256,2AFC_task,59.96016244394088,
stimuli/rgb_scene000096_render000004.png,stimuli/rgb_scene000096_render000005.png,0,16,16,123,"[1, 0]",left,1,123,21,f,y,y,2019_Apr_30_1256,2AFC_task,59.96016244394088,
stimuli/rgb_scene000113_render000000.png,stimuli/rgb_scene000113_render000005.png,0,17,17,151,"[1, 0]",left,1,123,21,f,y,y,2019_Apr_30_1256,2AFC_task,59.96016244394088,
stimuli/rgb_scene000095_render000002.png,stimuli/rgb_scene000095_render000006.png,0,18,18,98,"[0, 1]",right,1,123,21,f,y,y,2019_Apr_30_1256,2AFC_task,59.96016244394088,
stimuli/rgb_scene000102_render000004.png,stimuli/rgb_scene000102_render000006.png,0,19,19,145,"[1, 0]",left,1,123,21,f,y,y,2019_Apr_30_1256,2AFC_task,59.96016244394088,
stimuli/rgb_scene000096_render000002.png,stimuli/rgb_scene000096_render000004.png,0,20,20,117,"[1, 0]",left,1,123,21,f,y,y,2019_Apr_30_1256,2AFC_task,59.96016244394088,
stimuli/rgb_scene000005_render000003.png,stimuli/rgb_scene000005_render000006.png,0,21,21,38,"[1, 0]",left,1,123,21,f,y,y,2019_Apr_30_1256,2AFC_task,59.96016244394088,
stimuli/rgb_scene000113_render000002.png,stimuli/rgb_scene000113_render000005.png,0,22,22,160,"[1, 0]",left,1,123,21,f,y,y,2019_Apr_30_1256,2AFC_task,59.96016244394088,
stimuli/rgb_scene000090_render000001.png,stimuli/rgb_scene000090_render000002.png,0,23,23,69,"[1, 0]",left,1,123,21,f,y,y,2019_Apr_30_1256,2AFC_task,59.96016244394088,
stimuli/rgb_scene000146_render000000.png,stimuli/rgb_scene000146_render000003.png,0,24,24,170,"[0, 1]",right,1,123,21,f,y,y,2019_Apr_30_1256,2AFC_task,59.96016244394088,
stimuli/rgb_scene000005_render000001.png,stimuli/rgb_scene000005_render000003.png,0,25,25,28,"[0, 1]",right,1,123,21,f,y,y,2019_Apr_30_1256,2AFC_task,59.96016244394088,
stimuli/rgb_scene000195_render000000.png,stimuli/rgb_scene000195_render000003.png,0,26,26,191,"[1, 0]",left,1,123,21,f,y,y,2019_Apr_30_1256,2AFC_task,59.96016244394088,
stimuli/rgb_scene000113_render000001.png,stimuli/rgb_scene000113_render000002.png,0,27,27,153,"[0, 1]",right,1,123,21,f,y,y,2019_Apr_30_1256,2AFC_task,59.96016244394088,
stimuli/rgb_scene000146_render000001.png,stimuli/rgb_scene000146_render000002.png,0,28,28,174,"[1, 0]",left,1,123,21,f,y,y,2019_Apr_30_1256,2AFC_task,59.96016244394088,
stimuli/rgb_scene000102_render000004.png,stimuli/rgb_scene000102_render000005.png,0,29,29,144,"[0, 1]",right,1,123,21,f,y,y,2019_Apr_30_1256,2AFC_task,59.96016244394088,
stimuli/rgb_scene000005_render000001.png,stimuli/rgb_scene000005_render000005.png,0,30,30,30,"[1, 0]",left,1,123,21,f,y,y,2019_Apr_30_1256,2AFC_task,59.96016244394088,
stimuli/rgb_scene000012_render000005.png,stimuli/rgb_scene000012_render000006.png,0,31,31,62,"[0, 1]",right,1,123,21,f,y,y,2019_Apr_30_1256,2AFC_task,59.96016244394088,
stimuli/rgb_scene000012_render000003.png,stimuli/rgb_scene000012_render000005.png,0,32,32,58,"[0, 1]",right,1,123,21,f,y,y,2019_Apr_30_1256,2AFC_task,59.96016244394088,
stimuli/rgb_scene000004_render000001.png,stimuli/rgb_scene000004_render000004.png,0,33,33,8,"[0, 1]",right,1,123,21,f,y,y,2019_Apr_30_1256,2AFC_task,59.96016244394088,
stimuli/rgb_scene000096_render000000.png,stimuli/rgb_scene000096_render000004.png,0,34,34,108,"[0, 1]",right,1,123,21,f,y,y,2019_Apr_30_1256,2AFC_task,59.96016244394088,
stimuli/rgb_scene000195_render000001.png,stimuli/rgb_scene000195_render000003.png,0,35,35,196,"[1, 0]",left,1,123,21,f,y,y,2019_Apr_30_1256,2AFC_task,59.96016244394088,
stimuli/rgb_scene000113_render000003.png,stimuli/rgb_scene000113_render000004.png,0,36,36,162,"[1, 0]",left,1,123,21,f,y,y,2019_Apr_30_1256,2AFC_task,59.96016244394088,
stimuli/rgb_scene000004_render000002.png,stimuli/rgb_scene000004_render000006.png,0,37,37,14,"[1, 0]",left,1,123,21,f,y,y,2019_Apr_30_1256,2AFC_task,59.96016244394088,
stimuli/rgb_scene000005_render000002.png,stimuli/rgb_scene000005_render000006.png,0,38,38,35,"[0, 1]",right,1,123,21,f,y,y,2019_Apr_30_1256,2AFC_task,59.96016244394088,
stimuli/rgb_scene000012_render000001.png,stimuli/rgb_scene000012_render000003.png,0,39,39,49,"[0, 1]",right,1,123,21,f,y,y,2019_Apr_30_1256,2AFC_task,59.96016244394088,
stimuli/rgb_scene000012_render000000.png,stimuli/rgb_scene000012_render000004.png,0,40,40,45,"[0, 1]",right,1,123,21,f,y,y,2019_Apr_30_1256,2AFC_task,59.96016244394088,
stimuli/rgb_scene000146_render000003.png,stimuli/rgb_scene000146_render000004.png,0,41,41,183,"[0, 1]",right,1,123,21,f,y,y,2019_Apr_30_1256,2AFC_task,59.96016244394088,
stimuli/rgb_scene000195_render000002.png,stimuli/rgb_scene000195_render000004.png,0,42,42,201,"[0, 1]",right,1,123,21,f,y,y,2019_Apr_30_1256,2AFC_task,59.96016244394088,
stimuli/rgb_scene000146_render000005.png,stimuli/rgb_scene000146_render000006.png,0,43,43,188,"[1, 0]",left,1,123,21,f,y,y,2019_Apr_30_1256,2AFC_task,59.96016244394088,
stimuli/rgb_scene000090_render000000.png,stimuli/rgb_scene000090_render000003.png,0,44,44,65,"[0, 1]",right,1,123,21,f,y,y,2019_Apr_30_1256,2AFC_task,59.96016244394088,
stimuli/rgb_scene000012_render000003.png,stimuli/rgb_scene000012_render000006.png,0,45,45,59,"[1, 0]",left,1,123,21,f,y,y,2019_Apr_30_1256,2AFC_task,59.96016244394088,
stimuli/rgb_scene000096_render000002.png,stimuli/rgb_scene000096_render000003.png,0,46,46,116,"[1, 0]",left,1,123,21,f,y,y,2019_Apr_30_1256,2AFC_task,59.96016244394088,
stimuli/rgb_scene000095_render000001.png,stimuli/rgb_scene000095_render000005.png,0,47,47,93,"[0, 1]",right,1,123,21,f,y,y,2019_Apr_30_1256,2AFC_task,59.96016244394088,
stimuli/rgb_scene000005_render000005.png,stimuli/rgb_scene000005_render000006.png,0,48,48,41,"[1, 0]",right,0,123,21,f,y,y,2019_Apr_30_1256,2AFC_task,59.96016244394088,
stimuli/rgb_scene000004_render000000.png,stimuli/rgb_scene000004_render000004.png,0,49,49,3,"[1, 0]",left,1,123,21,f,y,y,2019_Apr_30_1256,2AFC_task,59.96016244394088,
stimuli/rgb_scene000095_render000002.png,stimuli/rgb_scene000095_render000004.png,0,50,50,96,"[0, 1]",right,1,123,21,f,y,y,2019_Apr_30_1256,2AFC_task,59.96016244394088,
stimuli/rgb_scene000102_render000000.png,stimuli/rgb_scene000102_render000005.png,0,51,51,130,"[0, 1]",right,1,123,21,f,y,y,2019_Apr_30_1256,2AFC_task,59.96016244394088,
stimuli/rgb_scene000102_render000000.png,stimuli/rgb_scene000102_render000002.png,0,52,52,127,"[1, 0]",left,1,123,21,f,y,y,2019_Apr_30_1256,2AFC_task,59.96016244394088,
stimuli/rgb_scene000004_render000005.png,stimuli/rgb_scene000004_render000006.png,0,53,53,20,"[0, 1]",right,1,123,21,f,y,y,2019_Apr_30_1256,2AFC_task,59.96016244394088,
stimuli/rgb_scene000146_render000001.png,stimuli/rgb_scene000146_render000005.png,0,54,54,177,"[0, 1]",right,1,123,21,f,y,y,2019_Apr_30_1256,2AFC_task,59.96016244394088,
stimuli/rgb_scene000005_render000002.png,stimuli/rgb_scene000005_render000003.png,0,55,55,32,"[0, 1]",right,1,123,21,f,y,y,2019_Apr_30_1256,2AFC_task,59.96016244394088,
stimuli/rgb_scene000004_render000004.png,stimuli/rgb_scene000004_render000005.png,0,56,56,18,"[0, 1]",right,1,123,21,f,y,y,2019_Apr_30_1256,2AFC_task,59.96016244394088,
stimuli/rgb_scene000146_render000003.png,stimuli/rgb_scene000146_render000005.png,0,57,57,184,"[1, 0]",left,1,123,21,f,y,y,2019_Apr_30_1256,2AFC_task,59.96016244394088,
stimuli/rgb_scene000004_render000002.png,stimuli/rgb_scene000004_render000004.png,0,58,58,12,"[1, 0]",left,1,123,21,f,y,y,2019_Apr_30_1256,2AFC_task,59.96016244394088,
stimuli/rgb_scene000005_render000003.png,stimuli/rgb_scene000005_render000004.png,0,59,59,36,"[0, 1]",right,1,123,21,f,y,y,2019_Apr_30_1256,2AFC_task,59.96016244394088,
stimuli/rgb_scene000102_render000003.png,stimuli/rgb_scene000102_render000004.png,0,60,60,141,"[1, 0]",left,1,123,21,f,y,y,2019_Apr_30_1256,2AFC_task,59.96016244394088,
stimuli/rgb_scene000090_render000001.png,stimuli/rgb_scene000090_render000006.png,0,61,61,73,"[1, 0]",left,1,123,21,f,y,y,2019_Apr_30_1256,2AFC_task,59.96016244394088,
stimuli/rgb_scene000113_render000002.png,stimuli/rgb_scene000113_render000003.png,0,62,62,158,"[0, 1]",right,1,123,21,f,y,y,2019_Apr_30_1256,2AFC_task,59.96016244394088,
stimuli/rgb_scene000102_render000001.png,stimuli/rgb_scene000102_render000004.png,0,63,63,134,"[0, 1]",right,1,123,21,f,y,y,2019_Apr_30_1256,2AFC_task,59.96016244394088,
stimuli/rgb_scene000004_render000000.png,stimuli/rgb_scene000004_render000006.png,0,64,64,5,"[0, 1]",right,1,123,21,f,y,y,2019_Apr_30_1256,2AFC_task,59.96016244394088,
stimuli/rgb_scene000146_render000002.png,stimuli/rgb_scene000146_render000003.png,0,65,65,179,"[1, 0]",left,1,123,21,f,y,y,2019_Apr_30_1256,2AFC_task,59.96016244394088,
stimuli/rgb_scene000195_render000002.png,stimuli/rgb_scene000195_render000005.png,0,66,66,202,"[0, 1]",right,1,123,21,f,y,y,2019_Apr_30_1256,2AFC_task,59.96016244394088,
stimuli/rgb_scene000146_render000004.png,stimuli/rgb_scene000146_render000005.png,0,67,67,186,"[0, 1]",right,1,123,21,f,y,y,2019_Apr_30_1256,2AFC_task,59.96016244394088,
stimuli/rgb_scene000195_render000005.png,stimuli/rgb_scene000195_render000006.png,0,68,68,209,"[0, 1]",left,0,123,21,f,y,y,2019_Apr_30_1256,2AFC_task,59.96016244394088,
stimuli/rgb_scene000195_render000001.png,stimuli/rgb_scene000195_render000002.png,0,69,69,195,"[0, 1]",right,1,123,21,f,y,y,2019_Apr_30_1256,2AFC_task,59.96016244394088,
stimuli/rgb_scene000005_render000000.png,stimuli/rgb_scene000005_render000002.png,0,70,70,22,"[0, 1]",right,1,123,21,f,y,y,2019_Apr_30_1256,2AFC_task,59.96016244394088,
stimuli/rgb_scene000195_render000004.png,stimuli/rgb_scene000195_render000005.png,0,71,71,207,"[1, 0]",left,1,123,21,f,y,y,2019_Apr_30_1256,2AFC_task,59.96016244394088,
stimuli/rgb_scene000113_render000000.png,stimuli/rgb_scene000113_render000004.png,0,72,72,150,"[0, 1]",right,1,123,21,f,y,y,2019_Apr_30_1256,2AFC_task,59.96016244394088,
stimuli/rgb_scene000096_render000005.png,stimuli/rgb_scene000096_render000006.png,0,73,73,125,"[0, 1]",right,1,123,21,f,y,y,2019_Apr_30_1256,2AFC_task,59.96016244394088,
stimuli/rgb_scene000146_render000001.png,stimuli/rgb_scene000146_render000006.png,0,74,74,178,"[1, 0]",left,1,123,21,f,y,y,2019_Apr_30_1256,2AFC_task,59.96016244394088,
stimuli/rgb_scene000095_render000003.png,stimuli/rgb_scene000095_render000004.png,0,75,75,99,"[0, 1]",right,1,123,21,f,y,y,2019_Apr_30_1256,2AFC_task,59.96016244394088,
stimuli/rgb_scene000005_render000004.png,stimuli/rgb_scene000005_render000005.png,0,76,76,39,"[1, 0]",right,0,123,21,f,y,y,2019_Apr_30_1256,2AFC_task,59.96016244394088,
stimuli/rgb_scene000113_render000001.png,stimuli/rgb_scene000113_render000006.png,0,77,77,157,"[1, 0]",left,1,123,21,f,y,y,2019_Apr_30_1256,2AFC_task,59.96016244394088,
stimuli/rgb_scene000102_render000000.png,stimuli/rgb_scene000102_render000001.png,0,78,78,126,"[0, 1]",right,1,123,21,f,y,y,2019_Apr_30_1256,2AFC_task,59.96016244394088,
stimuli/rgb_scene000095_render000001.png,stimuli/rgb_scene000095_render000006.png,0,79,79,94,"[1, 0]",left,1,123,21,f,y,y,2019_Apr_30_1256,2AFC_task,59.96016244394088,
stimuli/rgb_scene000096_render000002.png,stimuli/rgb_scene000096_render000005.png,0,80,80,118,"[1, 0]",left,1,123,21,f,y,y,2019_Apr_30_1256,2AFC_task,59.96016244394088,
stimuli/rgb_scene000090_render000003.png,stimuli/rgb_scene000090_render000005.png,0,81,81,79,"[0, 1]",left,0,123,21,f,y,y,2019_Apr_30_1256,2AFC_task,59.96016244394088,
stimuli/rgb_scene000146_render000004.png,stimuli/rgb_scene000146_render000006.png,0,82,82,187,"[0, 1]",right,1,123,21,f,y,y,2019_Apr_30_1256,2AFC_task,59.96016244394088,
stimuli/rgb_scene000146_render000001.png,stimuli/rgb_scene000146_render000004.png,0,83,83,176,"[1, 0]",left,1,123,21,f,y,y,2019_Apr_30_1256,2AFC_task,59.96016244394088,
stimuli/rgb_scene000113_render000000.png,stimuli/rgb_scene000113_render000003.png,0,84,84,149,"[1, 0]",left,1,123,21,f,y,y,2019_Apr_30_1256,2AFC_task,59.96016244394088,
stimuli/rgb_scene000113_render000001.png,stimuli/rgb_scene000113_render000003.png,0,85,85,154,"[0, 1]",right,1,123,21,f,y,y,2019_Apr_30_1256,2AFC_task,59.96016244394088,
stimuli/rgb_scene000113_render000003.png,stimuli/rgb_scene000113_render000006.png,0,86,86,164,"[0, 1]",right,1,123,21,f,y,y,2019_Apr_30_1256,2AFC_task,59.96016244394088,
stimuli/rgb_scene000102_render000001.png,stimuli/rgb_scene000102_render000005.png,0,87,87,135,"[1, 0]",left,1,123,21,f,y,y,2019_Apr_30_1256,2AFC_task,59.96016244394088,
stimuli/rgb_scene000004_render000000.png,stimuli/rgb_scene000004_render000005.png,0,88,88,4,"[1, 0]",left,1,123,21,f,y,y,2019_Apr_30_1256,2AFC_task,59.96016244394088,
stimuli/rgb_scene000195_render000003.png,stimuli/rgb_scene000195_render000006.png,0,89,89,206,"[1, 0]",left,1,123,21,f,y,y,2019_Apr_30_1256,2AFC_task,59.96016244394088,
stimuli/rgb_scene000090_render000004.png,stimuli/rgb_scene000090_render000006.png,0,90,90,82,"[1, 0]",right,0,123,21,f,y,y,2019_Apr_30_1256,2AFC_task,59.96016244394088,
stimuli/rgb_scene000096_render000003.png,stimuli/rgb_scene000096_render000004.png,0,91,91,120,"[1, 0]",left,1,123,21,f,y,y,2019_Apr_30_1256,2AFC_task,59.96016244394088,
stimuli/rgb_scene000090_render000002.png,stimuli/rgb_scene000090_render000005.png,0,92,92,76,"[0, 1]",right,1,123,21,f,y,y,2019_Apr_30_1256,2AFC_task,59.96016244394088,
stimuli/rgb_scene000113_render000000.png,stimuli/rgb_scene000113_render000002.png,0,93,93,148,"[0, 1]",right,1,123,21,f,y,y,2019_Apr_30_1256,2AFC_task,59.96016244394088,
stimuli/rgb_scene000102_render000001.png,stimuli/rgb_scene000102_render000002.png,0,94,94,132,"[0, 1]",right,1,123,21,f,y,y,2019_Apr_30_1256,2AFC_task,59.96016244394088,
stimuli/rgb_scene000095_render000000.png,stimuli/rgb_scene000095_render000001.png,0,95,95,84,"[1, 0]",left,1,123,21,f,y,y,2019_Apr_30_1256,2AFC_task,59.96016244394088,
stimuli/rgb_scene000004_render000001.png,stimuli/rgb_scene000004_render000002.png,0,96,96,6,"[0, 1]",right,1,123,21,f,y,y,2019_Apr_30_1256,2AFC_task,59.96016244394088,
stimuli/rgb_scene000102_render000002.png,stimuli/rgb_scene000102_render000005.png,0,97,97,139,"[0, 1]",right,1,123,21,f,y,y,2019_Apr_30_1256,2AFC_task,59.96016244394088,
stimuli/rgb_scene000012_render000002.png,stimuli/rgb_scene000012_render000005.png,0,98,98,55,"[1, 0]",left,1,123,21,f,y,y,2019_Apr_30_1256,2AFC_task,59.96016244394088,
stimuli/rgb_scene000146_render000000.png,stimuli/rgb_scene000146_render000005.png,0,99,99,172,"[0, 1]",right,1,123,21,f,y,y,2019_Apr_30_1256,2AFC_task,59.96016244394088,
stimuli/rgb_scene000005_render000000.png,stimuli/rgb_scene000005_render000005.png,0,100,100,25,"[0, 1]",right,1,123,21,f,y,y,2019_Apr_30_1256,2AFC_task,59.96016244394088,
stimuli/rgb_scene000095_render000000.png,stimuli/rgb_scene000095_render000003.png,0,101,101,86,"[1, 0]",left,1,123,21,f,y,y,2019_Apr_30_1256,2AFC_task,59.96016244394088,
stimuli/rgb_scene000195_render000003.png,stimuli/rgb_scene000195_render000005.png,0,102,102,205,"[0, 1]",right,1,123,21,f,y,y,2019_Apr_30_1256,2AFC_task,59.96016244394088,
stimuli/rgb_scene000004_render000001.png,stimuli/rgb_scene000004_render000003.png,0,103,103,7,"[0, 1]",right,1,123,21,f,y,y,2019_Apr_30_1256,2AFC_task,59.96016244394088,
stimuli/rgb_scene000113_render000004.png,stimuli/rgb_scene000113_render000005.png,0,104,104,165,"[1, 0]",left,1,123,21,f,y,y,2019_Apr_30_1256,2AFC_task,59.96016244394088,
stimuli/rgb_scene000005_render000002.png,stimuli/rgb_scene000005_render000004.png,0,105,105,33,"[0, 1]",right,1,123,21,f,y,y,2019_Apr_30_1256,2AFC_task,59.96016244394088,
stimuli/rgb_scene000146_render000000.png,stimuli/rgb_scene000146_render000006.png,0,106,106,173,"[0, 1]",right,1,123,21,f,y,y,2019_Apr_30_1256,2AFC_task,59.96016244394088,
stimuli/rgb_scene000146_render000000.png,stimuli/rgb_scene000146_render000001.png,0,107,107,168,"[0, 1]",right,1,123,21,f,y,y,2019_Apr_30_1256,2AFC_task,59.96016244394088,
stimuli/rgb_scene000012_render000000.png,stimuli/rgb_scene000012_render000002.png,0,108,108,43,"[0, 1]",right,1,123,21,f,y,y,2019_Apr_30_1256,2AFC_task,59.96016244394088,
stimuli/rgb_scene000113_render000000.png,stimuli/rgb_scene000113_render000001.png,0,109,109,147,"[0, 1]",right,1,123,21,f,y,y,2019_Apr_30_1256,2AFC_task,59.96016244394088,
stimuli/rgb_scene000096_render000003.png,stimuli/rgb_scene000096_render000006.png,0,110,110,122,"[1, 0]",left,1,123,21,f,y,y,2019_Apr_30_1256,2AFC_task,59.96016244394088,
stimuli/rgb_scene000090_render000000.png,stimuli/rgb_scene000090_render000004.png,0,111,111,66,"[0, 1]",right,1,123,21,f,y,y,2019_Apr_30_1256,2AFC_task,59.96016244394088,
stimuli/rgb_scene000096_render000000.png,stimuli/rgb_scene000096_render000006.png,0,112,112,110,"[0, 1]",right,1,123,21,f,y,y,2019_Apr_30_1256,2AFC_task,59.96016244394088,
stimuli/rgb_scene000102_render000002.png,stimuli/rgb_scene000102_render000003.png,0,113,113,137,"[0, 1]",right,1,123,21,f,y,y,2019_Apr_30_1256,2AFC_task,59.96016244394088,
stimuli/rgb_scene000095_render000002.png,stimuli/rgb_scene000095_render000003.png,0,114,114,95,"[1, 0]",left,1,123,21,f,y,y,2019_Apr_30_1256,2AFC_task,59.96016244394088,
stimuli/rgb_scene000005_render000000.png,stimuli/rgb_scene000005_render000004.png,0,115,115,24,"[1, 0]",left,1,123,21,f,y,y,2019_Apr_30_1256,2AFC_task,59.96016244394088,
stimuli/rgb_scene000113_render000003.png,stimuli/rgb_scene000113_render000005.png,0,116,116,163,"[1, 0]",left,1,123,21,f,y,y,2019_Apr_30_1256,2AFC_task,59.96016244394088,
stimuli/rgb_scene000096_render000000.png,stimuli/rgb_scene000096_render000001.png,0,117,117,105,"[1, 0]",left,1,123,21,f,y,y,2019_Apr_30_1256,2AFC_task,59.96016244394088,
stimuli/rgb_scene000096_render000001.png,stimuli/rgb_scene000096_render000004.png,0,118,118,113,"[0, 1]",right,1,123,21,f,y,y,2019_Apr_30_1256,2AFC_task,59.96016244394088,
stimuli/rgb_scene000004_render000001.png,stimuli/rgb_scene000004_render000005.png,0,119,119,9,"[0, 1]",right,1,123,21,f,y,y,2019_Apr_30_1256,2AFC_task,59.96016244394088,
stimuli/rgb_scene000095_render000000.png,stimuli/rgb_scene000095_render000004.png,0,120,120,87,"[0, 1]",right,1,123,21,f,y,y,2019_Apr_30_1256,2AFC_task,59.96016244394088,
stimuli/rgb_scene000195_render000000.png,stimuli/rgb_scene000195_render000006.png,0,121,121,194,"[0, 1]",right,1,123,21,f,y,y,2019_Apr_30_1256,2AFC_task,59.96016244394088,
stimuli/rgb_scene000146_render000003.png,stimuli/rgb_scene000146_render000006.png,0,122,122,185,"[1, 0]",left,1,123,21,f,y,y,2019_Apr_30_1256,2AFC_task,59.96016244394088,
stimuli/rgb_scene000004_render000002.png,stimuli/rgb_scene000004_render000005.png,0,123,123,13,"[1, 0]",left,1,123,21,f,y,y,2019_Apr_30_1256,2AFC_task,59.96016244394088,
stimuli/rgb_scene000090_render000000.png,stimuli/rgb_scene000090_render000002.png,0,124,124,64,"[0, 1]",right,1,123,21,f,y,y,2019_Apr_30_1256,2AFC_task,59.96016244394088,
stimuli/rgb_scene000096_render000002.png,stimuli/rgb_scene000096_render000006.png,0,125,125,119,"[0, 1]",right,1,123,21,f,y,y,2019_Apr_30_1256,2AFC_task,59.96016244394088,
stimuli/rgb_scene000012_render000002.png,stimuli/rgb_scene000012_render000004.png,0,126,126,54,"[0, 1]",right,1,123,21,f,y,y,2019_Apr_30_1256,2AFC_task,59.96016244394088,
stimuli/rgb_scene000195_render000004.png,stimuli/rgb_scene000195_render000006.png,0,127,127,208,"[0, 1]",left,0,123,21,f,y,y,2019_Apr_30_1256,2AFC_task,59.96016244394088,
stimuli/rgb_scene000113_render000004.png,stimuli/rgb_scene000113_render000006.png,0,128,128,166,"[1, 0]",left,1,123,21,f,y,y,2019_Apr_30_1256,2AFC_task,59.96016244394088,
stimuli/rgb_scene000195_render000000.png,stimuli/rgb_scene000195_render000002.png,0,129,129,190,"[0, 1]",right,1,123,21,f,y,y,2019_Apr_30_1256,2AFC_task,59.96016244394088,
stimuli/rgb_scene000004_render000001.png,stimuli/rgb_scene000004_render000006.png,0,130,130,10,"[1, 0]",left,1,123,21,f,y,y,2019_Apr_30_1256,2AFC_task,59.96016244394088,
stimuli/rgb_scene000090_render000001.png,stimuli/rgb_scene000090_render000005.png,0,131,131,72,"[1, 0]",left,1,123,21,f,y,y,2019_Apr_30_1256,2AFC_task,59.96016244394088,
stimuli/rgb_scene000090_render000003.png,stimuli/rgb_scene000090_render000006.png,0,132,132,80,"[0, 1]",right,1,123,21,f,y,y,2019_Apr_30_1256,2AFC_task,59.96016244394088,
stimuli/rgb_scene000012_render000001.png,stimuli/rgb_scene000012_render000005.png,0,133,133,51,"[0, 1]",right,1,123,21,f,y,y,2019_Apr_30_1256,2AFC_task,59.96016244394088,
stimuli/rgb_scene000195_render000002.png,stimuli/rgb_scene000195_render000003.png,0,134,134,200,"[0, 1]",right,1,123,21,f,y,y,2019_Apr_30_1256,2AFC_task,59.96016244394088,
stimuli/rgb_scene000012_render000000.png,stimuli/rgb_scene000012_render000003.png,0,135,135,44,"[1, 0]",left,1,123,21,f,y,y,2019_Apr_30_1256,2AFC_task,59.96016244394088,
stimuli/rgb_scene000195_render000003.png,stimuli/rgb_scene000195_render000004.png,0,136,136,204,"[0, 1]",right,1,123,21,f,y,y,2019_Apr_30_1256,2AFC_task,59.96016244394088,
stimuli/rgb_scene000096_render000001.png,stimuli/rgb_scene000096_render000003.png,0,137,137,112,"[0, 1]",right,1,123,21,f,y,y,2019_Apr_30_1256,2AFC_task,59.96016244394088,
stimuli/rgb_scene000095_render000000.png,stimuli/rgb_scene000095_render000005.png,0,138,138,88,"[1, 0]",left,1,123,21,f,y,y,2019_Apr_30_1256,2AFC_task,59.96016244394088,
stimuli/rgb_scene000146_render000002.png,stimuli/rgb_scene000146_render000004.png,0,139,139,180,"[0, 1]",right,1,123,21,f,y,y,2019_Apr_30_1256,2AFC_task,59.96016244394088,
stimuli/rgb_scene000195_render000001.png,stimuli/rgb_scene000195_render000004.png,0,140,140,197,"[1, 0]",right,0,123,21,f,y,y,2019_Apr_30_1256,2AFC_task,59.96016244394088,
stimuli/rgb_scene000005_render000001.png,stimuli/rgb_scene000005_render000004.png,0,141,141,29,"[1, 0]",left,1,123,21,f,y,y,2019_Apr_30_1256,2AFC_task,59.96016244394088,
stimuli/rgb_scene000096_render000000.png,stimuli/rgb_scene000096_render000003.png,0,142,142,107,"[1, 0]",left,1,123,21,f,y,y,2019_Apr_30_1256,2AFC_task,59.96016244394088,
stimuli/rgb_scene000005_render000000.png,stimuli/rgb_scene000005_render000003.png,0,143,143,23,"[1, 0]",left,1,123,21,f,y,y,2019_Apr_30_1256,2AFC_task,59.96016244394088,
stimuli/rgb_scene000096_render000003.png,stimuli/rgb_scene000096_render000005.png,0,144,144,121,"[1, 0]",left,1,123,21,f,y,y,2019_Apr_30_1256,2AFC_task,59.96016244394088,
stimuli/rgb_scene000004_render000003.png,stimuli/rgb_scene000004_render000005.png,0,145,145,16,"[1, 0]",left,1,123,21,f,y,y,2019_Apr_30_1256,2AFC_task,59.96016244394088,
stimuli/rgb_scene000146_render000000.png,stimuli/rgb_scene000146_render000004.png,0,146,146,171,"[0, 1]",right,1,123,21,f,y,y,2019_Apr_30_1256,2AFC_task,59.96016244394088,
stimuli/rgb_scene000005_render000001.png,stimuli/rgb_scene000005_render000006.png,0,147,147,31,"[0, 1]",right,1,123,21,f,y,y,2019_Apr_30_1256,2AFC_task,59.96016244394088,
stimuli/rgb_scene000095_render000004.png,stimuli/rgb_scene000095_render000005.png,0,148,148,102,"[1, 0]",left,1,123,21,f,y,y,2019_Apr_30_1256,2AFC_task,59.96016244394088,
stimuli/rgb_scene000004_render000003.png,stimuli/rgb_scene000004_render000004.png,0,149,149,15,"[1, 0]",left,1,123,21,f,y,y,2019_Apr_30_1256,2AFC_task,59.96016244394088,
stimuli/rgb_scene000102_render000001.png,stimuli/rgb_scene000102_render000003.png,0,150,150,133,"[0, 1]",right,1,123,21,f,y,y,2019_Apr_30_1256,2AFC_task,59.96016244394088,
stimuli/rgb_scene000102_render000001.png,stimuli/rgb_scene000102_render000006.png,0,151,151,136,"[0, 1]",right,1,123,21,f,y,y,2019_Apr_30_1256,2AFC_task,59.96016244394088,
stimuli/rgb_scene000096_render000001.png,stimuli/rgb_scene000096_render000005.png,0,152,152,114,"[0, 1]",right,1,123,21,f,y,y,2019_Apr_30_1256,2AFC_task,59.96016244394088,
stimuli/rgb_scene000195_render000001.png,stimuli/rgb_scene000195_render000005.png,0,153,153,198,"[1, 0]",left,1,123,21,f,y,y,2019_Apr_30_1256,2AFC_task,59.96016244394088,
stimuli/rgb_scene000095_render000001.png,stimuli/rgb_scene000095_render000004.png,0,154,154,92,"[0, 1]",right,1,123,21,f,y,y,2019_Apr_30_1256,2AFC_task,59.96016244394088,
stimuli/rgb_scene000005_render000004.png,stimuli/rgb_scene000005_render000006.png,0,155,155,40,"[1, 0]",right,0,123,21,f,y,y,2019_Apr_30_1256,2AFC_task,59.96016244394088,
stimuli/rgb_scene000090_render000005.png,stimuli/rgb_scene000090_render000006.png,0,156,156,83,"[0, 1]",left,0,123,21,f,y,y,2019_Apr_30_1256,2AFC_task,59.96016244394088,
stimuli/rgb_scene000005_render000003.png,stimuli/rgb_scene000005_render000005.png,0,157,157,37,"[0, 1]",left,0,123,21,f,y,y,2019_Apr_30_1256,2AFC_task,59.96016244394088,
stimuli/rgb_scene000004_render000000.png,stimuli/rgb_scene000004_render000002.png,0,158,158,1,"[0, 1]",right,1,123,21,f,y,y,2019_Apr_30_1256,2AFC_task,59.96016244394088,
stimuli/rgb_scene000096_render000001.png,stimuli/rgb_scene000096_render000002.png,0,159,159,111,"[1, 0]",left,1,123,21,f,y,y,2019_Apr_30_1256,2AFC_task,59.96016244394088,
stimuli/rgb_scene000012_render000004.png,stimuli/rgb_scene000012_render000005.png,0,160,160,60,"[0, 1]",right,1,123,21,f,y,y,2019_Apr_30_1256,2AFC_task,59.96016244394088,
stimuli/rgb_scene000096_render000000.png,stimuli/rgb_scene000096_render000005.png,0,161,161,109,"[1, 0]",left,1,123,21,f,y,y,2019_Apr_30_1256,2AFC_task,59.96016244394088,
stimuli/rgb_scene000090_render000004.png,stimuli/rgb_scene000090_render000005.png,0,162,162,81,"[1, 0]",left,1,123,21,f,y,y,2019_Apr_30_1256,2AFC_task,59.96016244394088,
stimuli/rgb_scene000195_render000000.png,stimuli/rgb_scene000195_render000005.png,0,163,163,193,"[0, 1]",right,1,123,21,f,y,y,2019_Apr_30_1256,2AFC_task,59.96016244394088,
stimuli/rgb_scene000012_render000000.png,stimuli/rgb_scene000012_render000001.png,0,164,164,42,"[1, 0]",left,1,123,21,f,y,y,2019_Apr_30_1256,2AFC_task,59.96016244394088,
stimuli/rgb_scene000096_render000004.png,stimuli/rgb_scene000096_render000006.png,0,165,165,124,"[1, 0]",left,1,123,21,f,y,y,2019_Apr_30_1256,2AFC_task,59.96016244394088,
stimuli/rgb_scene000113_render000001.png,stimuli/rgb_scene000113_render000004.png,0,166,166,155,"[1, 0]",left,1,123,21,f,y,y,2019_Apr_30_1256,2AFC_task,59.96016244394088,
stimuli/rgb_scene000012_render000001.png,stimuli/rgb_scene000012_render000004.png,0,167,167,50,"[1, 0]",left,1,123,21,f,y,y,2019_Apr_30_1256,2AFC_task,59.96016244394088,
stimuli/rgb_scene000195_render000000.png,stimuli/rgb_scene000195_render000004.png,0,168,168,192,"[0, 1]",right,1,123,21,f,y,y,2019_Apr_30_1256,2AFC_task,59.96016244394088,
stimuli/rgb_scene000090_render000002.png,stimuli/rgb_scene000090_render000003.png,0,169,169,74,"[1, 0]",left,1,123,21,f,y,y,2019_Apr_30_1256,2AFC_task,59.96016244394088,
stimuli/rgb_scene000005_render000000.png,stimuli/rgb_scene000005_render000001.png,0,170,170,21,"[0, 1]",right,1,123,21,f,y,y,2019_Apr_30_1256,2AFC_task,59.96016244394088,
stimuli/rgb_scene000096_render000000.png,stimuli/rgb_scene000096_render000002.png,0,171,171,106,"[1, 0]",left,1,123,21,f,y,y,2019_Apr_30_1256,2AFC_task,59.96016244394088,
stimuli/rgb_scene000090_render000002.png,stimuli/rgb_scene000090_render000004.png,0,172,172,75,"[1, 0]",left,1,123,21,f,y,y,2019_Apr_30_1256,2AFC_task,59.96016244394088,
stimuli/rgb_scene000146_render000000.png,stimuli/rgb_scene000146_render000002.png,0,173,173,169,"[1, 0]",left,1,123,21,f,y,y,2019_Apr_30_1256,2AFC_task,59.96016244394088,
stimuli/rgb_scene000095_render000005.png,stimuli/rgb_scene000095_render000006.png,0,174,174,104,"[1, 0]",left,1,123,21,f,y,y,2019_Apr_30_1256,2AFC_task,59.96016244394088,
stimuli/rgb_scene000090_render000000.png,stimuli/rgb_scene000090_render000006.png,0,175,175,68,"[0, 1]",right,1,123,21,f,y,y,2019_Apr_30_1256,2AFC_task,59.96016244394088,
stimuli/rgb_scene000195_render000002.png,stimuli/rgb_scene000195_render000006.png,0,176,176,203,"[0, 1]",right,1,123,21,f,y,y,2019_Apr_30_1256,2AFC_task,59.96016244394088,
stimuli/rgb_scene000102_render000003.png,stimuli/rgb_scene000102_render000005.png,0,177,177,142,"[0, 1]",right,1,123,21,f,y,y,2019_Apr_30_1256,2AFC_task,59.96016244394088,
stimuli/rgb_scene000012_render000003.png,stimuli/rgb_scene000012_render000004.png,0,178,178,57,"[1, 0]",left,1,123,21,f,y,y,2019_Apr_30_1256,2AFC_task,59.96016244394088,
stimuli/rgb_scene000095_render000000.png,stimuli/rgb_scene000095_render000006.png,0,179,179,89,"[1, 0]",left,1,123,21,f,y,y,2019_Apr_30_1256,2AFC_task,59.96016244394088,
stimuli/rgb_scene000195_render000001.png,stimuli/rgb_scene000195_render000006.png,0,180,180,199,"[0, 1]",right,1,123,21,f,y,y,2019_Apr_30_1256,2AFC_task,59.96016244394088,
stimuli/rgb_scene000102_render000005.png,stimuli/rgb_scene000102_render000006.png,0,181,181,146,"[1, 0]",right,0,123,21,f,y,y,2019_Apr_30_1256,2AFC_task,59.96016244394088,
stimuli/rgb_scene000095_render000000.png,stimuli/rgb_scene000095_render000002.png,0,182,182,85,"[0, 1]",right,1,123,21,f,y,y,2019_Apr_30_1256,2AFC_task,59.96016244394088,
stimuli/rgb_scene000095_render000001.png,stimuli/rgb_scene000095_render000002.png,0,183,183,90,"[0, 1]",right,1,123,21,f,y,y,2019_Apr_30_1256,2AFC_task,59.96016244394088,
stimuli/rgb_scene000095_render000003.png,stimuli/rgb_scene000095_render000005.png,0,184,184,100,"[0, 1]",right,1,123,21,f,y,y,2019_Apr_30_1256,2AFC_task,59.96016244394088,
stimuli/rgb_scene000090_render000003.png,stimuli/rgb_scene000090_render000004.png,0,185,185,78,"[1, 0]",left,1,123,21,f,y,y,2019_Apr_30_1256,2AFC_task,59.96016244394088,
stimuli/rgb_scene000146_render000002.png,stimuli/rgb_scene000146_render000006.png,0,186,186,182,"[1, 0]",left,1,123,21,f,y,y,2019_Apr_30_1256,2AFC_task,59.96016244394088,
stimuli/rgb_scene000012_render000001.png,stimuli/rgb_scene000012_render000006.png,0,187,187,52,"[0, 1]",right,1,123,21,f,y,y,2019_Apr_30_1256,2AFC_task,59.96016244394088,
stimuli/rgb_scene000012_render000000.png,stimuli/rgb_scene000012_render000005.png,0,188,188,46,"[1, 0]",left,1,123,21,f,y,y,2019_Apr_30_1256,2AFC_task,59.96016244394088,
stimuli/rgb_scene000004_render000000.png,stimuli/rgb_scene000004_render000003.png,0,189,189,2,"[0, 1]",right,1,123,21,f,y,y,2019_Apr_30_1256,2AFC_task,59.96016244394088,
stimuli/rgb_scene000102_render000000.png,stimuli/rgb_scene000102_render000004.png,0,190,190,129,"[0, 1]",right,1,123,21,f,y,y,2019_Apr_30_1256,2AFC_task,59.96016244394088,
stimuli/rgb_scene000102_render000003.png,stimuli/rgb_scene000102_render000006.png,0,191,191,143,"[1, 0]",left,1,123,21,f,y,y,2019_Apr_30_1256,2AFC_task,59.96016244394088,
stimuli/rgb_scene000090_render000000.png,stimuli/rgb_scene000090_render000005.png,0,192,192,67,"[1, 0]",left,1,123,21,f,y,y,2019_Apr_30_1256,2AFC_task,59.96016244394088,
stimuli/rgb_scene000113_render000002.png,stimuli/rgb_scene000113_render000006.png,0,193,193,161,"[0, 1]",right,1,123,21,f,y,y,2019_Apr_30_1256,2AFC_task,59.96016244394088,
stimuli/rgb_scene000195_render000000.png,stimuli/rgb_scene000195_render000001.png,0,194,194,189,"[1, 0]",left,1,123,21,f,y,y,2019_Apr_30_1256,2AFC_task,59.96016244394088,
stimuli/rgb_scene000012_render000002.png,stimuli/rgb_scene000012_render000006.png,0,195,195,56,"[0, 1]",right,1,123,21,f,y,y,2019_Apr_30_1256,2AFC_task,59.96016244394088,
stimuli/rgb_scene000090_render000001.png,stimuli/rgb_scene000090_render000004.png,0,196,196,71,"[0, 1]",right,1,123,21,f,y,y,2019_Apr_30_1256,2AFC_task,59.96016244394088,
stimuli/rgb_scene000005_render000001.png,stimuli/rgb_scene000005_render000002.png,0,197,197,27,"[1, 0]",right,0,123,21,f,y,y,2019_Apr_30_1256,2AFC_task,59.96016244394088,
stimuli/rgb_scene000090_render000002.png,stimuli/rgb_scene000090_render000006.png,0,198,198,77,"[0, 1]",right,1,123,21,f,y,y,2019_Apr_30_1256,2AFC_task,59.96016244394088,
stimuli/rgb_scene000004_render000002.png,stimuli/rgb_scene000004_render000003.png,0,199,199,11,"[1, 0]",left,1,123,21,f,y,y,2019_Apr_30_1256,2AFC_task,59.96016244394088,
stimuli/rgb_scene000012_render000000.png,stimuli/rgb_scene000012_render000006.png,0,200,200,47,"[0, 1]",right,1,123,21,f,y,y,2019_Apr_30_1256,2AFC_task,59.96016244394088,
stimuli/rgb_scene000012_render000004.png,stimuli/rgb_scene000012_render000006.png,0,201,201,61,"[0, 1]",left,0,123,21,f,y,y,2019_Apr_30_1256,2AFC_task,59.96016244394088,
stimuli/rgb_scene000096_render000001.png,stimuli/rgb_scene000096_render000006.png,0,202,202,115,"[1, 0]",left,1,123,21,f,y,y,2019_Apr_30_1256,2AFC_task,59.96016244394088,
stimuli/rgb_scene000095_render000001.png,stimuli/rgb_scene000095_render000003.png,0,203,203,91,"[1, 0]",left,1,123,21,f,y,y,2019_Apr_30_1256,2AFC_task,59.96016244394088,
stimuli/rgb_scene000004_render000000.png,stimuli/rgb_scene000004_render000001.png,0,204,204,0,"[0, 1]",right,1,123,21,f,y,y,2019_Apr_30_1256,2AFC_task,59.96016244394088,
stimuli/rgb_scene000146_render000002.png,stimuli/rgb_scene000146_render000005.png,0,205,205,181,"[0, 1]",right,1,123,21,f,y,y,2019_Apr_30_1256,2AFC_task,59.96016244394088,
stimuli/rgb_scene000004_render000003.png,stimuli/rgb_scene000004_render000006.png,0,206,206,17,"[1, 0]",left,1,123,21,f,y,y,2019_Apr_30_1256,2AFC_task,59.96016244394088,
stimuli/rgb_scene000102_render000000.png,stimuli/rgb_scene000102_render000006.png,0,207,207,131,"[0, 1]",right,1,123,21,f,y,y,2019_Apr_30_1256,2AFC_task,59.96016244394088,
stimuli/rgb_scene000102_render000002.png,stimuli/rgb_scene000102_render000006.png,0,208,208,140,"[0, 1]",right,1,123,21,f,y,y,2019_Apr_30_1256,2AFC_task,59.96016244394088,
stimuli/rgb_scene000090_render000001.png,stimuli/rgb_scene000090_render000003.png,0,209,209,70,"[0, 1]",right,1,123,21,f,y,y,2019_Apr_30_1256,2AFC_task,59.96016244394088,
stimuli/rgb_scene000090_render000004.png,stimuli/rgb_scene000090_render000005.png,1,0,210,81,"[0, 1]",left,0,123,21,f,y,y,2019_Apr_30_1256,2AFC_task,59.96016244394088,
stimuli/rgb_scene000012_render000002.png,stimuli/rgb_scene000012_render000006.png,1,1,211,56,"[0, 1]",right,1,123,21,f,y,y,2019_Apr_30_1256,2AFC_task,59.96016244394088,
stimuli/rgb_scene000095_render000002.png,stimuli/rgb_scene000095_render000006.png,1,2,212,98,"[0, 1]",right,1,123,21,f,y,y,2019_Apr_30_1256,2AFC_task,59.96016244394088,
stimuli/rgb_scene000113_render000000.png,stimuli/rgb_scene000113_render000003.png,1,3,213,149,"[0, 1]",right,1,123,21,f,y,y,2019_Apr_30_1256,2AFC_task,59.96016244394088,
stimuli/rgb_scene000005_render000002.png,stimuli/rgb_scene000005_render000003.png,1,4,214,32,"[0, 1]",right,1,123,21,f,y,y,2019_Apr_30_1256,2AFC_task,59.96016244394088,
stimuli/rgb_scene000146_render000000.png,stimuli/rgb_scene000146_render000006.png,1,5,215,173,"[0, 1]",right,1,123,21,f,y,y,2019_Apr_30_1256,2AFC_task,59.96016244394088,
stimuli/rgb_scene000004_render000000.png,stimuli/rgb_scene000004_render000003.png,1,6,216,2,"[1, 0]",left,1,123,21,f,y,y,2019_Apr_30_1256,2AFC_task,59.96016244394088,
stimuli/rgb_scene000146_render000003.png,stimuli/rgb_scene000146_render000004.png,1,7,217,183,"[1, 0]",left,1,123,21,f,y,y,2019_Apr_30_1256,2AFC_task,59.96016244394088,
stimuli/rgb_scene000096_render000002.png,stimuli/rgb_scene000096_render000004.png,1,8,218,117,"[0, 1]",right,1,123,21,f,y,y,2019_Apr_30_1256,2AFC_task,59.96016244394088,
stimuli/rgb_scene000195_render000003.png,stimuli/rgb_scene000195_render000006.png,1,9,219,206,"[0, 1]",right,1,123,21,f,y,y,2019_Apr_30_1256,2AFC_task,59.96016244394088,
stimuli/rgb_scene000012_render000000.png,stimuli/rgb_scene000012_render000005.png,1,10,220,46,"[1, 0]",left,1,123,21,f,y,y,2019_Apr_30_1256,2AFC_task,59.96016244394088,
stimuli/rgb_scene000096_render000005.png,stimuli/rgb_scene000096_render000006.png,1,11,221,125,"[1, 0]",left,1,123,21,f,y,y,2019_Apr_30_1256,2AFC_task,59.96016244394088,
stimuli/rgb_scene000090_render000002.png,stimuli/rgb_scene000090_render000003.png,1,12,222,74,"[1, 0]",left,1,123,21,f,y,y,2019_Apr_30_1256,2AFC_task,59.96016244394088,
stimuli/rgb_scene000096_render000002.png,stimuli/rgb_scene000096_render000006.png,1,13,223,119,"[1, 0]",left,1,123,21,f,y,y,2019_Apr_30_1256,2AFC_task,59.96016244394088,
stimuli/rgb_scene000102_render000001.png,stimuli/rgb_scene000102_render000005.png,1,14,224,135,"[0, 1]",right,1,123,21,f,y,y,2019_Apr_30_1256,2AFC_task,59.96016244394088,
stimuli/rgb_scene000096_render000001.png,stimuli/rgb_scene000096_render000005.png,1,15,225,114,"[0, 1]",right,1,123,21,f,y,y,2019_Apr_30_1256,2AFC_task,59.96016244394088,
stimuli/rgb_scene000102_render000003.png,stimuli/rgb_scene000102_render000006.png,1,16,226,143,"[0, 1]",right,1,123,21,f,y,y,2019_Apr_30_1256,2AFC_task,59.96016244394088,
stimuli/rgb_scene000012_render000000.png,stimuli/rgb_scene000012_render000004.png,1,17,227,45,"[1, 0]",left,1,123,21,f,y,y,2019_Apr_30_1256,2AFC_task,59.96016244394088,
stimuli/rgb_scene000195_render000000.png,stimuli/rgb_scene000195_render000003.png,1,18,228,191,"[0, 1]",right,1,123,21,f,y,y,2019_Apr_30_1256,2AFC_task,59.96016244394088,
stimuli/rgb_scene000113_render000003.png,stimuli/rgb_scene000113_render000006.png,1,19,229,164,"[1, 0]",left,1,123,21,f,y,y,2019_Apr_30_1256,2AFC_task,59.96016244394088,
stimuli/rgb_scene000090_render000000.png,stimuli/rgb_scene000090_render000005.png,1,20,230,67,"[1, 0]",left,1,123,21,f,y,y,2019_Apr_30_1256,2AFC_task,59.96016244394088,
stimuli/rgb_scene000113_render000002.png,stimuli/rgb_scene000113_render000005.png,1,21,231,160,"[0, 1]",right,1,123,21,f,y,y,2019_Apr_30_1256,2AFC_task,59.96016244394088,
stimuli/rgb_scene000096_render000000.png,stimuli/rgb_scene000096_render000004.png,1,22,232,108,"[1, 0]",left,1,123,21,f,y,y,2019_Apr_30_1256,2AFC_task,59.96016244394088,
stimuli/rgb_scene000113_render000000.png,stimuli/rgb_scene000113_render000005.png,1,23,233,151,"[1, 0]",left,1,123,21,f,y,y,2019_Apr_30_1256,2AFC_task,59.96016244394088,
stimuli/rgb_scene000096_render000003.png,stimuli/rgb_scene000096_render000004.png,1,24,234,120,"[0, 1]",right,1,123,21,f,y,y,2019_Apr_30_1256,2AFC_task,59.96016244394088,
stimuli/rgb_scene000195_render000001.png,stimuli/rgb_scene000195_render000002.png,1,25,235,195,"[1, 0]",left,1,123,21,f,y,y,2019_Apr_30_1256,2AFC_task,59.96016244394088,
stimuli/rgb_scene000012_render000001.png,stimuli/rgb_scene000012_render000006.png,1,26,236,52,"[1, 0]",left,1,123,21,f,y,y,2019_Apr_30_1256,2AFC_task,59.96016244394088,
stimuli/rgb_scene000146_render000001.png,stimuli/rgb_scene000146_render000006.png,1,27,237,178,"[1, 0]",left,1,123,21,f,y,y,2019_Apr_30_1256,2AFC_task,59.96016244394088,
stimuli/rgb_scene000146_render000003.png,stimuli/rgb_scene000146_render000006.png,1,28,238,185,"[1, 0]",left,1,123,21,f,y,y,2019_Apr_30_1256,2AFC_task,59.96016244394088,
stimuli/rgb_scene000195_render000003.png,stimuli/rgb_scene000195_render000004.png,1,29,239,204,"[0, 1]",right,1,123,21,f,y,y,2019_Apr_30_1256,2AFC_task,59.96016244394088,
stimuli/rgb_scene000113_render000004.png,stimuli/rgb_scene000113_render000005.png,1,30,240,165,"[0, 1]",left,0,123,21,f,y,y,2019_Apr_30_1256,2AFC_task,59.96016244394088,
stimuli/rgb_scene000004_render000003.png,stimuli/rgb_scene000004_render000004.png,1,31,241,15,"[1, 0]",left,1,123,21,f,y,y,2019_Apr_30_1256,2AFC_task,59.96016244394088,
stimuli/rgb_scene000004_render000002.png,stimuli/rgb_scene000004_render000004.png,1,32,242,12,"[0, 1]",right,1,123,21,f,y,y,2019_Apr_30_1256,2AFC_task,59.96016244394088,
stimuli/rgb_scene000004_render000000.png,stimuli/rgb_scene000004_render000001.png,1,33,243,0,"[0, 1]",right,1,123,21,f,y,y,2019_Apr_30_1256,2AFC_task,59.96016244394088,
stimuli/rgb_scene000004_render000001.png,stimuli/rgb_scene000004_render000004.png,1,34,244,8,"[1, 0]",left,1,123,21,f,y,y,2019_Apr_30_1256,2AFC_task,59.96016244394088,
stimuli/rgb_scene000102_render000005.png,stimuli/rgb_scene000102_render000006.png,1,35,245,146,"[0, 1]",left,0,123,21,f,y,y,2019_Apr_30_1256,2AFC_task,59.96016244394088,
stimuli/rgb_scene000005_render000002.png,stimuli/rgb_scene000005_render000005.png,1,36,246,34,"[1, 0]",left,1,123,21,f,y,y,2019_Apr_30_1256,2AFC_task,59.96016244394088,
stimuli/rgb_scene000004_render000002.png,stimuli/rgb_scene000004_render000005.png,1,37,247,13,"[0, 1]",right,1,123,21,f,y,y,2019_Apr_30_1256,2AFC_task,59.96016244394088,
stimuli/rgb_scene000095_render000002.png,stimuli/rgb_scene000095_render000004.png,1,38,248,96,"[1, 0]",left,1,123,21,f,y,y,2019_Apr_30_1256,2AFC_task,59.96016244394088,
stimuli/rgb_scene000113_render000000.png,stimuli/rgb_scene000113_render000002.png,1,39,249,148,"[1, 0]",left,1,123,21,f,y,y,2019_Apr_30_1256,2AFC_task,59.96016244394088,
stimuli/rgb_scene000004_render000001.png,stimuli/rgb_scene000004_render000005.png,1,40,250,9,"[0, 1]",right,1,123,21,f,y,y,2019_Apr_30_1256,2AFC_task,59.96016244394088,
stimuli/rgb_scene000195_render000002.png,stimuli/rgb_scene000195_render000004.png,1,41,251,201,"[1, 0]",left,1,123,21,f,y,y,2019_Apr_30_1256,2AFC_task,59.96016244394088,
stimuli/rgb_scene000102_render000003.png,stimuli/rgb_scene000102_render000005.png,1,42,252,142,"[0, 1]",right,1,123,21,f,y,y,2019_Apr_30_1256,2AFC_task,59.96016244394088,
stimuli/rgb_scene000090_render000000.png,stimuli/rgb_scene000090_render000004.png,1,43,253,66,"[0, 1]",right,1,123,21,f,y,y,2019_Apr_30_1256,2AFC_task,59.96016244394088,
stimuli/rgb_scene000113_render000000.png,stimuli/rgb_scene000113_render000001.png,1,44,254,147,"[0, 1]",right,1,123,21,f,y,y,2019_Apr_30_1256,2AFC_task,59.96016244394088,
stimuli/rgb_scene000090_render000003.png,stimuli/rgb_scene000090_render000006.png,1,45,255,80,"[0, 1]",right,1,123,21,f,y,y,2019_Apr_30_1256,2AFC_task,59.96016244394088,
stimuli/rgb_scene000146_render000001.png,stimuli/rgb_scene000146_render000002.png,1,46,256,174,"[1, 0]",left,1,123,21,f,y,y,2019_Apr_30_1256,2AFC_task,59.96016244394088,
stimuli/rgb_scene000113_render000001.png,stimuli/rgb_scene000113_render000003.png,1,47,257,154,"[1, 0]",left,1,123,21,f,y,y,2019_Apr_30_1256,2AFC_task,59.96016244394088,
stimuli/rgb_scene000102_render000000.png,stimuli/rgb_scene000102_render000004.png,1,48,258,129,"[1, 0]",left,1,123,21,f,y,y,2019_Apr_30_1256,2AFC_task,59.96016244394088,
stimuli/rgb_scene000090_render000001.png,stimuli/rgb_scene000090_render000004.png,1,49,259,71,"[0, 1]",right,1,123,21,f,y,y,2019_Apr_30_1256,2AFC_task,59.96016244394088,
stimuli/rgb_scene000146_render000000.png,stimuli/rgb_scene000146_render000005.png,1,50,260,172,"[0, 1]",right,1,123,21,f,y,y,2019_Apr_30_1256,2AFC_task,59.96016244394088,
stimuli/rgb_scene000004_render000000.png,stimuli/rgb_scene000004_render000004.png,1,51,261,3,"[0, 1]",right,1,123,21,f,y,y,2019_Apr_30_1256,2AFC_task,59.96016244394088,
stimuli/rgb_scene000090_render000001.png,stimuli/rgb_scene000090_render000002.png,1,52,262,69,"[0, 1]",left,0,123,21,f,y,y,2019_Apr_30_1256,2AFC_task,59.96016244394088,
stimuli/rgb_scene000195_render000002.png,stimuli/rgb_scene000195_render000005.png,1,53,263,202,"[0, 1]",right,1,123,21,f,y,y,2019_Apr_30_1256,2AFC_task,59.96016244394088,
stimuli/rgb_scene000095_render000001.png,stimuli/rgb_scene000095_render000002.png,1,54,264,90,"[0, 1]",right,1,123,21,f,y,y,2019_Apr_30_1256,2AFC_task,59.96016244394088,
stimuli/rgb_scene000095_render000001.png,stimuli/rgb_scene000095_render000004.png,1,55,265,92,"[0, 1]",right,1,123,21,f,y,y,2019_Apr_30_1256,2AFC_task,59.96016244394088,
stimuli/rgb_scene000113_render000002.png,stimuli/rgb_scene000113_render000003.png,1,56,266,158,"[1, 0]",left,1,123,21,f,y,y,2019_Apr_30_1256,2AFC_task,59.96016244394088,
stimuli/rgb_scene000113_render000000.png,stimuli/rgb_scene000113_render000004.png,1,57,267,150,"[0, 1]",right,1,123,21,f,y,y,2019_Apr_30_1256,2AFC_task,59.96016244394088,
stimuli/rgb_scene000012_render000001.png,stimuli/rgb_scene000012_render000005.png,1,58,268,51,"[0, 1]",right,1,123,21,f,y,y,2019_Apr_30_1256,2AFC_task,59.96016244394088,
stimuli/rgb_scene000102_render000001.png,stimuli/rgb_scene000102_render000004.png,1,59,269,134,"[0, 1]",right,1,123,21,f,y,y,2019_Apr_30_1256,2AFC_task,59.96016244394088,
stimuli/rgb_scene000113_render000002.png,stimuli/rgb_scene000113_render000006.png,1,60,270,161,"[1, 0]",left,1,123,21,f,y,y,2019_Apr_30_1256,2AFC_task,59.96016244394088,
stimuli/rgb_scene000146_render000000.png,stimuli/rgb_scene000146_render000004.png,1,61,271,171,"[1, 0]",left,1,123,21,f,y,y,2019_Apr_30_1256,2AFC_task,59.96016244394088,
stimuli/rgb_scene000005_render000004.png,stimuli/rgb_scene000005_render000006.png,1,62,272,40,"[0, 1]",right,1,123,21,f,y,y,2019_Apr_30_1256,2AFC_task,59.96016244394088,
stimuli/rgb_scene000012_render000004.png,stimuli/rgb_scene000012_render000006.png,1,63,273,61,"[1, 0]",right,0,123,21,f,y,y,2019_Apr_30_1256,2AFC_task,59.96016244394088,
stimuli/rgb_scene000146_render000001.png,stimuli/rgb_scene000146_render000003.png,1,64,274,175,"[0, 1]",right,1,123,21,f,y,y,2019_Apr_30_1256,2AFC_task,59.96016244394088,
stimuli/rgb_scene000102_render000001.png,stimuli/rgb_scene000102_render000003.png,1,65,275,133,"[0, 1]",right,1,123,21,f,y,y,2019_Apr_30_1256,2AFC_task,59.96016244394088,
stimuli/rgb_scene000146_render000002.png,stimuli/rgb_scene000146_render000004.png,1,66,276,180,"[0, 1]",right,1,123,21,f,y,y,2019_Apr_30_1256,2AFC_task,59.96016244394088,
stimuli/rgb_scene000096_render000004.png,stimuli/rgb_scene000096_render000006.png,1,67,277,124,"[0, 1]",right,1,123,21,f,y,y,2019_Apr_30_1256,2AFC_task,59.96016244394088,
stimuli/rgb_scene000113_render000002.png,stimuli/rgb_scene000113_render000004.png,1,68,278,159,"[0, 1]",right,1,123,21,f,y,y,2019_Apr_30_1256,2AFC_task,59.96016244394088,
stimuli/rgb_scene000146_render000001.png,stimuli/rgb_scene000146_render000004.png,1,69,279,176,"[1, 0]",left,1,123,21,f,y,y,2019_Apr_30_1256,2AFC_task,59.96016244394088,
stimuli/rgb_scene000096_render000001.png,stimuli/rgb_scene000096_render000002.png,1,70,280,111,"[0, 1]",right,1,123,21,f,y,y,2019_Apr_30_1256,2AFC_task,59.96016244394088,
stimuli/rgb_scene000090_render000000.png,stimuli/rgb_scene000090_render000001.png,1,71,281,63,"[1, 0]",left,1,123,21,f,y,y,2019_Apr_30_1256,2AFC_task,59.96016244394088,
stimuli/rgb_scene000012_render000003.png,stimuli/rgb_scene000012_render000005.png,1,72,282,58,"[1, 0]",left,1,123,21,f,y,y,2019_Apr_30_1256,2AFC_task,59.96016244394088,
stimuli/rgb_scene000096_render000000.png,stimuli/rgb_scene000096_render000003.png,1,73,283,107,"[1, 0]",left,1,123,21,f,y,y,2019_Apr_30_1256,2AFC_task,59.96016244394088,
stimuli/rgb_scene000004_render000003.png,stimuli/rgb_scene000004_render000005.png,1,74,284,16,"[0, 1]",right,1,123,21,f,y,y,2019_Apr_30_1256,2AFC_task,59.96016244394088,
stimuli/rgb_scene000102_render000002.png,stimuli/rgb_scene000102_render000005.png,1,75,285,139,"[0, 1]",right,1,123,21,f,y,y,2019_Apr_30_1256,2AFC_task,59.96016244394088,
stimuli/rgb_scene000113_render000001.png,stimuli/rgb_scene000113_render000005.png,1,76,286,156,"[1, 0]",left,1,123,21,f,y,y,2019_Apr_30_1256,2AFC_task,59.96016244394088,
stimuli/rgb_scene000195_render000001.png,stimuli/rgb_scene000195_render000006.png,1,77,287,199,"[1, 0]",left,1,123,21,f,y,y,2019_Apr_30_1256,2AFC_task,59.96016244394088,
stimuli/rgb_scene000005_render000005.png,stimuli/rgb_scene000005_render000006.png,1,78,288,41,"[1, 0]",right,0,123,21,f,y,y,2019_Apr_30_1256,2AFC_task,59.96016244394088,
stimuli/rgb_scene000195_render000002.png,stimuli/rgb_scene000195_render000006.png,1,79,289,203,"[0, 1]",right,1,123,21,f,y,y,2019_Apr_30_1256,2AFC_task,59.96016244394088,
stimuli/rgb_scene000096_render000001.png,stimuli/rgb_scene000096_render000003.png,1,80,290,112,"[1, 0]",left,1,123,21,f,y,y,2019_Apr_30_1256,2AFC_task,59.96016244394088,
stimuli/rgb_scene000004_render000005.png,stimuli/rgb_scene000004_render000006.png,1,81,291,20,"[0, 1]",right,1,123,21,f,y,y,2019_Apr_30_1256,2AFC_task,59.96016244394088,
stimuli/rgb_scene000195_render000000.png,stimuli/rgb_scene000195_render000006.png,1,82,292,194,"[0, 1]",right,1,123,21,f,y,y,2019_Apr_30_1256,2AFC_task,59.96016244394088,
stimuli/rgb_scene000102_render000002.png,stimuli/rgb_scene000102_render000003.png,1,83,293,137,"[0, 1]",right,1,123,21,f,y,y,2019_Apr_30_1256,2AFC_task,59.96016244394088,
stimuli/rgb_scene000004_render000002.png,stimuli/rgb_scene000004_render000003.png,1,84,294,11,"[0, 1]",right,1,123,21,f,y,y,2019_Apr_30_1256,2AFC_task,59.96016244394088,
stimuli/rgb_scene000146_render000005.png,stimuli/rgb_scene000146_render000006.png,1,85,295,188,"[1, 0]",left,1,123,21,f,y,y,2019_Apr_30_1256,2AFC_task,59.96016244394088,
stimuli/rgb_scene000095_render000001.png,stimuli/rgb_scene000095_render000005.png,1,86,296,93,"[0, 1]",right,1,123,21,f,y,y,2019_Apr_30_1256,2AFC_task,59.96016244394088,
stimuli/rgb_scene000096_render000000.png,stimuli/rgb_scene000096_render000002.png,1,87,297,106,"[1, 0]",left,1,123,21,f,y,y,2019_Apr_30_1256,2AFC_task,59.96016244394088,
stimuli/rgb_scene000095_render000004.png,stimuli/rgb_scene000095_render000005.png,1,88,298,102,"[1, 0]",left,1,123,21,f,y,y,2019_Apr_30_1256,2AFC_task,59.96016244394088,
stimuli/rgb_scene000102_render000002.png,stimuli/rgb_scene000102_render000004.png,1,89,299,138,"[1, 0]",left,1,123,21,f,y,y,2019_Apr_30_1256,2AFC_task,59.96016244394088,
stimuli/rgb_scene000146_render000000.png,stimuli/rgb_scene000146_render000001.png,1,90,300,168,"[0, 1]",right,1,123,21,f,y,y,2019_Apr_30_1256,2AFC_task,59.96016244394088,
stimuli/rgb_scene000095_render000003.png,stimuli/rgb_scene000095_render000006.png,1,91,301,101,"[1, 0]",left,1,123,21,f,y,y,2019_Apr_30_1256,2AFC_task,59.96016244394088,
stimuli/rgb_scene000195_render000001.png,stimuli/rgb_scene000195_render000004.png,1,92,302,197,"[1, 0]",left,1,123,21,f,y,y,2019_Apr_30_1256,2AFC_task,59.96016244394088,
stimuli/rgb_scene000102_render000003.png,stimuli/rgb_scene000102_render000004.png,1,93,303,141,"[1, 0]",left,1,123,21,f,y,y,2019_Apr_30_1256,2AFC_task,59.96016244394088,
stimuli/rgb_scene000102_render000000.png,stimuli/rgb_scene000102_render000006.png,1,94,304,131,"[0, 1]",right,1,123,21,f,y,y,2019_Apr_30_1256,2AFC_task,59.96016244394088,
stimuli/rgb_scene000102_render000004.png,stimuli/rgb_scene000102_render000005.png,1,95,305,144,"[1, 0]",left,1,123,21,f,y,y,2019_Apr_30_1256,2AFC_task,59.96016244394088,
stimuli/rgb_scene000096_render000000.png,stimuli/rgb_scene000096_render000001.png,1,96,306,105,"[0, 1]",right,1,123,21,f,y,y,2019_Apr_30_1256,2AFC_task,59.96016244394088,
stimuli/rgb_scene000095_render000002.png,stimuli/rgb_scene000095_render000005.png,1,97,307,97,"[1, 0]",left,1,123,21,f,y,y,2019_Apr_30_1256,2AFC_task,59.96016244394088,
stimuli/rgb_scene000012_render000001.png,stimuli/rgb_scene000012_render000002.png,1,98,308,48,"[0, 1]",right,1,123,21,f,y,y,2019_Apr_30_1256,2AFC_task,59.96016244394088,
stimuli/rgb_scene000012_render000004.png,stimuli/rgb_scene000012_render000005.png,1,99,309,60,"[1, 0]",right,0,123,21,f,y,y,2019_Apr_30_1256,2AFC_task,59.96016244394088,
stimuli/rgb_scene000090_render000003.png,stimuli/rgb_scene000090_render000004.png,1,100,310,78,"[0, 1]",right,1,123,21,f,y,y,2019_Apr_30_1256,2AFC_task,59.96016244394088,
stimuli/rgb_scene000146_render000003.png,stimuli/rgb_scene000146_render000005.png,1,101,311,184,"[1, 0]",left,1,123,21,f,y,y,2019_Apr_30_1256,2AFC_task,59.96016244394088,
stimuli/rgb_scene000004_render000000.png,stimuli/rgb_scene000004_render000006.png,1,102,312,5,"[0, 1]",right,1,123,21,f,y,y,2019_Apr_30_1256,2AFC_task,59.96016244394088,
stimuli/rgb_scene000102_render000000.png,stimuli/rgb_scene000102_render000005.png,1,103,313,130,"[1, 0]",left,1,123,21,f,y,y,2019_Apr_30_1256,2AFC_task,59.96016244394088,
stimuli/rgb_scene000004_render000000.png,stimuli/rgb_scene000004_render000005.png,1,104,314,4,"[0, 1]",right,1,123,21,f,y,y,2019_Apr_30_1256,2AFC_task,59.96016244394088,
stimuli/rgb_scene000146_render000002.png,stimuli/rgb_scene000146_render000005.png,1,105,315,181,"[1, 0]",left,1,123,21,f,y,y,2019_Apr_30_1256,2AFC_task,59.96016244394088,
stimuli/rgb_scene000005_render000003.png,stimuli/rgb_scene000005_render000004.png,1,106,316,36,"[0, 1]",left,0,123,21,f,y,y,2019_Apr_30_1256,2AFC_task,59.96016244394088,
stimuli/rgb_scene000102_render000000.png,stimuli/rgb_scene000102_render000003.png,1,107,317,128,"[1, 0]",left,1,123,21,f,y,y,2019_Apr_30_1256,2AFC_task,59.96016244394088,
stimuli/rgb_scene000005_render000001.png,stimuli/rgb_scene000005_render000004.png,1,108,318,29,"[0, 1]",right,1,123,21,f,y,y,2019_Apr_30_1256,2AFC_task,59.96016244394088,
stimuli/rgb_scene000005_render000002.png,stimuli/rgb_scene000005_render000004.png,1,109,319,33,"[1, 0]",left,1,123,21,f,y,y,2019_Apr_30_1256,2AFC_task,59.96016244394088,
stimuli/rgb_scene000113_render000000.png,stimuli/rgb_scene000113_render000006.png,1,110,320,152,"[1, 0]",left,1,123,21,f,y,y,2019_Apr_30_1256,2AFC_task,59.96016244394088,
stimuli/rgb_scene000146_render000004.png,stimuli/rgb_scene000146_render000005.png,1,111,321,186,"[1, 0]",left,1,123,21,f,y,y,2019_Apr_30_1256,2AFC_task,59.96016244394088,
stimuli/rgb_scene000195_render000000.png,stimuli/rgb_scene000195_render000005.png,1,112,322,193,"[1, 0]",left,1,123,21,f,y,y,2019_Apr_30_1256,2AFC_task,59.96016244394088,
stimuli/rgb_scene000090_render000000.png,stimuli/rgb_scene000090_render000002.png,1,113,323,64,"[0, 1]",right,1,123,21,f,y,y,2019_Apr_30_1256,2AFC_task,59.96016244394088,
stimuli/rgb_scene000146_render000001.png,stimuli/rgb_scene000146_render000005.png,1,114,324,177,"[1, 0]",left,1,123,21,f,y,y,2019_Apr_30_1256,2AFC_task,59.96016244394088,
stimuli/rgb_scene000012_render000000.png,stimuli/rgb_scene000012_render000003.png,1,115,325,44,"[0, 1]",right,1,123,21,f,y,y,2019_Apr_30_1256,2AFC_task,59.96016244394088,
stimuli/rgb_scene000090_render000001.png,stimuli/rgb_scene000090_render000005.png,1,116,326,72,"[1, 0]",left,1,123,21,f,y,y,2019_Apr_30_1256,2AFC_task,59.96016244394088,
stimuli/rgb_scene000095_render000000.png,stimuli/rgb_scene000095_render000003.png,1,117,327,86,"[0, 1]",right,1,123,21,f,y,y,2019_Apr_30_1256,2AFC_task,59.96016244394088,
stimuli/rgb_scene000113_render000003.png,stimuli/rgb_scene000113_render000005.png,1,118,328,163,"[1, 0]",left,1,123,21,f,y,y,2019_Apr_30_1256,2AFC_task,59.96016244394088,
stimuli/rgb_scene000195_render000003.png,stimuli/rgb_scene000195_render000005.png,1,119,329,205,"[1, 0]",left,1,123,21,f,y,y,2019_Apr_30_1256,2AFC_task,59.96016244394088,
stimuli/rgb_scene000012_render000002.png,stimuli/rgb_scene000012_render000004.png,1,120,330,54,"[1, 0]",left,1,123,21,f,y,y,2019_Apr_30_1256,2AFC_task,59.96016244394088,
stimuli/rgb_scene000012_render000002.png,stimuli/rgb_scene000012_render000003.png,1,121,331,53,"[1, 0]",left,1,123,21,f,y,y,2019_Apr_30_1256,2AFC_task,59.96016244394088,
stimuli/rgb_scene000195_render000004.png,stimuli/rgb_scene000195_render000006.png,1,122,332,208,"[0, 1]",left,0,123,21,f,y,y,2019_Apr_30_1256,2AFC_task,59.96016244394088,
stimuli/rgb_scene000012_render000005.png,stimuli/rgb_scene000012_render000006.png,1,123,333,62,"[1, 0]",right,0,123,21,f,y,y,2019_Apr_30_1256,2AFC_task,59.96016244394088,
stimuli/rgb_scene000113_render000004.png,stimuli/rgb_scene000113_render000006.png,1,124,334,166,"[1, 0]",left,1,123,21,f,y,y,2019_Apr_30_1256,2AFC_task,59.96016244394088,
stimuli/rgb_scene000004_render000002.png,stimuli/rgb_scene000004_render000006.png,1,125,335,14,"[0, 1]",right,1,123,21,f,y,y,2019_Apr_30_1256,2AFC_task,59.96016244394088,
stimuli/rgb_scene000095_render000002.png,stimuli/rgb_scene000095_render000003.png,1,126,336,95,"[1, 0]",left,1,123,21,f,y,y,2019_Apr_30_1256,2AFC_task,59.96016244394088,
stimuli/rgb_scene000005_render000000.png,stimuli/rgb_scene000005_render000006.png,1,127,337,26,"[0, 1]",right,1,123,21,f,y,y,2019_Apr_30_1256,2AFC_task,59.96016244394088,
stimuli/rgb_scene000113_render000001.png,stimuli/rgb_scene000113_render000002.png,1,128,338,153,"[0, 1]",right,1,123,21,f,y,y,2019_Apr_30_1256,2AFC_task,59.96016244394088,
stimuli/rgb_scene000113_render000001.png,stimuli/rgb_scene000113_render000006.png,1,129,339,157,"[1, 0]",left,1,123,21,f,y,y,2019_Apr_30_1256,2AFC_task,59.96016244394088,
stimuli/rgb_scene000195_render000000.png,stimuli/rgb_scene000195_render000002.png,1,130,340,190,"[0, 1]",right,1,123,21,f,y,y,2019_Apr_30_1256,2AFC_task,59.96016244394088,
stimuli/rgb_scene000090_render000000.png,stimuli/rgb_scene000090_render000003.png,1,131,341,65,"[0, 1]",right,1,123,21,f,y,y,2019_Apr_30_1256,2AFC_task,59.96016244394088,
stimuli/rgb_scene000005_render000001.png,stimuli/rgb_scene000005_render000003.png,1,132,342,28,"[0, 1]",right,1,123,21,f,y,y,2019_Apr_30_1256,2AFC_task,59.96016244394088,
stimuli/rgb_scene000096_render000001.png,stimuli/rgb_scene000096_render000006.png,1,133,343,115,"[0, 1]",right,1,123,21,f,y,y,2019_Apr_30_1256,2AFC_task,59.96016244394088,
stimuli/rgb_scene000195_render000000.png,stimuli/rgb_scene000195_render000004.png,1,134,344,192,"[1, 0]",left,1,123,21,f,y,y,2019_Apr_30_1256,2AFC_task,59.96016244394088,
stimuli/rgb_scene000195_render000002.png,stimuli/rgb_scene000195_render000003.png,1,135,345,200,"[1, 0]",right,0,123,21,f,y,y,2019_Apr_30_1256,2AFC_task,59.96016244394088,
stimuli/rgb_scene000004_render000001.png,stimuli/rgb_scene000004_render000003.png,1,136,346,7,"[1, 0]",left,1,123,21,f,y,y,2019_Apr_30_1256,2AFC_task,59.96016244394088,
stimuli/rgb_scene000195_render000001.png,stimuli/rgb_scene000195_render000005.png,1,137,347,198,"[1, 0]",left,1,123,21,f,y,y,2019_Apr_30_1256,2AFC_task,59.96016244394088,
stimuli/rgb_scene000102_render000000.png,stimuli/rgb_scene000102_render000001.png,1,138,348,126,"[0, 1]",right,1,123,21,f,y,y,2019_Apr_30_1256,2AFC_task,59.96016244394088,
stimuli/rgb_scene000005_render000003.png,stimuli/rgb_scene000005_render000005.png,1,139,349,37,"[1, 0]",left,1,123,21,f,y,y,2019_Apr_30_1256,2AFC_task,59.96016244394088,
stimuli/rgb_scene000012_render000000.png,stimuli/rgb_scene000012_render000001.png,1,140,350,42,"[0, 1]",right,1,123,21,f,y,y,2019_Apr_30_1256,2AFC_task,59.96016244394088,
stimuli/rgb_scene000146_render000002.png,stimuli/rgb_scene000146_render000006.png,1,141,351,182,"[0, 1]",right,1,123,21,f,y,y,2019_Apr_30_1256,2AFC_task,59.96016244394088,
stimuli/rgb_scene000195_render000005.png,stimuli/rgb_scene000195_render000006.png,1,142,352,209,"[1, 0]",right,0,123,21,f,y,y,2019_Apr_30_1256,2AFC_task,59.96016244394088,
stimuli/rgb_scene000005_render000002.png,stimuli/rgb_scene000005_render000006.png,1,143,353,35,"[0, 1]",right,1,123,21,f,y,y,2019_Apr_30_1256,2AFC_task,59.96016244394088,
stimuli/rgb_scene000113_render000005.png,stimuli/rgb_scene000113_render000006.png,1,144,354,167,"[1, 0]",left,1,123,21,f,y,y,2019_Apr_30_1256,2AFC_task,59.96016244394088,
stimuli/rgb_scene000095_render000003.png,stimuli/rgb_scene000095_render000005.png,1,145,355,100,"[0, 1]",right,1,123,21,f,y,y,2019_Apr_30_1256,2AFC_task,59.96016244394088,
stimuli/rgb_scene000113_render000001.png,stimuli/rgb_scene000113_render000004.png,1,146,356,155,"[1, 0]",left,1,123,21,f,y,y,2019_Apr_30_1256,2AFC_task,59.96016244394088,
stimuli/rgb_scene000146_render000000.png,stimuli/rgb_scene000146_render000003.png,1,147,357,170,"[0, 1]",right,1,123,21,f,y,y,2019_Apr_30_1256,2AFC_task,59.96016244394088,
stimuli/rgb_scene000095_render000005.png,stimuli/rgb_scene000095_render000006.png,1,148,358,104,"[1, 0]",right,0,123,21,f,y,y,2019_Apr_30_1256,2AFC_task,59.96016244394088,
stimuli/rgb_scene000090_render000002.png,stimuli/rgb_scene000090_render000006.png,1,149,359,77,"[1, 0]",left,1,123,21,f,y,y,2019_Apr_30_1256,2AFC_task,59.96016244394088,
stimuli/rgb_scene000005_render000000.png,stimuli/rgb_scene000005_render000004.png,1,150,360,24,"[1, 0]",left,1,123,21,f,y,y,2019_Apr_30_1256,2AFC_task,59.96016244394088,
stimuli/rgb_scene000005_render000004.png,stimuli/rgb_scene000005_render000005.png,1,151,361,39,"[0, 1]",right,1,123,21,f,y,y,2019_Apr_30_1256,2AFC_task,59.96016244394088,
stimuli/rgb_scene000012_render000003.png,stimuli/rgb_scene000012_render000004.png,1,152,362,57,"[1, 0]",left,1,123,21,f,y,y,2019_Apr_30_1256,2AFC_task,59.96016244394088,
stimuli/rgb_scene000090_render000003.png,stimuli/rgb_scene000090_render000005.png,1,153,363,79,"[0, 1]",right,1,123,21,f,y,y,2019_Apr_30_1256,2AFC_task,59.96016244394088,
stimuli/rgb_scene000095_render000001.png,stimuli/rgb_scene000095_render000006.png,1,154,364,94,"[1, 0]",left,1,123,21,f,y,y,2019_Apr_30_1256,2AFC_task,59.96016244394088,
stimuli/rgb_scene000004_render000003.png,stimuli/rgb_scene000004_render000006.png,1,155,365,17,"[0, 1]",right,1,123,21,f,y,y,2019_Apr_30_1256,2AFC_task,59.96016244394088,
stimuli/rgb_scene000095_render000000.png,stimuli/rgb_scene000095_render000004.png,1,156,366,87,"[0, 1]",right,1,123,21,f,y,y,2019_Apr_30_1256,2AFC_task,59.96016244394088,
stimuli/rgb_scene000096_render000003.png,stimuli/rgb_scene000096_render000005.png,1,157,367,121,"[0, 1]",right,1,123,21,f,y,y,2019_Apr_30_1256,2AFC_task,59.96016244394088,
stimuli/rgb_scene000102_render000002.png,stimuli/rgb_scene000102_render000006.png,1,158,368,140,"[0, 1]",right,1,123,21,f,y,y,2019_Apr_30_1256,2AFC_task,59.96016244394088,
stimuli/rgb_scene000102_render000004.png,stimuli/rgb_scene000102_render000006.png,1,159,369,145,"[1, 0]",left,1,123,21,f,y,y,2019_Apr_30_1256,2AFC_task,59.96016244394088,
stimuli/rgb_scene000095_render000000.png,stimuli/rgb_scene000095_render000002.png,1,160,370,85,"[0, 1]",right,1,123,21,f,y,y,2019_Apr_30_1256,2AFC_task,59.96016244394088,
stimuli/rgb_scene000004_render000004.png,stimuli/rgb_scene000004_render000005.png,1,161,371,18,"[1, 0]",left,1,123,21,f,y,y,2019_Apr_30_1256,2AFC_task,59.96016244394088,
stimuli/rgb_scene000096_render000000.png,stimuli/rgb_scene000096_render000006.png,1,162,372,110,"[0, 1]",right,1,123,21,f,y,y,2019_Apr_30_1256,2AFC_task,59.96016244394088,
stimuli/rgb_scene000012_render000000.png,stimuli/rgb_scene000012_render000002.png,1,163,373,43,"[0, 1]",right,1,123,21,f,y,y,2019_Apr_30_1256,2AFC_task,59.96016244394088,
stimuli/rgb_scene000102_render000000.png,stimuli/rgb_scene000102_render000002.png,1,164,374,127,"[1, 0]",left,1,123,21,f,y,y,2019_Apr_30_1256,2AFC_task,59.96016244394088,
stimuli/rgb_scene000005_render000001.png,stimuli/rgb_scene000005_render000006.png,1,165,375,31,"[0, 1]",right,1,123,21,f,y,y,2019_Apr_30_1256,2AFC_task,59.96016244394088,
stimuli/rgb_scene000005_render000000.png,stimuli/rgb_scene000005_render000002.png,1,166,376,22,"[0, 1]",right,1,123,21,f,y,y,2019_Apr_30_1256,2AFC_task,59.96016244394088,
stimuli/rgb_scene000005_render000000.png,stimuli/rgb_scene000005_render000003.png,1,167,377,23,"[0, 1]",right,1,123,21,f,y,y,2019_Apr_30_1256,2AFC_task,59.96016244394088,
stimuli/rgb_scene000095_render000003.png,stimuli/rgb_scene000095_render000004.png,1,168,378,99,"[0, 1]",right,1,123,21,f,y,y,2019_Apr_30_1256,2AFC_task,59.96016244394088,
stimuli/rgb_scene000090_render000000.png,stimuli/rgb_scene000090_render000006.png,1,169,379,68,"[1, 0]",left,1,123,21,f,y,y,2019_Apr_30_1256,2AFC_task,59.96016244394088,
stimuli/rgb_scene000146_render000004.png,stimuli/rgb_scene000146_render000006.png,1,170,380,187,"[1, 0]",left,1,123,21,f,y,y,2019_Apr_30_1256,2AFC_task,59.96016244394088,
stimuli/rgb_scene000102_render000001.png,stimuli/rgb_scene000102_render000002.png,1,171,381,132,"[1, 0]",left,1,123,21,f,y,y,2019_Apr_30_1256,2AFC_task,59.96016244394088,
stimuli/rgb_scene000146_render000000.png,stimuli/rgb_scene000146_render000002.png,1,172,382,169,"[1, 0]",left,1,123,21,f,y,y,2019_Apr_30_1256,2AFC_task,59.96016244394088,
stimuli/rgb_scene000113_render000003.png,stimuli/rgb_scene000113_render000004.png,1,173,383,162,"[0, 1]",right,1,123,21,f,y,y,2019_Apr_30_1256,2AFC_task,59.96016244394088,
stimuli/rgb_scene000090_render000001.png,stimuli/rgb_scene000090_render000003.png,1,174,384,70,"[0, 1]",right,1,123,21,f,y,y,2019_Apr_30_1256,2AFC_task,59.96016244394088,
stimuli/rgb_scene000012_render000003.png,stimuli/rgb_scene000012_render000006.png,1,175,385,59,"[0, 1]",right,1,123,21,f,y,y,2019_Apr_30_1256,2AFC_task,59.96016244394088,
stimuli/rgb_scene000096_render000000.png,stimuli/rgb_scene000096_render000005.png,1,176,386,109,"[1, 0]",left,1,123,21,f,y,y,2019_Apr_30_1256,2AFC_task,59.96016244394088,
stimuli/rgb_scene000005_render000000.png,stimuli/rgb_scene000005_render000001.png,1,177,387,21,"[1, 0]",left,1,123,21,f,y,y,2019_Apr_30_1256,2AFC_task,59.96016244394088,
stimuli/rgb_scene000096_render000002.png,stimuli/rgb_scene000096_render000003.png,1,178,388,116,"[0, 1]",right,1,123,21,f,y,y,2019_Apr_30_1256,2AFC_task,59.96016244394088,
stimuli/rgb_scene000004_render000001.png,stimuli/rgb_scene000004_render000006.png,1,179,389,10,"[0, 1]",right,1,123,21,f,y,y,2019_Apr_30_1256,2AFC_task,59.96016244394088,
stimuli/rgb_scene000090_render000005.png,stimuli/rgb_scene000090_render000006.png,1,180,390,83,"[0, 1]",left,0,123,21,f,y,y,2019_Apr_30_1256,2AFC_task,59.96016244394088,
stimuli/rgb_scene000012_render000000.png,stimuli/rgb_scene000012_render000006.png,1,181,391,47,"[1, 0]",left,1,123,21,f,y,y,2019_Apr_30_1256,2AFC_task,59.96016244394088,
stimuli/rgb_scene000004_render000004.png,stimuli/rgb_scene000004_render000006.png,1,182,392,19,"[0, 1]",right,1,123,21,f,y,y,2019_Apr_30_1256,2AFC_task,59.96016244394088,
stimuli/rgb_scene000005_render000001.png,stimuli/rgb_scene000005_render000002.png,1,183,393,27,"[0, 1]",right,1,123,21,f,y,y,2019_Apr_30_1256,2AFC_task,59.96016244394088,
stimuli/rgb_scene000012_render000001.png,stimuli/rgb_scene000012_render000004.png,1,184,394,50,"[0, 1]",right,1,123,21,f,y,y,2019_Apr_30_1256,2AFC_task,59.96016244394088,
stimuli/rgb_scene000095_render000001.png,stimuli/rgb_scene000095_render000003.png,1,185,395,91,"[1, 0]",left,1,123,21,f,y,y,2019_Apr_30_1256,2AFC_task,59.96016244394088,
stimuli/rgb_scene000090_render000002.png,stimuli/rgb_scene000090_render000004.png,1,186,396,75,"[1, 0]",left,1,123,21,f,y,y,2019_Apr_30_1256,2AFC_task,59.96016244394088,
stimuli/rgb_scene000005_render000001.png,stimuli/rgb_scene000005_render000005.png,1,187,397,30,"[0, 1]",right,1,123,21,f,y,y,2019_Apr_30_1256,2AFC_task,59.96016244394088,
stimuli/rgb_scene000012_render000001.png,stimuli/rgb_scene000012_render000003.png,1,188,398,49,"[1, 0]",left,1,123,21,f,y,y,2019_Apr_30_1256,2AFC_task,59.96016244394088,
stimuli/rgb_scene000096_render000003.png,stimuli/rgb_scene000096_render000006.png,1,189,399,122,"[1, 0]",left,1,123,21,f,y,y,2019_Apr_30_1256,2AFC_task,59.96016244394088,
stimuli/rgb_scene000012_render000002.png,stimuli/rgb_scene000012_render000005.png,1,190,400,55,"[0, 1]",right,1,123,21,f,y,y,2019_Apr_30_1256,2AFC_task,59.96016244394088,
stimuli/rgb_scene000004_render000000.png,stimuli/rgb_scene000004_render000002.png,1,191,401,1,"[1, 0]",left,1,123,21,f,y,y,2019_Apr_30_1256,2AFC_task,59.96016244394088,
stimuli/rgb_scene000195_render000001.png,stimuli/rgb_scene000195_render000003.png,1,192,402,196,"[0, 1]",right,1,123,21,f,y,y,2019_Apr_30_1256,2AFC_task,59.96016244394088,
stimuli/rgb_scene000146_render000002.png,stimuli/rgb_scene000146_render000003.png,1,193,403,179,"[0, 1]",right,1,123,21,f,y,y,2019_Apr_30_1256,2AFC_task,59.96016244394088,
stimuli/rgb_scene000090_render000001.png,stimuli/rgb_scene000090_render000006.png,1,194,404,73,"[0, 1]",right,1,123,21,f,y,y,2019_Apr_30_1256,2AFC_task,59.96016244394088,
stimuli/rgb_scene000095_render000000.png,stimuli/rgb_scene000095_render000005.png,1,195,405,88,"[0, 1]",right,1,123,21,f,y,y,2019_Apr_30_1256,2AFC_task,59.96016244394088,
stimuli/rgb_scene000096_render000002.png,stimuli/rgb_scene000096_render000005.png,1,196,406,118,"[0, 1]",right,1,123,21,f,y,y,2019_Apr_30_1256,2AFC_task,59.96016244394088,
stimuli/rgb_scene000005_render000000.png,stimuli/rgb_scene000005_render000005.png,1,197,407,25,"[1, 0]",left,1,123,21,f,y,y,2019_Apr_30_1256,2AFC_task,59.96016244394088,
stimuli/rgb_scene000090_render000002.png,stimuli/rgb_scene000090_render000005.png,1,198,408,76,"[0, 1]",right,1,123,21,f,y,y,2019_Apr_30_1256,2AFC_task,59.96016244394088,
stimuli/rgb_scene000095_render000000.png,stimuli/rgb_scene000095_render000001.png,1,199,409,84,"[1, 0]",left,1,123,21,f,y,y,2019_Apr_30_1256,2AFC_task,59.96016244394088,
stimuli/rgb_scene000095_render000000.png,stimuli/rgb_scene000095_render000006.png,1,200,410,89,"[1, 0]",left,1,123,21,f,y,y,2019_Apr_30_1256,2AFC_task,59.96016244394088,
stimuli/rgb_scene000090_render000004.png,stimuli/rgb_scene000090_render000006.png,1,201,411,82,"[0, 1]",left,0,123,21,f,y,y,2019_Apr_30_1256,2AFC_task,59.96016244394088,
stimuli/rgb_scene000096_render000001.png,stimuli/rgb_scene000096_render000004.png,1,202,412,113,"[0, 1]",right,1,123,21,f,y,y,2019_Apr_30_1256,2AFC_task,59.96016244394088,
stimuli/rgb_scene000005_render000003.png,stimuli/rgb_scene000005_render000006.png,1,203,413,38,"[0, 1]",left,0,123,21,f,y,y,2019_Apr_30_1256,2AFC_task,59.96016244394088,
stimuli/rgb_scene000195_render000004.png,stimuli/rgb_scene000195_render000005.png,1,204,414,207,"[1, 0]",right,0,123,21,f,y,y,2019_Apr_30_1256,2AFC_task,59.96016244394088,
stimuli/rgb_scene000102_render000001.png,stimuli/rgb_scene000102_render000006.png,1,205,415,136,"[0, 1]",right,1,123,21,f,y,y,2019_Apr_30_1256,2AFC_task,59.96016244394088,
stimuli/rgb_scene000095_render000004.png,stimuli/rgb_scene000095_render000006.png,1,206,416,103,"[0, 1]",right,1,123,21,f,y,y,2019_Apr_30_1256,2AFC_task,59.96016244394088,
stimuli/rgb_scene000195_render000000.png,stimuli/rgb_scene000195_render000001.png,1,207,417,189,"[0, 1]",right,1,123,21,f,y,y,2019_Apr_30_1256,2AFC_task,59.96016244394088,
stimuli/rgb_scene000004_render000001.png,stimuli/rgb_scene000004_render000002.png,1,208,418,6,"[1, 0]",left,1,123,21,f,y,y,2019_Apr_30_1256,2AFC_task,59.96016244394088,
stimuli/rgb_scene000096_render000004.png,stimuli/rgb_scene000096_render000005.png,1,209,419,123,"[1, 0]",left,1,123,21,f,y,y,2019_Apr_30_1256,2AFC_task,59.96016244394088,
