stimOne,stimTwo,trials_1.thisRepN,trials_1.thisTrialN,trials_1.thisN,trials_1.thisIndex,presentation_positions,resp_key,corresponding_image,participant ID (two digits, e.g. 01),age,gender (m/f/-),normal or corrected-to-normal vision (y/n),normal colour vision (y/n),date,expName,frameRate,
stimuli/rgb_scene000012_render000000.png,stimuli/rgb_scene000012_render000004.png,0,0,0,45,"[1, 0]",left,1,144,21,f,y,y,2019_May_02_1544,2AFC_task,59.90220318340751,
stimuli/rgb_scene000096_render000001.png,stimuli/rgb_scene000096_render000002.png,0,1,1,111,"[1, 0]",left,1,144,21,f,y,y,2019_May_02_1544,2AFC_task,59.90220318340751,
stimuli/rgb_scene000004_render000004.png,stimuli/rgb_scene000004_render000005.png,0,2,2,18,"[0, 1]",right,1,144,21,f,y,y,2019_May_02_1544,2AFC_task,59.90220318340751,
stimuli/rgb_scene000090_render000003.png,stimuli/rgb_scene000090_render000006.png,0,3,3,80,"[1, 0]",right,0,144,21,f,y,y,2019_May_02_1544,2AFC_task,59.90220318340751,
stimuli/rgb_scene000102_render000000.png,stimuli/rgb_scene000102_render000002.png,0,4,4,127,"[0, 1]",right,1,144,21,f,y,y,2019_May_02_1544,2AFC_task,59.90220318340751,
stimuli/rgb_scene000012_render000000.png,stimuli/rgb_scene000012_render000005.png,0,5,5,46,"[1, 0]",left,1,144,21,f,y,y,2019_May_02_1544,2AFC_task,59.90220318340751,
stimuli/rgb_scene000146_render000003.png,stimuli/rgb_scene000146_render000006.png,0,6,6,185,"[0, 1]",left,0,144,21,f,y,y,2019_May_02_1544,2AFC_task,59.90220318340751,
stimuli/rgb_scene000096_render000000.png,stimuli/rgb_scene000096_render000005.png,0,7,7,109,"[1, 0]",left,1,144,21,f,y,y,2019_May_02_1544,2AFC_task,59.90220318340751,
stimuli/rgb_scene000195_render000000.png,stimuli/rgb_scene000195_render000005.png,0,8,8,193,"[0, 1]",right,1,144,21,f,y,y,2019_May_02_1544,2AFC_task,59.90220318340751,
stimuli/rgb_scene000095_render000002.png,stimuli/rgb_scene000095_render000005.png,0,9,9,97,"[1, 0]",left,1,144,21,f,y,y,2019_May_02_1544,2AFC_task,59.90220318340751,
stimuli/rgb_scene000102_render000002.png,stimuli/rgb_scene000102_render000003.png,0,10,10,137,"[0, 1]",right,1,144,21,f,y,y,2019_May_02_1544,2AFC_task,59.90220318340751,
stimuli/rgb_scene000195_render000001.png,stimuli/rgb_scene000195_render000002.png,0,11,11,195,"[0, 1]",right,1,144,21,f,y,y,2019_May_02_1544,2AFC_task,59.90220318340751,
stimuli/rgb_scene000113_render000002.png,stimuli/rgb_scene000113_render000006.png,0,12,12,161,"[1, 0]",left,1,144,21,f,y,y,2019_May_02_1544,2AFC_task,59.90220318340751,
stimuli/rgb_scene000090_render000002.png,stimuli/rgb_scene000090_render000005.png,0,13,13,76,"[1, 0]",left,1,144,21,f,y,y,2019_May_02_1544,2AFC_task,59.90220318340751,
stimuli/rgb_scene000012_render000004.png,stimuli/rgb_scene000012_render000006.png,0,14,14,61,"[0, 1]",left,0,144,21,f,y,y,2019_May_02_1544,2AFC_task,59.90220318340751,
stimuli/rgb_scene000113_render000004.png,stimuli/rgb_scene000113_render000005.png,0,15,15,165,"[1, 0]",right,0,144,21,f,y,y,2019_May_02_1544,2AFC_task,59.90220318340751,
stimuli/rgb_scene000090_render000002.png,stimuli/rgb_scene000090_render000004.png,0,16,16,75,"[0, 1]",left,0,144,21,f,y,y,2019_May_02_1544,2AFC_task,59.90220318340751,
stimuli/rgb_scene000005_render000000.png,stimuli/rgb_scene000005_render000002.png,0,17,17,22,"[1, 0]",left,1,144,21,f,y,y,2019_May_02_1544,2AFC_task,59.90220318340751,
stimuli/rgb_scene000096_render000002.png,stimuli/rgb_scene000096_render000006.png,0,18,18,119,"[1, 0]",left,1,144,21,f,y,y,2019_May_02_1544,2AFC_task,59.90220318340751,
stimuli/rgb_scene000004_render000000.png,stimuli/rgb_scene000004_render000001.png,0,19,19,0,"[1, 0]",left,1,144,21,f,y,y,2019_May_02_1544,2AFC_task,59.90220318340751,
stimuli/rgb_scene000113_render000002.png,stimuli/rgb_scene000113_render000004.png,0,20,20,159,"[1, 0]",left,1,144,21,f,y,y,2019_May_02_1544,2AFC_task,59.90220318340751,
stimuli/rgb_scene000090_render000004.png,stimuli/rgb_scene000090_render000006.png,0,21,21,82,"[0, 1]",left,0,144,21,f,y,y,2019_May_02_1544,2AFC_task,59.90220318340751,
stimuli/rgb_scene000012_render000003.png,stimuli/rgb_scene000012_render000004.png,0,22,22,57,"[0, 1]",right,1,144,21,f,y,y,2019_May_02_1544,2AFC_task,59.90220318340751,
stimuli/rgb_scene000005_render000001.png,stimuli/rgb_scene000005_render000004.png,0,23,23,29,"[0, 1]",right,1,144,21,f,y,y,2019_May_02_1544,2AFC_task,59.90220318340751,
stimuli/rgb_scene000090_render000001.png,stimuli/rgb_scene000090_render000002.png,0,24,24,69,"[0, 1]",left,0,144,21,f,y,y,2019_May_02_1544,2AFC_task,59.90220318340751,
stimuli/rgb_scene000096_render000005.png,stimuli/rgb_scene000096_render000006.png,0,25,25,125,"[0, 1]",right,1,144,21,f,y,y,2019_May_02_1544,2AFC_task,59.90220318340751,
stimuli/rgb_scene000004_render000004.png,stimuli/rgb_scene000004_render000006.png,0,26,26,19,"[1, 0]",left,1,144,21,f,y,y,2019_May_02_1544,2AFC_task,59.90220318340751,
stimuli/rgb_scene000090_render000004.png,stimuli/rgb_scene000090_render000005.png,0,27,27,81,"[0, 1]",left,0,144,21,f,y,y,2019_May_02_1544,2AFC_task,59.90220318340751,
stimuli/rgb_scene000146_render000001.png,stimuli/rgb_scene000146_render000006.png,0,28,28,178,"[0, 1]",right,1,144,21,f,y,y,2019_May_02_1544,2AFC_task,59.90220318340751,
stimuli/rgb_scene000146_render000003.png,stimuli/rgb_scene000146_render000004.png,0,29,29,183,"[0, 1]",left,0,144,21,f,y,y,2019_May_02_1544,2AFC_task,59.90220318340751,
stimuli/rgb_scene000004_render000002.png,stimuli/rgb_scene000004_render000006.png,0,30,30,14,"[1, 0]",left,1,144,21,f,y,y,2019_May_02_1544,2AFC_task,59.90220318340751,
stimuli/rgb_scene000096_render000000.png,stimuli/rgb_scene000096_render000003.png,0,31,31,107,"[0, 1]",right,1,144,21,f,y,y,2019_May_02_1544,2AFC_task,59.90220318340751,
stimuli/rgb_scene000012_render000002.png,stimuli/rgb_scene000012_render000006.png,0,32,32,56,"[1, 0]",left,1,144,21,f,y,y,2019_May_02_1544,2AFC_task,59.90220318340751,
stimuli/rgb_scene000096_render000000.png,stimuli/rgb_scene000096_render000002.png,0,33,33,106,"[1, 0]",left,1,144,21,f,y,y,2019_May_02_1544,2AFC_task,59.90220318340751,
stimuli/rgb_scene000005_render000003.png,stimuli/rgb_scene000005_render000004.png,0,34,34,36,"[1, 0]",right,0,144,21,f,y,y,2019_May_02_1544,2AFC_task,59.90220318340751,
stimuli/rgb_scene000146_render000002.png,stimuli/rgb_scene000146_render000004.png,0,35,35,180,"[1, 0]",left,1,144,21,f,y,y,2019_May_02_1544,2AFC_task,59.90220318340751,
stimuli/rgb_scene000113_render000000.png,stimuli/rgb_scene000113_render000002.png,0,36,36,148,"[0, 1]",right,1,144,21,f,y,y,2019_May_02_1544,2AFC_task,59.90220318340751,
stimuli/rgb_scene000195_render000003.png,stimuli/rgb_scene000195_render000005.png,0,37,37,205,"[1, 0]",right,0,144,21,f,y,y,2019_May_02_1544,2AFC_task,59.90220318340751,
stimuli/rgb_scene000096_render000003.png,stimuli/rgb_scene000096_render000005.png,0,38,38,121,"[0, 1]",right,1,144,21,f,y,y,2019_May_02_1544,2AFC_task,59.90220318340751,
stimuli/rgb_scene000146_render000002.png,stimuli/rgb_scene000146_render000006.png,0,39,39,182,"[1, 0]",right,0,144,21,f,y,y,2019_May_02_1544,2AFC_task,59.90220318340751,
stimuli/rgb_scene000195_render000002.png,stimuli/rgb_scene000195_render000006.png,0,40,40,203,"[1, 0]",right,0,144,21,f,y,y,2019_May_02_1544,2AFC_task,59.90220318340751,
stimuli/rgb_scene000095_render000000.png,stimuli/rgb_scene000095_render000006.png,0,41,41,89,"[0, 1]",right,1,144,21,f,y,y,2019_May_02_1544,2AFC_task,59.90220318340751,
stimuli/rgb_scene000113_render000001.png,stimuli/rgb_scene000113_render000006.png,0,42,42,157,"[0, 1]",right,1,144,21,f,y,y,2019_May_02_1544,2AFC_task,59.90220318340751,
stimuli/rgb_scene000102_render000000.png,stimuli/rgb_scene000102_render000005.png,0,43,43,130,"[1, 0]",left,1,144,21,f,y,y,2019_May_02_1544,2AFC_task,59.90220318340751,
stimuli/rgb_scene000090_render000000.png,stimuli/rgb_scene000090_render000005.png,0,44,44,67,"[1, 0]",left,1,144,21,f,y,y,2019_May_02_1544,2AFC_task,59.90220318340751,
stimuli/rgb_scene000090_render000000.png,stimuli/rgb_scene000090_render000003.png,0,45,45,65,"[1, 0]",left,1,144,21,f,y,y,2019_May_02_1544,2AFC_task,59.90220318340751,
stimuli/rgb_scene000146_render000003.png,stimuli/rgb_scene000146_render000005.png,0,46,46,184,"[1, 0]",right,0,144,21,f,y,y,2019_May_02_1544,2AFC_task,59.90220318340751,
stimuli/rgb_scene000195_render000002.png,stimuli/rgb_scene000195_render000003.png,0,47,47,200,"[1, 0]",right,0,144,21,f,y,y,2019_May_02_1544,2AFC_task,59.90220318340751,
stimuli/rgb_scene000096_render000000.png,stimuli/rgb_scene000096_render000001.png,0,48,48,105,"[1, 0]",left,1,144,21,f,y,y,2019_May_02_1544,2AFC_task,59.90220318340751,
stimuli/rgb_scene000195_render000001.png,stimuli/rgb_scene000195_render000004.png,0,49,49,197,"[0, 1]",left,0,144,21,f,y,y,2019_May_02_1544,2AFC_task,59.90220318340751,
stimuli/rgb_scene000113_render000005.png,stimuli/rgb_scene000113_render000006.png,0,50,50,167,"[0, 1]",left,0,144,21,f,y,y,2019_May_02_1544,2AFC_task,59.90220318340751,
stimuli/rgb_scene000005_render000000.png,stimuli/rgb_scene000005_render000005.png,0,51,51,25,"[0, 1]",right,1,144,21,f,y,y,2019_May_02_1544,2AFC_task,59.90220318340751,
stimuli/rgb_scene000012_render000001.png,stimuli/rgb_scene000012_render000002.png,0,52,52,48,"[0, 1]",right,1,144,21,f,y,y,2019_May_02_1544,2AFC_task,59.90220318340751,
stimuli/rgb_scene000004_render000002.png,stimuli/rgb_scene000004_render000005.png,0,53,53,13,"[0, 1]",right,1,144,21,f,y,y,2019_May_02_1544,2AFC_task,59.90220318340751,
stimuli/rgb_scene000005_render000002.png,stimuli/rgb_scene000005_render000005.png,0,54,54,34,"[1, 0]",right,0,144,21,f,y,y,2019_May_02_1544,2AFC_task,59.90220318340751,
stimuli/rgb_scene000113_render000001.png,stimuli/rgb_scene000113_render000005.png,0,55,55,156,"[0, 1]",right,1,144,21,f,y,y,2019_May_02_1544,2AFC_task,59.90220318340751,
stimuli/rgb_scene000012_render000002.png,stimuli/rgb_scene000012_render000004.png,0,56,56,54,"[1, 0]",left,1,144,21,f,y,y,2019_May_02_1544,2AFC_task,59.90220318340751,
stimuli/rgb_scene000102_render000003.png,stimuli/rgb_scene000102_render000004.png,0,57,57,141,"[0, 1]",right,1,144,21,f,y,y,2019_May_02_1544,2AFC_task,59.90220318340751,
stimuli/rgb_scene000102_render000003.png,stimuli/rgb_scene000102_render000005.png,0,58,58,142,"[0, 1]",right,1,144,21,f,y,y,2019_May_02_1544,2AFC_task,59.90220318340751,
stimuli/rgb_scene000146_render000002.png,stimuli/rgb_scene000146_render000005.png,0,59,59,181,"[0, 1]",right,1,144,21,f,y,y,2019_May_02_1544,2AFC_task,59.90220318340751,
stimuli/rgb_scene000012_render000005.png,stimuli/rgb_scene000012_render000006.png,0,60,60,62,"[0, 1]",left,0,144,21,f,y,y,2019_May_02_1544,2AFC_task,59.90220318340751,
stimuli/rgb_scene000004_render000005.png,stimuli/rgb_scene000004_render000006.png,0,61,61,20,"[0, 1]",left,0,144,21,f,y,y,2019_May_02_1544,2AFC_task,59.90220318340751,
stimuli/rgb_scene000102_render000004.png,stimuli/rgb_scene000102_render000006.png,0,62,62,145,"[1, 0]",left,1,144,21,f,y,y,2019_May_02_1544,2AFC_task,59.90220318340751,
stimuli/rgb_scene000090_render000001.png,stimuli/rgb_scene000090_render000006.png,0,63,63,73,"[0, 1]",left,0,144,21,f,y,y,2019_May_02_1544,2AFC_task,59.90220318340751,
stimuli/rgb_scene000096_render000002.png,stimuli/rgb_scene000096_render000004.png,0,64,64,117,"[1, 0]",left,1,144,21,f,y,y,2019_May_02_1544,2AFC_task,59.90220318340751,
stimuli/rgb_scene000096_render000001.png,stimuli/rgb_scene000096_render000004.png,0,65,65,113,"[0, 1]",right,1,144,21,f,y,y,2019_May_02_1544,2AFC_task,59.90220318340751,
stimuli/rgb_scene000113_render000000.png,stimuli/rgb_scene000113_render000004.png,0,66,66,150,"[0, 1]",right,1,144,21,f,y,y,2019_May_02_1544,2AFC_task,59.90220318340751,
stimuli/rgb_scene000113_render000000.png,stimuli/rgb_scene000113_render000005.png,0,67,67,151,"[1, 0]",left,1,144,21,f,y,y,2019_May_02_1544,2AFC_task,59.90220318340751,
stimuli/rgb_scene000102_render000002.png,stimuli/rgb_scene000102_render000005.png,0,68,68,139,"[0, 1]",right,1,144,21,f,y,y,2019_May_02_1544,2AFC_task,59.90220318340751,
stimuli/rgb_scene000005_render000003.png,stimuli/rgb_scene000005_render000006.png,0,69,69,38,"[0, 1]",left,0,144,21,f,y,y,2019_May_02_1544,2AFC_task,59.90220318340751,
stimuli/rgb_scene000102_render000000.png,stimuli/rgb_scene000102_render000006.png,0,70,70,131,"[1, 0]",left,1,144,21,f,y,y,2019_May_02_1544,2AFC_task,59.90220318340751,
stimuli/rgb_scene000004_render000000.png,stimuli/rgb_scene000004_render000004.png,0,71,71,3,"[0, 1]",right,1,144,21,f,y,y,2019_May_02_1544,2AFC_task,59.90220318340751,
stimuli/rgb_scene000195_render000003.png,stimuli/rgb_scene000195_render000006.png,0,72,72,206,"[1, 0]",right,0,144,21,f,y,y,2019_May_02_1544,2AFC_task,59.90220318340751,
stimuli/rgb_scene000095_render000001.png,stimuli/rgb_scene000095_render000006.png,0,73,73,94,"[1, 0]",left,1,144,21,f,y,y,2019_May_02_1544,2AFC_task,59.90220318340751,
stimuli/rgb_scene000195_render000003.png,stimuli/rgb_scene000195_render000004.png,0,74,74,204,"[0, 1]",left,0,144,21,f,y,y,2019_May_02_1544,2AFC_task,59.90220318340751,
stimuli/rgb_scene000096_render000000.png,stimuli/rgb_scene000096_render000006.png,0,75,75,110,"[1, 0]",left,1,144,21,f,y,y,2019_May_02_1544,2AFC_task,59.90220318340751,
stimuli/rgb_scene000012_render000000.png,stimuli/rgb_scene000012_render000001.png,0,76,76,42,"[0, 1]",right,1,144,21,f,y,y,2019_May_02_1544,2AFC_task,59.90220318340751,
stimuli/rgb_scene000004_render000001.png,stimuli/rgb_scene000004_render000002.png,0,77,77,6,"[1, 0]",left,1,144,21,f,y,y,2019_May_02_1544,2AFC_task,59.90220318340751,
stimuli/rgb_scene000113_render000002.png,stimuli/rgb_scene000113_render000005.png,0,78,78,160,"[1, 0]",left,1,144,21,f,y,y,2019_May_02_1544,2AFC_task,59.90220318340751,
stimuli/rgb_scene000146_render000001.png,stimuli/rgb_scene000146_render000005.png,0,79,79,177,"[0, 1]",right,1,144,21,f,y,y,2019_May_02_1544,2AFC_task,59.90220318340751,
stimuli/rgb_scene000004_render000003.png,stimuli/rgb_scene000004_render000004.png,0,80,80,15,"[1, 0]",left,1,144,21,f,y,y,2019_May_02_1544,2AFC_task,59.90220318340751,
stimuli/rgb_scene000095_render000000.png,stimuli/rgb_scene000095_render000001.png,0,81,81,84,"[0, 1]",right,1,144,21,f,y,y,2019_May_02_1544,2AFC_task,59.90220318340751,
stimuli/rgb_scene000146_render000000.png,stimuli/rgb_scene000146_render000002.png,0,82,82,169,"[1, 0]",left,1,144,21,f,y,y,2019_May_02_1544,2AFC_task,59.90220318340751,
stimuli/rgb_scene000195_render000000.png,stimuli/rgb_scene000195_render000001.png,0,83,83,189,"[0, 1]",right,1,144,21,f,y,y,2019_May_02_1544,2AFC_task,59.90220318340751,
stimuli/rgb_scene000005_render000004.png,stimuli/rgb_scene000005_render000006.png,0,84,84,40,"[1, 0]",right,0,144,21,f,y,y,2019_May_02_1544,2AFC_task,59.90220318340751,
stimuli/rgb_scene000012_render000001.png,stimuli/rgb_scene000012_render000003.png,0,85,85,49,"[1, 0]",left,1,144,21,f,y,y,2019_May_02_1544,2AFC_task,59.90220318340751,
stimuli/rgb_scene000090_render000003.png,stimuli/rgb_scene000090_render000005.png,0,86,86,79,"[1, 0]",right,0,144,21,f,y,y,2019_May_02_1544,2AFC_task,59.90220318340751,
stimuli/rgb_scene000095_render000000.png,stimuli/rgb_scene000095_render000005.png,0,87,87,88,"[0, 1]",right,1,144,21,f,y,y,2019_May_02_1544,2AFC_task,59.90220318340751,
stimuli/rgb_scene000146_render000004.png,stimuli/rgb_scene000146_render000006.png,0,88,88,187,"[0, 1]",left,0,144,21,f,y,y,2019_May_02_1544,2AFC_task,59.90220318340751,
stimuli/rgb_scene000004_render000002.png,stimuli/rgb_scene000004_render000003.png,0,89,89,11,"[1, 0]",left,1,144,21,f,y,y,2019_May_02_1544,2AFC_task,59.90220318340751,
stimuli/rgb_scene000004_render000002.png,stimuli/rgb_scene000004_render000004.png,0,90,90,12,"[0, 1]",right,1,144,21,f,y,y,2019_May_02_1544,2AFC_task,59.90220318340751,
stimuli/rgb_scene000195_render000005.png,stimuli/rgb_scene000195_render000006.png,0,91,91,209,"[1, 0]",right,0,144,21,f,y,y,2019_May_02_1544,2AFC_task,59.90220318340751,
stimuli/rgb_scene000102_render000001.png,stimuli/rgb_scene000102_render000002.png,0,92,92,132,"[1, 0]",left,1,144,21,f,y,y,2019_May_02_1544,2AFC_task,59.90220318340751,
stimuli/rgb_scene000005_render000001.png,stimuli/rgb_scene000005_render000005.png,0,93,93,30,"[1, 0]",left,1,144,21,f,y,y,2019_May_02_1544,2AFC_task,59.90220318340751,
stimuli/rgb_scene000113_render000003.png,stimuli/rgb_scene000113_render000005.png,0,94,94,163,"[1, 0]",left,1,144,21,f,y,y,2019_May_02_1544,2AFC_task,59.90220318340751,
stimuli/rgb_scene000102_render000003.png,stimuli/rgb_scene000102_render000006.png,0,95,95,143,"[1, 0]",left,1,144,21,f,y,y,2019_May_02_1544,2AFC_task,59.90220318340751,
stimuli/rgb_scene000113_render000003.png,stimuli/rgb_scene000113_render000004.png,0,96,96,162,"[1, 0]",left,1,144,21,f,y,y,2019_May_02_1544,2AFC_task,59.90220318340751,
stimuli/rgb_scene000146_render000000.png,stimuli/rgb_scene000146_render000003.png,0,97,97,170,"[0, 1]",right,1,144,21,f,y,y,2019_May_02_1544,2AFC_task,59.90220318340751,
stimuli/rgb_scene000005_render000004.png,stimuli/rgb_scene000005_render000005.png,0,98,98,39,"[0, 1]",left,0,144,21,f,y,y,2019_May_02_1544,2AFC_task,59.90220318340751,
stimuli/rgb_scene000012_render000001.png,stimuli/rgb_scene000012_render000006.png,0,99,99,52,"[0, 1]",left,0,144,21,f,y,y,2019_May_02_1544,2AFC_task,59.90220318340751,
stimuli/rgb_scene000004_render000001.png,stimuli/rgb_scene000004_render000006.png,0,100,100,10,"[0, 1]",right,1,144,21,f,y,y,2019_May_02_1544,2AFC_task,59.90220318340751,
stimuli/rgb_scene000102_render000005.png,stimuli/rgb_scene000102_render000006.png,0,101,101,146,"[0, 1]",left,0,144,21,f,y,y,2019_May_02_1544,2AFC_task,59.90220318340751,
stimuli/rgb_scene000090_render000001.png,stimuli/rgb_scene000090_render000005.png,0,102,102,72,"[0, 1]",left,0,144,21,f,y,y,2019_May_02_1544,2AFC_task,59.90220318340751,
stimuli/rgb_scene000090_render000002.png,stimuli/rgb_scene000090_render000006.png,0,103,103,77,"[1, 0]",right,0,144,21,f,y,y,2019_May_02_1544,2AFC_task,59.90220318340751,
stimuli/rgb_scene000195_render000002.png,stimuli/rgb_scene000195_render000005.png,0,104,104,202,"[1, 0]",left,1,144,21,f,y,y,2019_May_02_1544,2AFC_task,59.90220318340751,
stimuli/rgb_scene000095_render000003.png,stimuli/rgb_scene000095_render000005.png,0,105,105,100,"[0, 1]",right,1,144,21,f,y,y,2019_May_02_1544,2AFC_task,59.90220318340751,
stimuli/rgb_scene000012_render000000.png,stimuli/rgb_scene000012_render000002.png,0,106,106,43,"[1, 0]",left,1,144,21,f,y,y,2019_May_02_1544,2AFC_task,59.90220318340751,
stimuli/rgb_scene000090_render000005.png,stimuli/rgb_scene000090_render000006.png,0,107,107,83,"[1, 0]",right,0,144,21,f,y,y,2019_May_02_1544,2AFC_task,59.90220318340751,
stimuli/rgb_scene000012_render000003.png,stimuli/rgb_scene000012_render000005.png,0,108,108,58,"[1, 0]",left,1,144,21,f,y,y,2019_May_02_1544,2AFC_task,59.90220318340751,
stimuli/rgb_scene000005_render000003.png,stimuli/rgb_scene000005_render000005.png,0,109,109,37,"[1, 0]",left,1,144,21,f,y,y,2019_May_02_1544,2AFC_task,59.90220318340751,
stimuli/rgb_scene000146_render000001.png,stimuli/rgb_scene000146_render000003.png,0,110,110,175,"[0, 1]",right,1,144,21,f,y,y,2019_May_02_1544,2AFC_task,59.90220318340751,
stimuli/rgb_scene000113_render000000.png,stimuli/rgb_scene000113_render000001.png,0,111,111,147,"[0, 1]",right,1,144,21,f,y,y,2019_May_02_1544,2AFC_task,59.90220318340751,
stimuli/rgb_scene000195_render000000.png,stimuli/rgb_scene000195_render000003.png,0,112,112,191,"[0, 1]",right,1,144,21,f,y,y,2019_May_02_1544,2AFC_task,59.90220318340751,
stimuli/rgb_scene000146_render000004.png,stimuli/rgb_scene000146_render000005.png,0,113,113,186,"[0, 1]",left,0,144,21,f,y,y,2019_May_02_1544,2AFC_task,59.90220318340751,
stimuli/rgb_scene000095_render000002.png,stimuli/rgb_scene000095_render000003.png,0,114,114,95,"[0, 1]",right,1,144,21,f,y,y,2019_May_02_1544,2AFC_task,59.90220318340751,
stimuli/rgb_scene000146_render000000.png,stimuli/rgb_scene000146_render000004.png,0,115,115,171,"[0, 1]",right,1,144,21,f,y,y,2019_May_02_1544,2AFC_task,59.90220318340751,
stimuli/rgb_scene000004_render000003.png,stimuli/rgb_scene000004_render000006.png,0,116,116,17,"[0, 1]",right,1,144,21,f,y,y,2019_May_02_1544,2AFC_task,59.90220318340751,
stimuli/rgb_scene000012_render000004.png,stimuli/rgb_scene000012_render000005.png,0,117,117,60,"[0, 1]",left,0,144,21,f,y,y,2019_May_02_1544,2AFC_task,59.90220318340751,
stimuli/rgb_scene000004_render000003.png,stimuli/rgb_scene000004_render000005.png,0,118,118,16,"[0, 1]",right,1,144,21,f,y,y,2019_May_02_1544,2AFC_task,59.90220318340751,
stimuli/rgb_scene000090_render000000.png,stimuli/rgb_scene000090_render000001.png,0,119,119,63,"[0, 1]",right,1,144,21,f,y,y,2019_May_02_1544,2AFC_task,59.90220318340751,
stimuli/rgb_scene000012_render000001.png,stimuli/rgb_scene000012_render000004.png,0,120,120,50,"[0, 1]",right,1,144,21,f,y,y,2019_May_02_1544,2AFC_task,59.90220318340751,
stimuli/rgb_scene000090_render000000.png,stimuli/rgb_scene000090_render000006.png,0,121,121,68,"[0, 1]",right,1,144,21,f,y,y,2019_May_02_1544,2AFC_task,59.90220318340751,
stimuli/rgb_scene000012_render000001.png,stimuli/rgb_scene000012_render000005.png,0,122,122,51,"[1, 0]",left,1,144,21,f,y,y,2019_May_02_1544,2AFC_task,59.90220318340751,
stimuli/rgb_scene000096_render000001.png,stimuli/rgb_scene000096_render000006.png,0,123,123,115,"[0, 1]",right,1,144,21,f,y,y,2019_May_02_1544,2AFC_task,59.90220318340751,
stimuli/rgb_scene000146_render000005.png,stimuli/rgb_scene000146_render000006.png,0,124,124,188,"[1, 0]",right,0,144,21,f,y,y,2019_May_02_1544,2AFC_task,59.90220318340751,
stimuli/rgb_scene000102_render000001.png,stimuli/rgb_scene000102_render000003.png,0,125,125,133,"[0, 1]",right,1,144,21,f,y,y,2019_May_02_1544,2AFC_task,59.90220318340751,
stimuli/rgb_scene000005_render000005.png,stimuli/rgb_scene000005_render000006.png,0,126,126,41,"[1, 0]",right,0,144,21,f,y,y,2019_May_02_1544,2AFC_task,59.90220318340751,
stimuli/rgb_scene000004_render000000.png,stimuli/rgb_scene000004_render000003.png,0,127,127,2,"[1, 0]",left,1,144,21,f,y,y,2019_May_02_1544,2AFC_task,59.90220318340751,
stimuli/rgb_scene000195_render000002.png,stimuli/rgb_scene000195_render000004.png,0,128,128,201,"[0, 1]",right,1,144,21,f,y,y,2019_May_02_1544,2AFC_task,59.90220318340751,
stimuli/rgb_scene000012_render000002.png,stimuli/rgb_scene000012_render000003.png,0,129,129,53,"[0, 1]",right,1,144,21,f,y,y,2019_May_02_1544,2AFC_task,59.90220318340751,
stimuli/rgb_scene000102_render000000.png,stimuli/rgb_scene000102_render000004.png,0,130,130,129,"[1, 0]",left,1,144,21,f,y,y,2019_May_02_1544,2AFC_task,59.90220318340751,
stimuli/rgb_scene000096_render000004.png,stimuli/rgb_scene000096_render000005.png,0,131,131,123,"[0, 1]",right,1,144,21,f,y,y,2019_May_02_1544,2AFC_task,59.90220318340751,
stimuli/rgb_scene000102_render000004.png,stimuli/rgb_scene000102_render000005.png,0,132,132,144,"[0, 1]",right,1,144,21,f,y,y,2019_May_02_1544,2AFC_task,59.90220318340751,
stimuli/rgb_scene000113_render000001.png,stimuli/rgb_scene000113_render000003.png,0,133,133,154,"[1, 0]",left,1,144,21,f,y,y,2019_May_02_1544,2AFC_task,59.90220318340751,
stimuli/rgb_scene000102_render000001.png,stimuli/rgb_scene000102_render000005.png,0,134,134,135,"[1, 0]",left,1,144,21,f,y,y,2019_May_02_1544,2AFC_task,59.90220318340751,
stimuli/rgb_scene000113_render000000.png,stimuli/rgb_scene000113_render000006.png,0,135,135,152,"[0, 1]",right,1,144,21,f,y,y,2019_May_02_1544,2AFC_task,59.90220318340751,
stimuli/rgb_scene000102_render000001.png,stimuli/rgb_scene000102_render000004.png,0,136,136,134,"[0, 1]",right,1,144,21,f,y,y,2019_May_02_1544,2AFC_task,59.90220318340751,
stimuli/rgb_scene000005_render000000.png,stimuli/rgb_scene000005_render000006.png,0,137,137,26,"[0, 1]",left,0,144,21,f,y,y,2019_May_02_1544,2AFC_task,59.90220318340751,
stimuli/rgb_scene000095_render000002.png,stimuli/rgb_scene000095_render000004.png,0,138,138,96,"[1, 0]",left,1,144,21,f,y,y,2019_May_02_1544,2AFC_task,59.90220318340751,
stimuli/rgb_scene000004_render000001.png,stimuli/rgb_scene000004_render000005.png,0,139,139,9,"[0, 1]",right,1,144,21,f,y,y,2019_May_02_1544,2AFC_task,59.90220318340751,
stimuli/rgb_scene000195_render000004.png,stimuli/rgb_scene000195_render000006.png,0,140,140,208,"[0, 1]",left,0,144,21,f,y,y,2019_May_02_1544,2AFC_task,59.90220318340751,
stimuli/rgb_scene000195_render000000.png,stimuli/rgb_scene000195_render000006.png,0,141,141,194,"[1, 0]",right,0,144,21,f,y,y,2019_May_02_1544,2AFC_task,59.90220318340751,
stimuli/rgb_scene000090_render000000.png,stimuli/rgb_scene000090_render000002.png,0,142,142,64,"[1, 0]",left,1,144,21,f,y,y,2019_May_02_1544,2AFC_task,59.90220318340751,
stimuli/rgb_scene000095_render000001.png,stimuli/rgb_scene000095_render000004.png,0,143,143,92,"[0, 1]",right,1,144,21,f,y,y,2019_May_02_1544,2AFC_task,59.90220318340751,
stimuli/rgb_scene000090_render000002.png,stimuli/rgb_scene000090_render000003.png,0,144,144,74,"[0, 1]",left,0,144,21,f,y,y,2019_May_02_1544,2AFC_task,59.90220318340751,
stimuli/rgb_scene000005_render000001.png,stimuli/rgb_scene000005_render000003.png,0,145,145,28,"[1, 0]",left,1,144,21,f,y,y,2019_May_02_1544,2AFC_task,59.90220318340751,
stimuli/rgb_scene000005_render000001.png,stimuli/rgb_scene000005_render000002.png,0,146,146,27,"[0, 1]",right,1,144,21,f,y,y,2019_May_02_1544,2AFC_task,59.90220318340751,
stimuli/rgb_scene000005_render000002.png,stimuli/rgb_scene000005_render000004.png,0,147,147,33,"[0, 1]",right,1,144,21,f,y,y,2019_May_02_1544,2AFC_task,59.90220318340751,
stimuli/rgb_scene000095_render000005.png,stimuli/rgb_scene000095_render000006.png,0,148,148,104,"[0, 1]",left,0,144,21,f,y,y,2019_May_02_1544,2AFC_task,59.90220318340751,
stimuli/rgb_scene000095_render000004.png,stimuli/rgb_scene000095_render000005.png,0,149,149,102,"[1, 0]",left,1,144,21,f,y,y,2019_May_02_1544,2AFC_task,59.90220318340751,
stimuli/rgb_scene000012_render000003.png,stimuli/rgb_scene000012_render000006.png,0,150,150,59,"[0, 1]",left,0,144,21,f,y,y,2019_May_02_1544,2AFC_task,59.90220318340751,
stimuli/rgb_scene000096_render000001.png,stimuli/rgb_scene000096_render000003.png,0,151,151,112,"[0, 1]",right,1,144,21,f,y,y,2019_May_02_1544,2AFC_task,59.90220318340751,
stimuli/rgb_scene000012_render000002.png,stimuli/rgb_scene000012_render000005.png,0,152,152,55,"[1, 0]",left,1,144,21,f,y,y,2019_May_02_1544,2AFC_task,59.90220318340751,
stimuli/rgb_scene000146_render000000.png,stimuli/rgb_scene000146_render000006.png,0,153,153,173,"[0, 1]",right,1,144,21,f,y,y,2019_May_02_1544,2AFC_task,59.90220318340751,
stimuli/rgb_scene000004_render000001.png,stimuli/rgb_scene000004_render000003.png,0,154,154,7,"[0, 1]",right,1,144,21,f,y,y,2019_May_02_1544,2AFC_task,59.90220318340751,
stimuli/rgb_scene000095_render000000.png,stimuli/rgb_scene000095_render000004.png,0,155,155,87,"[1, 0]",left,1,144,21,f,y,y,2019_May_02_1544,2AFC_task,59.90220318340751,
stimuli/rgb_scene000095_render000001.png,stimuli/rgb_scene000095_render000005.png,0,156,156,93,"[0, 1]",right,1,144,21,f,y,y,2019_May_02_1544,2AFC_task,59.90220318340751,
stimuli/rgb_scene000195_render000000.png,stimuli/rgb_scene000195_render000004.png,0,157,157,192,"[1, 0]",right,0,144,21,f,y,y,2019_May_02_1544,2AFC_task,59.90220318340751,
stimuli/rgb_scene000195_render000001.png,stimuli/rgb_scene000195_render000006.png,0,158,158,199,"[1, 0]",right,0,144,21,f,y,y,2019_May_02_1544,2AFC_task,59.90220318340751,
stimuli/rgb_scene000095_render000002.png,stimuli/rgb_scene000095_render000006.png,0,159,159,98,"[1, 0]",left,1,144,21,f,y,y,2019_May_02_1544,2AFC_task,59.90220318340751,
stimuli/rgb_scene000004_render000001.png,stimuli/rgb_scene000004_render000004.png,0,160,160,8,"[1, 0]",left,1,144,21,f,y,y,2019_May_02_1544,2AFC_task,59.90220318340751,
stimuli/rgb_scene000146_render000002.png,stimuli/rgb_scene000146_render000003.png,0,161,161,179,"[1, 0]",left,1,144,21,f,y,y,2019_May_02_1544,2AFC_task,59.90220318340751,
stimuli/rgb_scene000095_render000001.png,stimuli/rgb_scene000095_render000002.png,0,162,162,90,"[1, 0]",left,1,144,21,f,y,y,2019_May_02_1544,2AFC_task,59.90220318340751,
stimuli/rgb_scene000096_render000000.png,stimuli/rgb_scene000096_render000004.png,0,163,163,108,"[0, 1]",right,1,144,21,f,y,y,2019_May_02_1544,2AFC_task,59.90220318340751,
stimuli/rgb_scene000095_render000000.png,stimuli/rgb_scene000095_render000003.png,0,164,164,86,"[1, 0]",left,1,144,21,f,y,y,2019_May_02_1544,2AFC_task,59.90220318340751,
stimuli/rgb_scene000096_render000002.png,stimuli/rgb_scene000096_render000005.png,0,165,165,118,"[0, 1]",right,1,144,21,f,y,y,2019_May_02_1544,2AFC_task,59.90220318340751,
stimuli/rgb_scene000005_render000000.png,stimuli/rgb_scene000005_render000001.png,0,166,166,21,"[0, 1]",right,1,144,21,f,y,y,2019_May_02_1544,2AFC_task,59.90220318340751,
stimuli/rgb_scene000095_render000000.png,stimuli/rgb_scene000095_render000002.png,0,167,167,85,"[0, 1]",right,1,144,21,f,y,y,2019_May_02_1544,2AFC_task,59.90220318340751,
stimuli/rgb_scene000095_render000003.png,stimuli/rgb_scene000095_render000006.png,0,168,168,101,"[0, 1]",left,0,144,21,f,y,y,2019_May_02_1544,2AFC_task,59.90220318340751,
stimuli/rgb_scene000005_render000002.png,stimuli/rgb_scene000005_render000003.png,0,169,169,32,"[0, 1]",right,1,144,21,f,y,y,2019_May_02_1544,2AFC_task,59.90220318340751,
stimuli/rgb_scene000102_render000001.png,stimuli/rgb_scene000102_render000006.png,0,170,170,136,"[1, 0]",left,1,144,21,f,y,y,2019_May_02_1544,2AFC_task,59.90220318340751,
stimuli/rgb_scene000146_render000001.png,stimuli/rgb_scene000146_render000004.png,0,171,171,176,"[0, 1]",right,1,144,21,f,y,y,2019_May_02_1544,2AFC_task,59.90220318340751,
stimuli/rgb_scene000113_render000003.png,stimuli/rgb_scene000113_render000006.png,0,172,172,164,"[0, 1]",left,0,144,21,f,y,y,2019_May_02_1544,2AFC_task,59.90220318340751,
stimuli/rgb_scene000096_render000001.png,stimuli/rgb_scene000096_render000005.png,0,173,173,114,"[1, 0]",left,1,144,21,f,y,y,2019_May_02_1544,2AFC_task,59.90220318340751,
stimuli/rgb_scene000113_render000001.png,stimuli/rgb_scene000113_render000004.png,0,174,174,155,"[0, 1]",right,1,144,21,f,y,y,2019_May_02_1544,2AFC_task,59.90220318340751,
stimuli/rgb_scene000096_render000004.png,stimuli/rgb_scene000096_render000006.png,0,175,175,124,"[1, 0]",left,1,144,21,f,y,y,2019_May_02_1544,2AFC_task,59.90220318340751,
stimuli/rgb_scene000012_render000000.png,stimuli/rgb_scene000012_render000006.png,0,176,176,47,"[1, 0]",left,1,144,21,f,y,y,2019_May_02_1544,2AFC_task,59.90220318340751,
stimuli/rgb_scene000096_render000003.png,stimuli/rgb_scene000096_render000006.png,0,177,177,122,"[0, 1]",right,1,144,21,f,y,y,2019_May_02_1544,2AFC_task,59.90220318340751,
stimuli/rgb_scene000004_render000000.png,stimuli/rgb_scene000004_render000005.png,0,178,178,4,"[1, 0]",left,1,144,21,f,y,y,2019_May_02_1544,2AFC_task,59.90220318340751,
stimuli/rgb_scene000113_render000002.png,stimuli/rgb_scene000113_render000003.png,0,179,179,158,"[0, 1]",right,1,144,21,f,y,y,2019_May_02_1544,2AFC_task,59.90220318340751,
stimuli/rgb_scene000195_render000001.png,stimuli/rgb_scene000195_render000003.png,0,180,180,196,"[1, 0]",left,1,144,21,f,y,y,2019_May_02_1544,2AFC_task,59.90220318340751,
stimuli/rgb_scene000195_render000000.png,stimuli/rgb_scene000195_render000002.png,0,181,181,190,"[1, 0]",left,1,144,21,f,y,y,2019_May_02_1544,2AFC_task,59.90220318340751,
stimuli/rgb_scene000005_render000000.png,stimuli/rgb_scene000005_render000003.png,0,182,182,23,"[0, 1]",right,1,144,21,f,y,y,2019_May_02_1544,2AFC_task,59.90220318340751,
stimuli/rgb_scene000090_render000001.png,stimuli/rgb_scene000090_render000003.png,0,183,183,70,"[0, 1]",right,1,144,21,f,y,y,2019_May_02_1544,2AFC_task,59.90220318340751,
stimuli/rgb_scene000146_render000000.png,stimuli/rgb_scene000146_render000001.png,0,184,184,168,"[0, 1]",right,1,144,21,f,y,y,2019_May_02_1544,2AFC_task,59.90220318340751,
stimuli/rgb_scene000102_render000000.png,stimuli/rgb_scene000102_render000001.png,0,185,185,126,"[1, 0]",left,1,144,21,f,y,y,2019_May_02_1544,2AFC_task,59.90220318340751,
stimuli/rgb_scene000090_render000001.png,stimuli/rgb_scene000090_render000004.png,0,186,186,71,"[1, 0]",right,0,144,21,f,y,y,2019_May_02_1544,2AFC_task,59.90220318340751,
stimuli/rgb_scene000195_render000004.png,stimuli/rgb_scene000195_render000005.png,0,187,187,207,"[1, 0]",right,0,144,21,f,y,y,2019_May_02_1544,2AFC_task,59.90220318340751,
stimuli/rgb_scene000095_render000001.png,stimuli/rgb_scene000095_render000003.png,0,188,188,91,"[1, 0]",left,1,144,21,f,y,y,2019_May_02_1544,2AFC_task,59.90220318340751,
stimuli/rgb_scene000095_render000003.png,stimuli/rgb_scene000095_render000004.png,0,189,189,99,"[1, 0]",left,1,144,21,f,y,y,2019_May_02_1544,2AFC_task,59.90220318340751,
stimuli/rgb_scene000005_render000002.png,stimuli/rgb_scene000005_render000006.png,0,190,190,35,"[0, 1]",left,0,144,21,f,y,y,2019_May_02_1544,2AFC_task,59.90220318340751,
stimuli/rgb_scene000096_render000003.png,stimuli/rgb_scene000096_render000004.png,0,191,191,120,"[1, 0]",left,1,144,21,f,y,y,2019_May_02_1544,2AFC_task,59.90220318340751,
stimuli/rgb_scene000102_render000002.png,stimuli/rgb_scene000102_render000006.png,0,192,192,140,"[1, 0]",left,1,144,21,f,y,y,2019_May_02_1544,2AFC_task,59.90220318340751,
stimuli/rgb_scene000113_render000004.png,stimuli/rgb_scene000113_render000006.png,0,193,193,166,"[1, 0]",left,1,144,21,f,y,y,2019_May_02_1544,2AFC_task,59.90220318340751,
stimuli/rgb_scene000146_render000000.png,stimuli/rgb_scene000146_render000005.png,0,194,194,172,"[0, 1]",right,1,144,21,f,y,y,2019_May_02_1544,2AFC_task,59.90220318340751,
stimuli/rgb_scene000090_render000000.png,stimuli/rgb_scene000090_render000004.png,0,195,195,66,"[0, 1]",left,0,144,21,f,y,y,2019_May_02_1544,2AFC_task,59.90220318340751,
stimuli/rgb_scene000195_render000001.png,stimuli/rgb_scene000195_render000005.png,0,196,196,198,"[0, 1]",right,1,144,21,f,y,y,2019_May_02_1544,2AFC_task,59.90220318340751,
stimuli/rgb_scene000095_render000004.png,stimuli/rgb_scene000095_render000006.png,0,197,197,103,"[1, 0]",left,1,144,21,f,y,y,2019_May_02_1544,2AFC_task,59.90220318340751,
stimuli/rgb_scene000090_render000003.png,stimuli/rgb_scene000090_render000004.png,0,198,198,78,"[1, 0]",right,0,144,21,f,y,y,2019_May_02_1544,2AFC_task,59.90220318340751,
stimuli/rgb_scene000102_render000002.png,stimuli/rgb_scene000102_render000004.png,0,199,199,138,"[0, 1]",right,1,144,21,f,y,y,2019_May_02_1544,2AFC_task,59.90220318340751,
stimuli/rgb_scene000102_render000000.png,stimuli/rgb_scene000102_render000003.png,0,200,200,128,"[1, 0]",left,1,144,21,f,y,y,2019_May_02_1544,2AFC_task,59.90220318340751,
stimuli/rgb_scene000005_render000000.png,stimuli/rgb_scene000005_render000004.png,0,201,201,24,"[1, 0]",left,1,144,21,f,y,y,2019_May_02_1544,2AFC_task,59.90220318340751,
stimuli/rgb_scene000113_render000001.png,stimuli/rgb_scene000113_render000002.png,0,202,202,153,"[0, 1]",right,1,144,21,f,y,y,2019_May_02_1544,2AFC_task,59.90220318340751,
stimuli/rgb_scene000146_render000001.png,stimuli/rgb_scene000146_render000002.png,0,203,203,174,"[0, 1]",right,1,144,21,f,y,y,2019_May_02_1544,2AFC_task,59.90220318340751,
stimuli/rgb_scene000096_render000002.png,stimuli/rgb_scene000096_render000003.png,0,204,204,116,"[0, 1]",right,1,144,21,f,y,y,2019_May_02_1544,2AFC_task,59.90220318340751,
stimuli/rgb_scene000113_render000000.png,stimuli/rgb_scene000113_render000003.png,0,205,205,149,"[0, 1]",right,1,144,21,f,y,y,2019_May_02_1544,2AFC_task,59.90220318340751,
stimuli/rgb_scene000012_render000000.png,stimuli/rgb_scene000012_render000003.png,0,206,206,44,"[0, 1]",right,1,144,21,f,y,y,2019_May_02_1544,2AFC_task,59.90220318340751,
stimuli/rgb_scene000004_render000000.png,stimuli/rgb_scene000004_render000006.png,0,207,207,5,"[1, 0]",left,1,144,21,f,y,y,2019_May_02_1544,2AFC_task,59.90220318340751,
stimuli/rgb_scene000004_render000000.png,stimuli/rgb_scene000004_render000002.png,0,208,208,1,"[1, 0]",left,1,144,21,f,y,y,2019_May_02_1544,2AFC_task,59.90220318340751,
stimuli/rgb_scene000005_render000001.png,stimuli/rgb_scene000005_render000006.png,0,209,209,31,"[1, 0]",right,0,144,21,f,y,y,2019_May_02_1544,2AFC_task,59.90220318340751,
stimuli/rgb_scene000096_render000000.png,stimuli/rgb_scene000096_render000001.png,1,0,210,105,"[1, 0]",left,1,144,21,f,y,y,2019_May_02_1544,2AFC_task,59.90220318340751,
stimuli/rgb_scene000004_render000001.png,stimuli/rgb_scene000004_render000005.png,1,1,211,9,"[1, 0]",left,1,144,21,f,y,y,2019_May_02_1544,2AFC_task,59.90220318340751,
stimuli/rgb_scene000195_render000005.png,stimuli/rgb_scene000195_render000006.png,1,2,212,209,"[1, 0]",right,0,144,21,f,y,y,2019_May_02_1544,2AFC_task,59.90220318340751,
stimuli/rgb_scene000096_render000004.png,stimuli/rgb_scene000096_render000006.png,1,3,213,124,"[0, 1]",right,1,144,21,f,y,y,2019_May_02_1544,2AFC_task,59.90220318340751,
stimuli/rgb_scene000102_render000002.png,stimuli/rgb_scene000102_render000006.png,1,4,214,140,"[0, 1]",right,1,144,21,f,y,y,2019_May_02_1544,2AFC_task,59.90220318340751,
stimuli/rgb_scene000095_render000001.png,stimuli/rgb_scene000095_render000002.png,1,5,215,90,"[0, 1]",right,1,144,21,f,y,y,2019_May_02_1544,2AFC_task,59.90220318340751,
stimuli/rgb_scene000004_render000001.png,stimuli/rgb_scene000004_render000004.png,1,6,216,8,"[1, 0]",left,1,144,21,f,y,y,2019_May_02_1544,2AFC_task,59.90220318340751,
stimuli/rgb_scene000195_render000003.png,stimuli/rgb_scene000195_render000006.png,1,7,217,206,"[1, 0]",right,0,144,21,f,y,y,2019_May_02_1544,2AFC_task,59.90220318340751,
stimuli/rgb_scene000096_render000000.png,stimuli/rgb_scene000096_render000006.png,1,8,218,110,"[1, 0]",left,1,144,21,f,y,y,2019_May_02_1544,2AFC_task,59.90220318340751,
stimuli/rgb_scene000004_render000000.png,stimuli/rgb_scene000004_render000004.png,1,9,219,3,"[1, 0]",left,1,144,21,f,y,y,2019_May_02_1544,2AFC_task,59.90220318340751,
stimuli/rgb_scene000096_render000002.png,stimuli/rgb_scene000096_render000005.png,1,10,220,118,"[1, 0]",left,1,144,21,f,y,y,2019_May_02_1544,2AFC_task,59.90220318340751,
stimuli/rgb_scene000113_render000004.png,stimuli/rgb_scene000113_render000005.png,1,11,221,165,"[1, 0]",left,1,144,21,f,y,y,2019_May_02_1544,2AFC_task,59.90220318340751,
stimuli/rgb_scene000004_render000004.png,stimuli/rgb_scene000004_render000005.png,1,12,222,18,"[0, 1]",left,0,144,21,f,y,y,2019_May_02_1544,2AFC_task,59.90220318340751,
stimuli/rgb_scene000195_render000002.png,stimuli/rgb_scene000195_render000003.png,1,13,223,200,"[1, 0]",left,1,144,21,f,y,y,2019_May_02_1544,2AFC_task,59.90220318340751,
stimuli/rgb_scene000090_render000004.png,stimuli/rgb_scene000090_render000006.png,1,14,224,82,"[1, 0]",right,0,144,21,f,y,y,2019_May_02_1544,2AFC_task,59.90220318340751,
stimuli/rgb_scene000095_render000002.png,stimuli/rgb_scene000095_render000003.png,1,15,225,95,"[0, 1]",right,1,144,21,f,y,y,2019_May_02_1544,2AFC_task,59.90220318340751,
stimuli/rgb_scene000146_render000002.png,stimuli/rgb_scene000146_render000005.png,1,16,226,181,"[1, 0]",left,1,144,21,f,y,y,2019_May_02_1544,2AFC_task,59.90220318340751,
stimuli/rgb_scene000102_render000001.png,stimuli/rgb_scene000102_render000006.png,1,17,227,136,"[0, 1]",right,1,144,21,f,y,y,2019_May_02_1544,2AFC_task,59.90220318340751,
stimuli/rgb_scene000102_render000001.png,stimuli/rgb_scene000102_render000004.png,1,18,228,134,"[0, 1]",right,1,144,21,f,y,y,2019_May_02_1544,2AFC_task,59.90220318340751,
stimuli/rgb_scene000113_render000000.png,stimuli/rgb_scene000113_render000006.png,1,19,229,152,"[0, 1]",right,1,144,21,f,y,y,2019_May_02_1544,2AFC_task,59.90220318340751,
stimuli/rgb_scene000195_render000000.png,stimuli/rgb_scene000195_render000005.png,1,20,230,193,"[1, 0]",left,1,144,21,f,y,y,2019_May_02_1544,2AFC_task,59.90220318340751,
stimuli/rgb_scene000004_render000000.png,stimuli/rgb_scene000004_render000003.png,1,21,231,2,"[0, 1]",right,1,144,21,f,y,y,2019_May_02_1544,2AFC_task,59.90220318340751,
stimuli/rgb_scene000095_render000003.png,stimuli/rgb_scene000095_render000004.png,1,22,232,99,"[1, 0]",left,1,144,21,f,y,y,2019_May_02_1544,2AFC_task,59.90220318340751,
stimuli/rgb_scene000146_render000002.png,stimuli/rgb_scene000146_render000004.png,1,23,233,180,"[0, 1]",right,1,144,21,f,y,y,2019_May_02_1544,2AFC_task,59.90220318340751,
stimuli/rgb_scene000090_render000002.png,stimuli/rgb_scene000090_render000004.png,1,24,234,75,"[0, 1]",left,0,144,21,f,y,y,2019_May_02_1544,2AFC_task,59.90220318340751,
stimuli/rgb_scene000096_render000000.png,stimuli/rgb_scene000096_render000002.png,1,25,235,106,"[1, 0]",left,1,144,21,f,y,y,2019_May_02_1544,2AFC_task,59.90220318340751,
stimuli/rgb_scene000090_render000001.png,stimuli/rgb_scene000090_render000005.png,1,26,236,72,"[1, 0]",right,0,144,21,f,y,y,2019_May_02_1544,2AFC_task,59.90220318340751,
stimuli/rgb_scene000090_render000001.png,stimuli/rgb_scene000090_render000002.png,1,27,237,69,"[0, 1]",right,1,144,21,f,y,y,2019_May_02_1544,2AFC_task,59.90220318340751,
stimuli/rgb_scene000095_render000000.png,stimuli/rgb_scene000095_render000003.png,1,28,238,86,"[0, 1]",right,1,144,21,f,y,y,2019_May_02_1544,2AFC_task,59.90220318340751,
stimuli/rgb_scene000096_render000003.png,stimuli/rgb_scene000096_render000006.png,1,29,239,122,"[0, 1]",left,0,144,21,f,y,y,2019_May_02_1544,2AFC_task,59.90220318340751,
stimuli/rgb_scene000095_render000001.png,stimuli/rgb_scene000095_render000004.png,1,30,240,92,"[1, 0]",left,1,144,21,f,y,y,2019_May_02_1544,2AFC_task,59.90220318340751,
stimuli/rgb_scene000090_render000005.png,stimuli/rgb_scene000090_render000006.png,1,31,241,83,"[1, 0]",right,0,144,21,f,y,y,2019_May_02_1544,2AFC_task,59.90220318340751,
stimuli/rgb_scene000102_render000002.png,stimuli/rgb_scene000102_render000004.png,1,32,242,138,"[1, 0]",left,1,144,21,f,y,y,2019_May_02_1544,2AFC_task,59.90220318340751,
stimuli/rgb_scene000095_render000002.png,stimuli/rgb_scene000095_render000006.png,1,33,243,98,"[1, 0]",right,0,144,21,f,y,y,2019_May_02_1544,2AFC_task,59.90220318340751,
stimuli/rgb_scene000090_render000001.png,stimuli/rgb_scene000090_render000003.png,1,34,244,70,"[1, 0]",left,1,144,21,f,y,y,2019_May_02_1544,2AFC_task,59.90220318340751,
stimuli/rgb_scene000146_render000002.png,stimuli/rgb_scene000146_render000003.png,1,35,245,179,"[1, 0]",left,1,144,21,f,y,y,2019_May_02_1544,2AFC_task,59.90220318340751,
stimuli/rgb_scene000146_render000003.png,stimuli/rgb_scene000146_render000004.png,1,36,246,183,"[0, 1]",right,1,144,21,f,y,y,2019_May_02_1544,2AFC_task,59.90220318340751,
stimuli/rgb_scene000102_render000000.png,stimuli/rgb_scene000102_render000006.png,1,37,247,131,"[0, 1]",right,1,144,21,f,y,y,2019_May_02_1544,2AFC_task,59.90220318340751,
stimuli/rgb_scene000012_render000000.png,stimuli/rgb_scene000012_render000002.png,1,38,248,43,"[1, 0]",left,1,144,21,f,y,y,2019_May_02_1544,2AFC_task,59.90220318340751,
stimuli/rgb_scene000005_render000000.png,stimuli/rgb_scene000005_render000004.png,1,39,249,24,"[1, 0]",left,1,144,21,f,y,y,2019_May_02_1544,2AFC_task,59.90220318340751,
stimuli/rgb_scene000004_render000002.png,stimuli/rgb_scene000004_render000003.png,1,40,250,11,"[0, 1]",right,1,144,21,f,y,y,2019_May_02_1544,2AFC_task,59.90220318340751,
stimuli/rgb_scene000102_render000001.png,stimuli/rgb_scene000102_render000003.png,1,41,251,133,"[1, 0]",left,1,144,21,f,y,y,2019_May_02_1544,2AFC_task,59.90220318340751,
stimuli/rgb_scene000095_render000001.png,stimuli/rgb_scene000095_render000005.png,1,42,252,93,"[0, 1]",right,1,144,21,f,y,y,2019_May_02_1544,2AFC_task,59.90220318340751,
stimuli/rgb_scene000004_render000000.png,stimuli/rgb_scene000004_render000002.png,1,43,253,1,"[1, 0]",left,1,144,21,f,y,y,2019_May_02_1544,2AFC_task,59.90220318340751,
stimuli/rgb_scene000113_render000002.png,stimuli/rgb_scene000113_render000004.png,1,44,254,159,"[1, 0]",left,1,144,21,f,y,y,2019_May_02_1544,2AFC_task,59.90220318340751,
stimuli/rgb_scene000095_render000000.png,stimuli/rgb_scene000095_render000004.png,1,45,255,87,"[0, 1]",right,1,144,21,f,y,y,2019_May_02_1544,2AFC_task,59.90220318340751,
stimuli/rgb_scene000005_render000001.png,stimuli/rgb_scene000005_render000002.png,1,46,256,27,"[0, 1]",right,1,144,21,f,y,y,2019_May_02_1544,2AFC_task,59.90220318340751,
stimuli/rgb_scene000096_render000004.png,stimuli/rgb_scene000096_render000005.png,1,47,257,123,"[1, 0]",left,1,144,21,f,y,y,2019_May_02_1544,2AFC_task,59.90220318340751,
stimuli/rgb_scene000096_render000002.png,stimuli/rgb_scene000096_render000004.png,1,48,258,117,"[1, 0]",left,1,144,21,f,y,y,2019_May_02_1544,2AFC_task,59.90220318340751,
stimuli/rgb_scene000113_render000001.png,stimuli/rgb_scene000113_render000004.png,1,49,259,155,"[1, 0]",left,1,144,21,f,y,y,2019_May_02_1544,2AFC_task,59.90220318340751,
stimuli/rgb_scene000113_render000000.png,stimuli/rgb_scene000113_render000005.png,1,50,260,151,"[0, 1]",right,1,144,21,f,y,y,2019_May_02_1544,2AFC_task,59.90220318340751,
stimuli/rgb_scene000090_render000001.png,stimuli/rgb_scene000090_render000006.png,1,51,261,73,"[0, 1]",left,0,144,21,f,y,y,2019_May_02_1544,2AFC_task,59.90220318340751,
stimuli/rgb_scene000113_render000000.png,stimuli/rgb_scene000113_render000002.png,1,52,262,148,"[1, 0]",left,1,144,21,f,y,y,2019_May_02_1544,2AFC_task,59.90220318340751,
stimuli/rgb_scene000012_render000000.png,stimuli/rgb_scene000012_render000003.png,1,53,263,44,"[0, 1]",right,1,144,21,f,y,y,2019_May_02_1544,2AFC_task,59.90220318340751,
stimuli/rgb_scene000012_render000004.png,stimuli/rgb_scene000012_render000005.png,1,54,264,60,"[1, 0]",right,0,144,21,f,y,y,2019_May_02_1544,2AFC_task,59.90220318340751,
stimuli/rgb_scene000195_render000000.png,stimuli/rgb_scene000195_render000001.png,1,55,265,189,"[0, 1]",right,1,144,21,f,y,y,2019_May_02_1544,2AFC_task,59.90220318340751,
stimuli/rgb_scene000096_render000005.png,stimuli/rgb_scene000096_render000006.png,1,56,266,125,"[1, 0]",left,1,144,21,f,y,y,2019_May_02_1544,2AFC_task,59.90220318340751,
stimuli/rgb_scene000005_render000002.png,stimuli/rgb_scene000005_render000005.png,1,57,267,34,"[0, 1]",left,0,144,21,f,y,y,2019_May_02_1544,2AFC_task,59.90220318340751,
stimuli/rgb_scene000102_render000000.png,stimuli/rgb_scene000102_render000001.png,1,58,268,126,"[0, 1]",right,1,144,21,f,y,y,2019_May_02_1544,2AFC_task,59.90220318340751,
stimuli/rgb_scene000195_render000002.png,stimuli/rgb_scene000195_render000006.png,1,59,269,203,"[0, 1]",left,0,144,21,f,y,y,2019_May_02_1544,2AFC_task,59.90220318340751,
stimuli/rgb_scene000012_render000001.png,stimuli/rgb_scene000012_render000004.png,1,60,270,50,"[1, 0]",left,1,144,21,f,y,y,2019_May_02_1544,2AFC_task,59.90220318340751,
stimuli/rgb_scene000090_render000000.png,stimuli/rgb_scene000090_render000005.png,1,61,271,67,"[0, 1]",right,1,144,21,f,y,y,2019_May_02_1544,2AFC_task,59.90220318340751,
stimuli/rgb_scene000095_render000003.png,stimuli/rgb_scene000095_render000006.png,1,62,272,101,"[1, 0]",right,0,144,21,f,y,y,2019_May_02_1544,2AFC_task,59.90220318340751,
stimuli/rgb_scene000096_render000000.png,stimuli/rgb_scene000096_render000004.png,1,63,273,108,"[0, 1]",right,1,144,21,f,y,y,2019_May_02_1544,2AFC_task,59.90220318340751,
stimuli/rgb_scene000146_render000003.png,stimuli/rgb_scene000146_render000006.png,1,64,274,185,"[0, 1]",left,0,144,21,f,y,y,2019_May_02_1544,2AFC_task,59.90220318340751,
stimuli/rgb_scene000004_render000003.png,stimuli/rgb_scene000004_render000006.png,1,65,275,17,"[0, 1]",left,0,144,21,f,y,y,2019_May_02_1544,2AFC_task,59.90220318340751,
stimuli/rgb_scene000090_render000000.png,stimuli/rgb_scene000090_render000003.png,1,66,276,65,"[1, 0]",left,1,144,21,f,y,y,2019_May_02_1544,2AFC_task,59.90220318340751,
stimuli/rgb_scene000102_render000000.png,stimuli/rgb_scene000102_render000003.png,1,67,277,128,"[0, 1]",right,1,144,21,f,y,y,2019_May_02_1544,2AFC_task,59.90220318340751,
stimuli/rgb_scene000113_render000000.png,stimuli/rgb_scene000113_render000004.png,1,68,278,150,"[1, 0]",left,1,144,21,f,y,y,2019_May_02_1544,2AFC_task,59.90220318340751,
stimuli/rgb_scene000195_render000000.png,stimuli/rgb_scene000195_render000003.png,1,69,279,191,"[1, 0]",left,1,144,21,f,y,y,2019_May_02_1544,2AFC_task,59.90220318340751,
stimuli/rgb_scene000004_render000003.png,stimuli/rgb_scene000004_render000004.png,1,70,280,15,"[1, 0]",left,1,144,21,f,y,y,2019_May_02_1544,2AFC_task,59.90220318340751,
stimuli/rgb_scene000090_render000002.png,stimuli/rgb_scene000090_render000005.png,1,71,281,76,"[0, 1]",left,0,144,21,f,y,y,2019_May_02_1544,2AFC_task,59.90220318340751,
stimuli/rgb_scene000146_render000000.png,stimuli/rgb_scene000146_render000005.png,1,72,282,172,"[0, 1]",right,1,144,21,f,y,y,2019_May_02_1544,2AFC_task,59.90220318340751,
stimuli/rgb_scene000195_render000002.png,stimuli/rgb_scene000195_render000004.png,1,73,283,201,"[1, 0]",left,1,144,21,f,y,y,2019_May_02_1544,2AFC_task,59.90220318340751,
stimuli/rgb_scene000102_render000000.png,stimuli/rgb_scene000102_render000004.png,1,74,284,129,"[1, 0]",left,1,144,21,f,y,y,2019_May_02_1544,2AFC_task,59.90220318340751,
stimuli/rgb_scene000146_render000001.png,stimuli/rgb_scene000146_render000003.png,1,75,285,175,"[1, 0]",left,1,144,21,f,y,y,2019_May_02_1544,2AFC_task,59.90220318340751,
stimuli/rgb_scene000113_render000003.png,stimuli/rgb_scene000113_render000004.png,1,76,286,162,"[0, 1]",right,1,144,21,f,y,y,2019_May_02_1544,2AFC_task,59.90220318340751,
stimuli/rgb_scene000102_render000004.png,stimuli/rgb_scene000102_render000005.png,1,77,287,144,"[1, 0]",left,1,144,21,f,y,y,2019_May_02_1544,2AFC_task,59.90220318340751,
stimuli/rgb_scene000090_render000002.png,stimuli/rgb_scene000090_render000003.png,1,78,288,74,"[0, 1]",right,1,144,21,f,y,y,2019_May_02_1544,2AFC_task,59.90220318340751,
stimuli/rgb_scene000005_render000000.png,stimuli/rgb_scene000005_render000003.png,1,79,289,23,"[1, 0]",left,1,144,21,f,y,y,2019_May_02_1544,2AFC_task,59.90220318340751,
stimuli/rgb_scene000113_render000001.png,stimuli/rgb_scene000113_render000002.png,1,80,290,153,"[1, 0]",left,1,144,21,f,y,y,2019_May_02_1544,2AFC_task,59.90220318340751,
stimuli/rgb_scene000090_render000000.png,stimuli/rgb_scene000090_render000004.png,1,81,291,66,"[0, 1]",left,0,144,21,f,y,y,2019_May_02_1544,2AFC_task,59.90220318340751,
stimuli/rgb_scene000102_render000004.png,stimuli/rgb_scene000102_render000006.png,1,82,292,145,"[0, 1]",left,0,144,21,f,y,y,2019_May_02_1544,2AFC_task,59.90220318340751,
stimuli/rgb_scene000113_render000003.png,stimuli/rgb_scene000113_render000006.png,1,83,293,164,"[1, 0]",right,0,144,21,f,y,y,2019_May_02_1544,2AFC_task,59.90220318340751,
stimuli/rgb_scene000012_render000003.png,stimuli/rgb_scene000012_render000004.png,1,84,294,57,"[1, 0]",left,1,144,21,f,y,y,2019_May_02_1544,2AFC_task,59.90220318340751,
stimuli/rgb_scene000005_render000001.png,stimuli/rgb_scene000005_render000003.png,1,85,295,28,"[1, 0]",left,1,144,21,f,y,y,2019_May_02_1544,2AFC_task,59.90220318340751,
stimuli/rgb_scene000005_render000002.png,stimuli/rgb_scene000005_render000006.png,1,86,296,35,"[1, 0]",right,0,144,21,f,y,y,2019_May_02_1544,2AFC_task,59.90220318340751,
stimuli/rgb_scene000113_render000002.png,stimuli/rgb_scene000113_render000003.png,1,87,297,158,"[1, 0]",left,1,144,21,f,y,y,2019_May_02_1544,2AFC_task,59.90220318340751,
stimuli/rgb_scene000005_render000005.png,stimuli/rgb_scene000005_render000006.png,1,88,298,41,"[0, 1]",left,0,144,21,f,y,y,2019_May_02_1544,2AFC_task,59.90220318340751,
stimuli/rgb_scene000195_render000004.png,stimuli/rgb_scene000195_render000005.png,1,89,299,207,"[1, 0]",right,0,144,21,f,y,y,2019_May_02_1544,2AFC_task,59.90220318340751,
stimuli/rgb_scene000146_render000000.png,stimuli/rgb_scene000146_render000002.png,1,90,300,169,"[1, 0]",left,1,144,21,f,y,y,2019_May_02_1544,2AFC_task,59.90220318340751,
stimuli/rgb_scene000113_render000001.png,stimuli/rgb_scene000113_render000003.png,1,91,301,154,"[0, 1]",right,1,144,21,f,y,y,2019_May_02_1544,2AFC_task,59.90220318340751,
stimuli/rgb_scene000090_render000003.png,stimuli/rgb_scene000090_render000006.png,1,92,302,80,"[0, 1]",left,0,144,21,f,y,y,2019_May_02_1544,2AFC_task,59.90220318340751,
stimuli/rgb_scene000095_render000005.png,stimuli/rgb_scene000095_render000006.png,1,93,303,104,"[1, 0]",right,0,144,21,f,y,y,2019_May_02_1544,2AFC_task,59.90220318340751,
stimuli/rgb_scene000090_render000000.png,stimuli/rgb_scene000090_render000002.png,1,94,304,64,"[1, 0]",left,1,144,21,f,y,y,2019_May_02_1544,2AFC_task,59.90220318340751,
stimuli/rgb_scene000005_render000001.png,stimuli/rgb_scene000005_render000004.png,1,95,305,29,"[1, 0]",right,0,144,21,f,y,y,2019_May_02_1544,2AFC_task,59.90220318340751,
stimuli/rgb_scene000195_render000002.png,stimuli/rgb_scene000195_render000005.png,1,96,306,202,"[1, 0]",right,0,144,21,f,y,y,2019_May_02_1544,2AFC_task,59.90220318340751,
stimuli/rgb_scene000004_render000002.png,stimuli/rgb_scene000004_render000004.png,1,97,307,12,"[0, 1]",right,1,144,21,f,y,y,2019_May_02_1544,2AFC_task,59.90220318340751,
stimuli/rgb_scene000146_render000001.png,stimuli/rgb_scene000146_render000002.png,1,98,308,174,"[1, 0]",left,1,144,21,f,y,y,2019_May_02_1544,2AFC_task,59.90220318340751,
stimuli/rgb_scene000146_render000001.png,stimuli/rgb_scene000146_render000005.png,1,99,309,177,"[0, 1]",right,1,144,21,f,y,y,2019_May_02_1544,2AFC_task,59.90220318340751,
stimuli/rgb_scene000005_render000000.png,stimuli/rgb_scene000005_render000006.png,1,100,310,26,"[0, 1]",left,0,144,21,f,y,y,2019_May_02_1544,2AFC_task,59.90220318340751,
stimuli/rgb_scene000095_render000000.png,stimuli/rgb_scene000095_render000002.png,1,101,311,85,"[1, 0]",left,1,144,21,f,y,y,2019_May_02_1544,2AFC_task,59.90220318340751,
stimuli/rgb_scene000004_render000003.png,stimuli/rgb_scene000004_render000005.png,1,102,312,16,"[1, 0]",right,0,144,21,f,y,y,2019_May_02_1544,2AFC_task,59.90220318340751,
stimuli/rgb_scene000195_render000004.png,stimuli/rgb_scene000195_render000006.png,1,103,313,208,"[1, 0]",right,0,144,21,f,y,y,2019_May_02_1544,2AFC_task,59.90220318340751,
stimuli/rgb_scene000146_render000001.png,stimuli/rgb_scene000146_render000004.png,1,104,314,176,"[0, 1]",right,1,144,21,f,y,y,2019_May_02_1544,2AFC_task,59.90220318340751,
stimuli/rgb_scene000096_render000000.png,stimuli/rgb_scene000096_render000005.png,1,105,315,109,"[1, 0]",left,1,144,21,f,y,y,2019_May_02_1544,2AFC_task,59.90220318340751,
stimuli/rgb_scene000090_render000001.png,stimuli/rgb_scene000090_render000004.png,1,106,316,71,"[0, 1]",left,0,144,21,f,y,y,2019_May_02_1544,2AFC_task,59.90220318340751,
stimuli/rgb_scene000146_render000000.png,stimuli/rgb_scene000146_render000004.png,1,107,317,171,"[0, 1]",right,1,144,21,f,y,y,2019_May_02_1544,2AFC_task,59.90220318340751,
stimuli/rgb_scene000195_render000003.png,stimuli/rgb_scene000195_render000005.png,1,108,318,205,"[1, 0]",left,1,144,21,f,y,y,2019_May_02_1544,2AFC_task,59.90220318340751,
stimuli/rgb_scene000090_render000002.png,stimuli/rgb_scene000090_render000006.png,1,109,319,77,"[0, 1]",left,0,144,21,f,y,y,2019_May_02_1544,2AFC_task,59.90220318340751,
stimuli/rgb_scene000102_render000003.png,stimuli/rgb_scene000102_render000005.png,1,110,320,142,"[1, 0]",left,1,144,21,f,y,y,2019_May_02_1544,2AFC_task,59.90220318340751,
stimuli/rgb_scene000004_render000001.png,stimuli/rgb_scene000004_render000006.png,1,111,321,10,"[1, 0]",left,1,144,21,f,y,y,2019_May_02_1544,2AFC_task,59.90220318340751,
stimuli/rgb_scene000146_render000000.png,stimuli/rgb_scene000146_render000006.png,1,112,322,173,"[1, 0]",left,1,144,21,f,y,y,2019_May_02_1544,2AFC_task,59.90220318340751,
stimuli/rgb_scene000195_render000003.png,stimuli/rgb_scene000195_render000004.png,1,113,323,204,"[1, 0]",right,0,144,21,f,y,y,2019_May_02_1544,2AFC_task,59.90220318340751,
stimuli/rgb_scene000090_render000003.png,stimuli/rgb_scene000090_render000004.png,1,114,324,78,"[1, 0]",right,0,144,21,f,y,y,2019_May_02_1544,2AFC_task,59.90220318340751,
stimuli/rgb_scene000095_render000000.png,stimuli/rgb_scene000095_render000005.png,1,115,325,88,"[0, 1]",right,1,144,21,f,y,y,2019_May_02_1544,2AFC_task,59.90220318340751,
stimuli/rgb_scene000004_render000004.png,stimuli/rgb_scene000004_render000006.png,1,116,326,19,"[0, 1]",left,0,144,21,f,y,y,2019_May_02_1544,2AFC_task,59.90220318340751,
stimuli/rgb_scene000195_render000001.png,stimuli/rgb_scene000195_render000006.png,1,117,327,199,"[0, 1]",left,0,144,21,f,y,y,2019_May_02_1544,2AFC_task,59.90220318340751,
stimuli/rgb_scene000004_render000001.png,stimuli/rgb_scene000004_render000002.png,1,118,328,6,"[1, 0]",left,1,144,21,f,y,y,2019_May_02_1544,2AFC_task,59.90220318340751,
stimuli/rgb_scene000096_render000001.png,stimuli/rgb_scene000096_render000002.png,1,119,329,111,"[1, 0]",left,1,144,21,f,y,y,2019_May_02_1544,2AFC_task,59.90220318340751,
stimuli/rgb_scene000102_render000001.png,stimuli/rgb_scene000102_render000002.png,1,120,330,132,"[0, 1]",right,1,144,21,f,y,y,2019_May_02_1544,2AFC_task,59.90220318340751,
stimuli/rgb_scene000113_render000001.png,stimuli/rgb_scene000113_render000006.png,1,121,331,157,"[0, 1]",right,1,144,21,f,y,y,2019_May_02_1544,2AFC_task,59.90220318340751,
stimuli/rgb_scene000012_render000001.png,stimuli/rgb_scene000012_render000003.png,1,122,332,49,"[1, 0]",left,1,144,21,f,y,y,2019_May_02_1544,2AFC_task,59.90220318340751,
stimuli/rgb_scene000102_render000002.png,stimuli/rgb_scene000102_render000003.png,1,123,333,137,"[1, 0]",left,1,144,21,f,y,y,2019_May_02_1544,2AFC_task,59.90220318340751,
stimuli/rgb_scene000113_render000003.png,stimuli/rgb_scene000113_render000005.png,1,124,334,163,"[1, 0]",right,0,144,21,f,y,y,2019_May_02_1544,2AFC_task,59.90220318340751,
stimuli/rgb_scene000012_render000002.png,stimuli/rgb_scene000012_render000006.png,1,125,335,56,"[1, 0]",left,1,144,21,f,y,y,2019_May_02_1544,2AFC_task,59.90220318340751,
stimuli/rgb_scene000095_render000001.png,stimuli/rgb_scene000095_render000003.png,1,126,336,91,"[1, 0]",left,1,144,21,f,y,y,2019_May_02_1544,2AFC_task,59.90220318340751,
stimuli/rgb_scene000146_render000003.png,stimuli/rgb_scene000146_render000005.png,1,127,337,184,"[0, 1]",right,1,144,21,f,y,y,2019_May_02_1544,2AFC_task,59.90220318340751,
stimuli/rgb_scene000095_render000003.png,stimuli/rgb_scene000095_render000005.png,1,128,338,100,"[0, 1]",right,1,144,21,f,y,y,2019_May_02_1544,2AFC_task,59.90220318340751,
stimuli/rgb_scene000113_render000004.png,stimuli/rgb_scene000113_render000006.png,1,129,339,166,"[1, 0]",right,0,144,21,f,y,y,2019_May_02_1544,2AFC_task,59.90220318340751,
stimuli/rgb_scene000012_render000002.png,stimuli/rgb_scene000012_render000003.png,1,130,340,53,"[1, 0]",left,1,144,21,f,y,y,2019_May_02_1544,2AFC_task,59.90220318340751,
stimuli/rgb_scene000004_render000000.png,stimuli/rgb_scene000004_render000006.png,1,131,341,5,"[0, 1]",right,1,144,21,f,y,y,2019_May_02_1544,2AFC_task,59.90220318340751,
stimuli/rgb_scene000096_render000003.png,stimuli/rgb_scene000096_render000004.png,1,132,342,120,"[1, 0]",left,1,144,21,f,y,y,2019_May_02_1544,2AFC_task,59.90220318340751,
stimuli/rgb_scene000102_render000003.png,stimuli/rgb_scene000102_render000006.png,1,133,343,143,"[1, 0]",left,1,144,21,f,y,y,2019_May_02_1544,2AFC_task,59.90220318340751,
stimuli/rgb_scene000195_render000000.png,stimuli/rgb_scene000195_render000004.png,1,134,344,192,"[0, 1]",right,1,144,21,f,y,y,2019_May_02_1544,2AFC_task,59.90220318340751,
stimuli/rgb_scene000012_render000000.png,stimuli/rgb_scene000012_render000001.png,1,135,345,42,"[1, 0]",left,1,144,21,f,y,y,2019_May_02_1544,2AFC_task,59.90220318340751,
stimuli/rgb_scene000195_render000001.png,stimuli/rgb_scene000195_render000005.png,1,136,346,198,"[0, 1]",left,0,144,21,f,y,y,2019_May_02_1544,2AFC_task,59.90220318340751,
stimuli/rgb_scene000102_render000005.png,stimuli/rgb_scene000102_render000006.png,1,137,347,146,"[1, 0]",right,0,144,21,f,y,y,2019_May_02_1544,2AFC_task,59.90220318340751,
stimuli/rgb_scene000005_render000000.png,stimuli/rgb_scene000005_render000002.png,1,138,348,22,"[1, 0]",left,1,144,21,f,y,y,2019_May_02_1544,2AFC_task,59.90220318340751,
stimuli/rgb_scene000146_render000004.png,stimuli/rgb_scene000146_render000005.png,1,139,349,186,"[1, 0]",right,0,144,21,f,y,y,2019_May_02_1544,2AFC_task,59.90220318340751,
stimuli/rgb_scene000012_render000001.png,stimuli/rgb_scene000012_render000005.png,1,140,350,51,"[0, 1]",right,1,144,21,f,y,y,2019_May_02_1544,2AFC_task,59.90220318340751,
stimuli/rgb_scene000113_render000001.png,stimuli/rgb_scene000113_render000005.png,1,141,351,156,"[1, 0]",left,1,144,21,f,y,y,2019_May_02_1544,2AFC_task,59.90220318340751,
stimuli/rgb_scene000102_render000000.png,stimuli/rgb_scene000102_render000005.png,1,142,352,130,"[1, 0]",left,1,144,21,f,y,y,2019_May_02_1544,2AFC_task,59.90220318340751,
stimuli/rgb_scene000090_render000000.png,stimuli/rgb_scene000090_render000001.png,1,143,353,63,"[0, 1]",right,1,144,21,f,y,y,2019_May_02_1544,2AFC_task,59.90220318340751,
stimuli/rgb_scene000195_render000001.png,stimuli/rgb_scene000195_render000002.png,1,144,354,195,"[0, 1]",right,1,144,21,f,y,y,2019_May_02_1544,2AFC_task,59.90220318340751,
stimuli/rgb_scene000146_render000005.png,stimuli/rgb_scene000146_render000006.png,1,145,355,188,"[1, 0]",right,0,144,21,f,y,y,2019_May_02_1544,2AFC_task,59.90220318340751,
stimuli/rgb_scene000102_render000000.png,stimuli/rgb_scene000102_render000002.png,1,146,356,127,"[0, 1]",right,1,144,21,f,y,y,2019_May_02_1544,2AFC_task,59.90220318340751,
stimuli/rgb_scene000096_render000001.png,stimuli/rgb_scene000096_render000003.png,1,147,357,112,"[1, 0]",left,1,144,21,f,y,y,2019_May_02_1544,2AFC_task,59.90220318340751,
stimuli/rgb_scene000195_render000001.png,stimuli/rgb_scene000195_render000004.png,1,148,358,197,"[0, 1]",right,1,144,21,f,y,y,2019_May_02_1544,2AFC_task,59.90220318340751,
stimuli/rgb_scene000005_render000003.png,stimuli/rgb_scene000005_render000004.png,1,149,359,36,"[1, 0]",right,0,144,21,f,y,y,2019_May_02_1544,2AFC_task,59.90220318340751,
stimuli/rgb_scene000005_render000001.png,stimuli/rgb_scene000005_render000006.png,1,150,360,31,"[1, 0]",right,0,144,21,f,y,y,2019_May_02_1544,2AFC_task,59.90220318340751,
stimuli/rgb_scene000005_render000002.png,stimuli/rgb_scene000005_render000004.png,1,151,361,33,"[1, 0]",right,0,144,21,f,y,y,2019_May_02_1544,2AFC_task,59.90220318340751,
stimuli/rgb_scene000095_render000002.png,stimuli/rgb_scene000095_render000004.png,1,152,362,96,"[1, 0]",left,1,144,21,f,y,y,2019_May_02_1544,2AFC_task,59.90220318340751,
stimuli/rgb_scene000004_render000002.png,stimuli/rgb_scene000004_render000006.png,1,153,363,14,"[1, 0]",right,0,144,21,f,y,y,2019_May_02_1544,2AFC_task,59.90220318340751,
stimuli/rgb_scene000113_render000002.png,stimuli/rgb_scene000113_render000006.png,1,154,364,161,"[1, 0]",left,1,144,21,f,y,y,2019_May_02_1544,2AFC_task,59.90220318340751,
stimuli/rgb_scene000113_render000000.png,stimuli/rgb_scene000113_render000001.png,1,155,365,147,"[1, 0]",left,1,144,21,f,y,y,2019_May_02_1544,2AFC_task,59.90220318340751,
stimuli/rgb_scene000004_render000001.png,stimuli/rgb_scene000004_render000003.png,1,156,366,7,"[0, 1]",right,1,144,21,f,y,y,2019_May_02_1544,2AFC_task,59.90220318340751,
stimuli/rgb_scene000195_render000000.png,stimuli/rgb_scene000195_render000006.png,1,157,367,194,"[1, 0]",left,1,144,21,f,y,y,2019_May_02_1544,2AFC_task,59.90220318340751,
stimuli/rgb_scene000113_render000002.png,stimuli/rgb_scene000113_render000005.png,1,158,368,160,"[0, 1]",right,1,144,21,f,y,y,2019_May_02_1544,2AFC_task,59.90220318340751,
stimuli/rgb_scene000195_render000001.png,stimuli/rgb_scene000195_render000003.png,1,159,369,196,"[1, 0]",left,1,144,21,f,y,y,2019_May_02_1544,2AFC_task,59.90220318340751,
stimuli/rgb_scene000004_render000005.png,stimuli/rgb_scene000004_render000006.png,1,160,370,20,"[1, 0]",right,0,144,21,f,y,y,2019_May_02_1544,2AFC_task,59.90220318340751,
stimuli/rgb_scene000146_render000002.png,stimuli/rgb_scene000146_render000006.png,1,161,371,182,"[0, 1]",right,1,144,21,f,y,y,2019_May_02_1544,2AFC_task,59.90220318340751,
stimuli/rgb_scene000095_render000000.png,stimuli/rgb_scene000095_render000001.png,1,162,372,84,"[1, 0]",left,1,144,21,f,y,y,2019_May_02_1544,2AFC_task,59.90220318340751,
stimuli/rgb_scene000102_render000003.png,stimuli/rgb_scene000102_render000004.png,1,163,373,141,"[1, 0]",left,1,144,21,f,y,y,2019_May_02_1544,2AFC_task,59.90220318340751,
stimuli/rgb_scene000012_render000002.png,stimuli/rgb_scene000012_render000004.png,1,164,374,54,"[0, 1]",right,1,144,21,f,y,y,2019_May_02_1544,2AFC_task,59.90220318340751,
stimuli/rgb_scene000113_render000000.png,stimuli/rgb_scene000113_render000003.png,1,165,375,149,"[1, 0]",left,1,144,21,f,y,y,2019_May_02_1544,2AFC_task,59.90220318340751,
stimuli/rgb_scene000090_render000000.png,stimuli/rgb_scene000090_render000006.png,1,166,376,68,"[1, 0]",right,0,144,21,f,y,y,2019_May_02_1544,2AFC_task,59.90220318340751,
stimuli/rgb_scene000012_render000000.png,stimuli/rgb_scene000012_render000006.png,1,167,377,47,"[0, 1]",right,1,144,21,f,y,y,2019_May_02_1544,2AFC_task,59.90220318340751,
stimuli/rgb_scene000005_render000002.png,stimuli/rgb_scene000005_render000003.png,1,168,378,32,"[0, 1]",right,1,144,21,f,y,y,2019_May_02_1544,2AFC_task,59.90220318340751,
stimuli/rgb_scene000012_render000002.png,stimuli/rgb_scene000012_render000005.png,1,169,379,55,"[0, 1]",right,1,144,21,f,y,y,2019_May_02_1544,2AFC_task,59.90220318340751,
stimuli/rgb_scene000005_render000003.png,stimuli/rgb_scene000005_render000006.png,1,170,380,38,"[0, 1]",left,0,144,21,f,y,y,2019_May_02_1544,2AFC_task,59.90220318340751,
stimuli/rgb_scene000095_render000002.png,stimuli/rgb_scene000095_render000005.png,1,171,381,97,"[0, 1]",right,1,144,21,f,y,y,2019_May_02_1544,2AFC_task,59.90220318340751,
stimuli/rgb_scene000096_render000002.png,stimuli/rgb_scene000096_render000003.png,1,172,382,116,"[0, 1]",right,1,144,21,f,y,y,2019_May_02_1544,2AFC_task,59.90220318340751,
stimuli/rgb_scene000096_render000000.png,stimuli/rgb_scene000096_render000003.png,1,173,383,107,"[0, 1]",right,1,144,21,f,y,y,2019_May_02_1544,2AFC_task,59.90220318340751,
stimuli/rgb_scene000012_render000001.png,stimuli/rgb_scene000012_render000002.png,1,174,384,48,"[0, 1]",right,1,144,21,f,y,y,2019_May_02_1544,2AFC_task,59.90220318340751,
stimuli/rgb_scene000012_render000003.png,stimuli/rgb_scene000012_render000006.png,1,175,385,59,"[1, 0]",right,0,144,21,f,y,y,2019_May_02_1544,2AFC_task,59.90220318340751,
stimuli/rgb_scene000095_render000004.png,stimuli/rgb_scene000095_render000005.png,1,176,386,102,"[0, 1]",right,1,144,21,f,y,y,2019_May_02_1544,2AFC_task,59.90220318340751,
stimuli/rgb_scene000005_render000000.png,stimuli/rgb_scene000005_render000005.png,1,177,387,25,"[0, 1]",left,0,144,21,f,y,y,2019_May_02_1544,2AFC_task,59.90220318340751,
stimuli/rgb_scene000090_render000004.png,stimuli/rgb_scene000090_render000005.png,1,178,388,81,"[1, 0]",right,0,144,21,f,y,y,2019_May_02_1544,2AFC_task,59.90220318340751,
stimuli/rgb_scene000012_render000004.png,stimuli/rgb_scene000012_render000006.png,1,179,389,61,"[1, 0]",right,0,144,21,f,y,y,2019_May_02_1544,2AFC_task,59.90220318340751,
stimuli/rgb_scene000096_render000002.png,stimuli/rgb_scene000096_render000006.png,1,180,390,119,"[0, 1]",right,1,144,21,f,y,y,2019_May_02_1544,2AFC_task,59.90220318340751,
stimuli/rgb_scene000113_render000005.png,stimuli/rgb_scene000113_render000006.png,1,181,391,167,"[0, 1]",left,0,144,21,f,y,y,2019_May_02_1544,2AFC_task,59.90220318340751,
stimuli/rgb_scene000012_render000000.png,stimuli/rgb_scene000012_render000004.png,1,182,392,45,"[1, 0]",left,1,144,21,f,y,y,2019_May_02_1544,2AFC_task,59.90220318340751,
stimuli/rgb_scene000012_render000000.png,stimuli/rgb_scene000012_render000005.png,1,183,393,46,"[0, 1]",right,1,144,21,f,y,y,2019_May_02_1544,2AFC_task,59.90220318340751,
stimuli/rgb_scene000095_render000001.png,stimuli/rgb_scene000095_render000006.png,1,184,394,94,"[1, 0]",left,1,144,21,f,y,y,2019_May_02_1544,2AFC_task,59.90220318340751,
stimuli/rgb_scene000096_render000001.png,stimuli/rgb_scene000096_render000006.png,1,185,395,115,"[1, 0]",left,1,144,21,f,y,y,2019_May_02_1544,2AFC_task,59.90220318340751,
stimuli/rgb_scene000005_render000004.png,stimuli/rgb_scene000005_render000006.png,1,186,396,40,"[1, 0]",right,0,144,21,f,y,y,2019_May_02_1544,2AFC_task,59.90220318340751,
stimuli/rgb_scene000102_render000001.png,stimuli/rgb_scene000102_render000005.png,1,187,397,135,"[0, 1]",right,1,144,21,f,y,y,2019_May_02_1544,2AFC_task,59.90220318340751,
stimuli/rgb_scene000096_render000001.png,stimuli/rgb_scene000096_render000004.png,1,188,398,113,"[0, 1]",right,1,144,21,f,y,y,2019_May_02_1544,2AFC_task,59.90220318340751,
stimuli/rgb_scene000146_render000004.png,stimuli/rgb_scene000146_render000006.png,1,189,399,187,"[0, 1]",left,0,144,21,f,y,y,2019_May_02_1544,2AFC_task,59.90220318340751,
stimuli/rgb_scene000004_render000002.png,stimuli/rgb_scene000004_render000005.png,1,190,400,13,"[1, 0]",left,1,144,21,f,y,y,2019_May_02_1544,2AFC_task,59.90220318340751,
stimuli/rgb_scene000096_render000003.png,stimuli/rgb_scene000096_render000005.png,1,191,401,121,"[1, 0]",left,1,144,21,f,y,y,2019_May_02_1544,2AFC_task,59.90220318340751,
stimuli/rgb_scene000005_render000003.png,stimuli/rgb_scene000005_render000005.png,1,192,402,37,"[0, 1]",left,0,144,21,f,y,y,2019_May_02_1544,2AFC_task,59.90220318340751,
stimuli/rgb_scene000146_render000001.png,stimuli/rgb_scene000146_render000006.png,1,193,403,178,"[1, 0]",left,1,144,21,f,y,y,2019_May_02_1544,2AFC_task,59.90220318340751,
stimuli/rgb_scene000146_render000000.png,stimuli/rgb_scene000146_render000001.png,1,194,404,168,"[0, 1]",right,1,144,21,f,y,y,2019_May_02_1544,2AFC_task,59.90220318340751,
stimuli/rgb_scene000005_render000004.png,stimuli/rgb_scene000005_render000005.png,1,195,405,39,"[1, 0]",right,0,144,21,f,y,y,2019_May_02_1544,2AFC_task,59.90220318340751,
stimuli/rgb_scene000012_render000001.png,stimuli/rgb_scene000012_render000006.png,1,196,406,52,"[0, 1]",right,1,144,21,f,y,y,2019_May_02_1544,2AFC_task,59.90220318340751,
stimuli/rgb_scene000005_render000000.png,stimuli/rgb_scene000005_render000001.png,1,197,407,21,"[0, 1]",right,1,144,21,f,y,y,2019_May_02_1544,2AFC_task,59.90220318340751,
stimuli/rgb_scene000090_render000003.png,stimuli/rgb_scene000090_render000005.png,1,198,408,79,"[0, 1]",left,0,144,21,f,y,y,2019_May_02_1544,2AFC_task,59.90220318340751,
stimuli/rgb_scene000095_render000000.png,stimuli/rgb_scene000095_render000006.png,1,199,409,89,"[1, 0]",left,1,144,21,f,y,y,2019_May_02_1544,2AFC_task,59.90220318340751,
stimuli/rgb_scene000096_render000001.png,stimuli/rgb_scene000096_render000005.png,1,200,410,114,"[0, 1]",right,1,144,21,f,y,y,2019_May_02_1544,2AFC_task,59.90220318340751,
stimuli/rgb_scene000146_render000000.png,stimuli/rgb_scene000146_render000003.png,1,201,411,170,"[1, 0]",left,1,144,21,f,y,y,2019_May_02_1544,2AFC_task,59.90220318340751,
stimuli/rgb_scene000095_render000004.png,stimuli/rgb_scene000095_render000006.png,1,202,412,103,"[0, 1]",left,0,144,21,f,y,y,2019_May_02_1544,2AFC_task,59.90220318340751,
stimuli/rgb_scene000195_render000000.png,stimuli/rgb_scene000195_render000002.png,1,203,413,190,"[1, 0]",left,1,144,21,f,y,y,2019_May_02_1544,2AFC_task,59.90220318340751,
stimuli/rgb_scene000012_render000003.png,stimuli/rgb_scene000012_render000005.png,1,204,414,58,"[1, 0]",left,1,144,21,f,y,y,2019_May_02_1544,2AFC_task,59.90220318340751,
stimuli/rgb_scene000005_render000001.png,stimuli/rgb_scene000005_render000005.png,1,205,415,30,"[1, 0]",right,0,144,21,f,y,y,2019_May_02_1544,2AFC_task,59.90220318340751,
stimuli/rgb_scene000102_render000002.png,stimuli/rgb_scene000102_render000005.png,1,206,416,139,"[1, 0]",left,1,144,21,f,y,y,2019_May_02_1544,2AFC_task,59.90220318340751,
stimuli/rgb_scene000004_render000000.png,stimuli/rgb_scene000004_render000001.png,1,207,417,0,"[0, 1]",right,1,144,21,f,y,y,2019_May_02_1544,2AFC_task,59.90220318340751,
stimuli/rgb_scene000004_render000000.png,stimuli/rgb_scene000004_render000005.png,1,208,418,4,"[0, 1]",right,1,144,21,f,y,y,2019_May_02_1544,2AFC_task,59.90220318340751,
stimuli/rgb_scene000012_render000005.png,stimuli/rgb_scene000012_render000006.png,1,209,419,62,"[0, 1]",left,0,144,21,f,y,y,2019_May_02_1544,2AFC_task,59.90220318340751,
