stimOne,stimTwo,trials_1.thisRepN,trials_1.thisTrialN,trials_1.thisN,trials_1.thisIndex,presentation_positions,resp_key,corresponding_image,participant ID (two digits, e.g. 01),age,gender (m/f/-),normal or corrected-to-normal vision (y/n),normal colour vision (y/n),date,expName,frameRate,
stimuli/rgb_scene000102_render000003.png,stimuli/rgb_scene000102_render000004.png,0,0,0,141,"[1, 0]",left,1,222,26,f,y,y,2019_Apr_25_1400,2AFC_task,59.93109127864803,
stimuli/rgb_scene000146_render000002.png,stimuli/rgb_scene000146_render000003.png,0,1,1,179,"[1, 0]",left,1,222,26,f,y,y,2019_Apr_25_1400,2AFC_task,59.93109127864803,
stimuli/rgb_scene000004_render000000.png,stimuli/rgb_scene000004_render000002.png,0,2,2,1,"[1, 0]",left,1,222,26,f,y,y,2019_Apr_25_1400,2AFC_task,59.93109127864803,
stimuli/rgb_scene000012_render000000.png,stimuli/rgb_scene000012_render000002.png,0,3,3,43,"[1, 0]",left,1,222,26,f,y,y,2019_Apr_25_1400,2AFC_task,59.93109127864803,
stimuli/rgb_scene000012_render000004.png,stimuli/rgb_scene000012_render000005.png,0,4,4,60,"[0, 1]",right,1,222,26,f,y,y,2019_Apr_25_1400,2AFC_task,59.93109127864803,
stimuli/rgb_scene000012_render000000.png,stimuli/rgb_scene000012_render000006.png,0,5,5,47,"[1, 0]",left,1,222,26,f,y,y,2019_Apr_25_1400,2AFC_task,59.93109127864803,
stimuli/rgb_scene000012_render000001.png,stimuli/rgb_scene000012_render000002.png,0,6,6,48,"[1, 0]",left,1,222,26,f,y,y,2019_Apr_25_1400,2AFC_task,59.93109127864803,
stimuli/rgb_scene000146_render000000.png,stimuli/rgb_scene000146_render000006.png,0,7,7,173,"[0, 1]",right,1,222,26,f,y,y,2019_Apr_25_1400,2AFC_task,59.93109127864803,
stimuli/rgb_scene000102_render000003.png,stimuli/rgb_scene000102_render000005.png,0,8,8,142,"[0, 1]",right,1,222,26,f,y,y,2019_Apr_25_1400,2AFC_task,59.93109127864803,
stimuli/rgb_scene000090_render000000.png,stimuli/rgb_scene000090_render000002.png,0,9,9,64,"[1, 0]",left,1,222,26,f,y,y,2019_Apr_25_1400,2AFC_task,59.93109127864803,
stimuli/rgb_scene000096_render000000.png,stimuli/rgb_scene000096_render000003.png,0,10,10,107,"[0, 1]",right,1,222,26,f,y,y,2019_Apr_25_1400,2AFC_task,59.93109127864803,
stimuli/rgb_scene000004_render000003.png,stimuli/rgb_scene000004_render000004.png,0,11,11,15,"[0, 1]",right,1,222,26,f,y,y,2019_Apr_25_1400,2AFC_task,59.93109127864803,
stimuli/rgb_scene000102_render000001.png,stimuli/rgb_scene000102_render000006.png,0,12,12,136,"[1, 0]",left,1,222,26,f,y,y,2019_Apr_25_1400,2AFC_task,59.93109127864803,
stimuli/rgb_scene000005_render000003.png,stimuli/rgb_scene000005_render000004.png,0,13,13,36,"[1, 0]",left,1,222,26,f,y,y,2019_Apr_25_1400,2AFC_task,59.93109127864803,
stimuli/rgb_scene000005_render000001.png,stimuli/rgb_scene000005_render000005.png,0,14,14,30,"[1, 0]",left,1,222,26,f,y,y,2019_Apr_25_1400,2AFC_task,59.93109127864803,
stimuli/rgb_scene000005_render000003.png,stimuli/rgb_scene000005_render000006.png,0,15,15,38,"[1, 0]",right,0,222,26,f,y,y,2019_Apr_25_1400,2AFC_task,59.93109127864803,
stimuli/rgb_scene000113_render000003.png,stimuli/rgb_scene000113_render000005.png,0,16,16,163,"[1, 0]",left,1,222,26,f,y,y,2019_Apr_25_1400,2AFC_task,59.93109127864803,
stimuli/rgb_scene000004_render000002.png,stimuli/rgb_scene000004_render000005.png,0,17,17,13,"[1, 0]",left,1,222,26,f,y,y,2019_Apr_25_1400,2AFC_task,59.93109127864803,
stimuli/rgb_scene000096_render000000.png,stimuli/rgb_scene000096_render000001.png,0,18,18,105,"[1, 0]",left,1,222,26,f,y,y,2019_Apr_25_1400,2AFC_task,59.93109127864803,
stimuli/rgb_scene000096_render000003.png,stimuli/rgb_scene000096_render000004.png,0,19,19,120,"[1, 0]",left,1,222,26,f,y,y,2019_Apr_25_1400,2AFC_task,59.93109127864803,
stimuli/rgb_scene000102_render000003.png,stimuli/rgb_scene000102_render000006.png,0,20,20,143,"[1, 0]",left,1,222,26,f,y,y,2019_Apr_25_1400,2AFC_task,59.93109127864803,
stimuli/rgb_scene000146_render000002.png,stimuli/rgb_scene000146_render000005.png,0,21,21,181,"[1, 0]",left,1,222,26,f,y,y,2019_Apr_25_1400,2AFC_task,59.93109127864803,
stimuli/rgb_scene000146_render000003.png,stimuli/rgb_scene000146_render000005.png,0,22,22,184,"[0, 1]",right,1,222,26,f,y,y,2019_Apr_25_1400,2AFC_task,59.93109127864803,
stimuli/rgb_scene000004_render000002.png,stimuli/rgb_scene000004_render000004.png,0,23,23,12,"[1, 0]",left,1,222,26,f,y,y,2019_Apr_25_1400,2AFC_task,59.93109127864803,
stimuli/rgb_scene000012_render000003.png,stimuli/rgb_scene000012_render000004.png,0,24,24,57,"[1, 0]",left,1,222,26,f,y,y,2019_Apr_25_1400,2AFC_task,59.93109127864803,
stimuli/rgb_scene000102_render000000.png,stimuli/rgb_scene000102_render000006.png,0,25,25,131,"[1, 0]",left,1,222,26,f,y,y,2019_Apr_25_1400,2AFC_task,59.93109127864803,
stimuli/rgb_scene000012_render000002.png,stimuli/rgb_scene000012_render000005.png,0,26,26,55,"[0, 1]",right,1,222,26,f,y,y,2019_Apr_25_1400,2AFC_task,59.93109127864803,
stimuli/rgb_scene000146_render000000.png,stimuli/rgb_scene000146_render000004.png,0,27,27,171,"[0, 1]",right,1,222,26,f,y,y,2019_Apr_25_1400,2AFC_task,59.93109127864803,
stimuli/rgb_scene000102_render000000.png,stimuli/rgb_scene000102_render000004.png,0,28,28,129,"[1, 0]",left,1,222,26,f,y,y,2019_Apr_25_1400,2AFC_task,59.93109127864803,
stimuli/rgb_scene000012_render000001.png,stimuli/rgb_scene000012_render000005.png,0,29,29,51,"[0, 1]",right,1,222,26,f,y,y,2019_Apr_25_1400,2AFC_task,59.93109127864803,
stimuli/rgb_scene000090_render000000.png,stimuli/rgb_scene000090_render000003.png,0,30,30,65,"[1, 0]",left,1,222,26,f,y,y,2019_Apr_25_1400,2AFC_task,59.93109127864803,
stimuli/rgb_scene000005_render000002.png,stimuli/rgb_scene000005_render000005.png,0,31,31,34,"[1, 0]",right,0,222,26,f,y,y,2019_Apr_25_1400,2AFC_task,59.93109127864803,
stimuli/rgb_scene000004_render000000.png,stimuli/rgb_scene000004_render000004.png,0,32,32,3,"[1, 0]",left,1,222,26,f,y,y,2019_Apr_25_1400,2AFC_task,59.93109127864803,
stimuli/rgb_scene000005_render000000.png,stimuli/rgb_scene000005_render000005.png,0,33,33,25,"[0, 1]",left,0,222,26,f,y,y,2019_Apr_25_1400,2AFC_task,59.93109127864803,
stimuli/rgb_scene000102_render000001.png,stimuli/rgb_scene000102_render000005.png,0,34,34,135,"[0, 1]",right,1,222,26,f,y,y,2019_Apr_25_1400,2AFC_task,59.93109127864803,
stimuli/rgb_scene000012_render000000.png,stimuli/rgb_scene000012_render000004.png,0,35,35,45,"[1, 0]",left,1,222,26,f,y,y,2019_Apr_25_1400,2AFC_task,59.93109127864803,
stimuli/rgb_scene000102_render000001.png,stimuli/rgb_scene000102_render000003.png,0,36,36,133,"[1, 0]",left,1,222,26,f,y,y,2019_Apr_25_1400,2AFC_task,59.93109127864803,
stimuli/rgb_scene000102_render000001.png,stimuli/rgb_scene000102_render000002.png,0,37,37,132,"[1, 0]",left,1,222,26,f,y,y,2019_Apr_25_1400,2AFC_task,59.93109127864803,
stimuli/rgb_scene000146_render000001.png,stimuli/rgb_scene000146_render000003.png,0,38,38,175,"[0, 1]",right,1,222,26,f,y,y,2019_Apr_25_1400,2AFC_task,59.93109127864803,
stimuli/rgb_scene000005_render000000.png,stimuli/rgb_scene000005_render000003.png,0,39,39,23,"[1, 0]",left,1,222,26,f,y,y,2019_Apr_25_1400,2AFC_task,59.93109127864803,
stimuli/rgb_scene000146_render000001.png,stimuli/rgb_scene000146_render000004.png,0,40,40,176,"[1, 0]",left,1,222,26,f,y,y,2019_Apr_25_1400,2AFC_task,59.93109127864803,
stimuli/rgb_scene000090_render000003.png,stimuli/rgb_scene000090_render000004.png,0,41,41,78,"[0, 1]",right,1,222,26,f,y,y,2019_Apr_25_1400,2AFC_task,59.93109127864803,
stimuli/rgb_scene000004_render000000.png,stimuli/rgb_scene000004_render000006.png,0,42,42,5,"[0, 1]",right,1,222,26,f,y,y,2019_Apr_25_1400,2AFC_task,59.93109127864803,
stimuli/rgb_scene000096_render000003.png,stimuli/rgb_scene000096_render000006.png,0,43,43,122,"[1, 0]",left,1,222,26,f,y,y,2019_Apr_25_1400,2AFC_task,59.93109127864803,
stimuli/rgb_scene000113_render000004.png,stimuli/rgb_scene000113_render000005.png,0,44,44,165,"[1, 0]",left,1,222,26,f,y,y,2019_Apr_25_1400,2AFC_task,59.93109127864803,
stimuli/rgb_scene000113_render000000.png,stimuli/rgb_scene000113_render000004.png,0,45,45,150,"[1, 0]",left,1,222,26,f,y,y,2019_Apr_25_1400,2AFC_task,59.93109127864803,
stimuli/rgb_scene000146_render000001.png,stimuli/rgb_scene000146_render000002.png,0,46,46,174,"[0, 1]",right,1,222,26,f,y,y,2019_Apr_25_1400,2AFC_task,59.93109127864803,
stimuli/rgb_scene000195_render000003.png,stimuli/rgb_scene000195_render000006.png,0,47,47,206,"[0, 1]",left,0,222,26,f,y,y,2019_Apr_25_1400,2AFC_task,59.93109127864803,
stimuli/rgb_scene000096_render000001.png,stimuli/rgb_scene000096_render000004.png,0,48,48,113,"[1, 0]",left,1,222,26,f,y,y,2019_Apr_25_1400,2AFC_task,59.93109127864803,
stimuli/rgb_scene000090_render000001.png,stimuli/rgb_scene000090_render000004.png,0,49,49,71,"[0, 1]",left,0,222,26,f,y,y,2019_Apr_25_1400,2AFC_task,59.93109127864803,
stimuli/rgb_scene000195_render000001.png,stimuli/rgb_scene000195_render000005.png,0,50,50,198,"[1, 0]",right,0,222,26,f,y,y,2019_Apr_25_1400,2AFC_task,59.93109127864803,
stimuli/rgb_scene000113_render000005.png,stimuli/rgb_scene000113_render000006.png,0,51,51,167,"[0, 1]",right,1,222,26,f,y,y,2019_Apr_25_1400,2AFC_task,59.93109127864803,
stimuli/rgb_scene000004_render000000.png,stimuli/rgb_scene000004_render000003.png,0,52,52,2,"[0, 1]",right,1,222,26,f,y,y,2019_Apr_25_1400,2AFC_task,59.93109127864803,
stimuli/rgb_scene000113_render000001.png,stimuli/rgb_scene000113_render000005.png,0,53,53,156,"[0, 1]",right,1,222,26,f,y,y,2019_Apr_25_1400,2AFC_task,59.93109127864803,
stimuli/rgb_scene000004_render000000.png,stimuli/rgb_scene000004_render000001.png,0,54,54,0,"[0, 1]",right,1,222,26,f,y,y,2019_Apr_25_1400,2AFC_task,59.93109127864803,
stimuli/rgb_scene000102_render000002.png,stimuli/rgb_scene000102_render000004.png,0,55,55,138,"[1, 0]",left,1,222,26,f,y,y,2019_Apr_25_1400,2AFC_task,59.93109127864803,
stimuli/rgb_scene000090_render000001.png,stimuli/rgb_scene000090_render000005.png,0,56,56,72,"[0, 1]",left,0,222,26,f,y,y,2019_Apr_25_1400,2AFC_task,59.93109127864803,
stimuli/rgb_scene000195_render000001.png,stimuli/rgb_scene000195_render000006.png,0,57,57,199,"[1, 0]",right,0,222,26,f,y,y,2019_Apr_25_1400,2AFC_task,59.93109127864803,
stimuli/rgb_scene000096_render000000.png,stimuli/rgb_scene000096_render000006.png,0,58,58,110,"[1, 0]",left,1,222,26,f,y,y,2019_Apr_25_1400,2AFC_task,59.93109127864803,
stimuli/rgb_scene000090_render000000.png,stimuli/rgb_scene000090_render000006.png,0,59,59,68,"[0, 1]",left,0,222,26,f,y,y,2019_Apr_25_1400,2AFC_task,59.93109127864803,
stimuli/rgb_scene000095_render000004.png,stimuli/rgb_scene000095_render000006.png,0,60,60,103,"[1, 0]",left,1,222,26,f,y,y,2019_Apr_25_1400,2AFC_task,59.93109127864803,
stimuli/rgb_scene000004_render000003.png,stimuli/rgb_scene000004_render000006.png,0,61,61,17,"[1, 0]",left,1,222,26,f,y,y,2019_Apr_25_1400,2AFC_task,59.93109127864803,
stimuli/rgb_scene000005_render000002.png,stimuli/rgb_scene000005_render000003.png,0,62,62,32,"[1, 0]",left,1,222,26,f,y,y,2019_Apr_25_1400,2AFC_task,59.93109127864803,
stimuli/rgb_scene000005_render000000.png,stimuli/rgb_scene000005_render000006.png,0,63,63,26,"[1, 0]",right,0,222,26,f,y,y,2019_Apr_25_1400,2AFC_task,59.93109127864803,
stimuli/rgb_scene000113_render000003.png,stimuli/rgb_scene000113_render000004.png,0,64,64,162,"[1, 0]",left,1,222,26,f,y,y,2019_Apr_25_1400,2AFC_task,59.93109127864803,
stimuli/rgb_scene000095_render000005.png,stimuli/rgb_scene000095_render000006.png,0,65,65,104,"[1, 0]",left,1,222,26,f,y,y,2019_Apr_25_1400,2AFC_task,59.93109127864803,
stimuli/rgb_scene000004_render000002.png,stimuli/rgb_scene000004_render000006.png,0,66,66,14,"[1, 0]",left,1,222,26,f,y,y,2019_Apr_25_1400,2AFC_task,59.93109127864803,
stimuli/rgb_scene000146_render000000.png,stimuli/rgb_scene000146_render000005.png,0,67,67,172,"[1, 0]",left,1,222,26,f,y,y,2019_Apr_25_1400,2AFC_task,59.93109127864803,
stimuli/rgb_scene000102_render000004.png,stimuli/rgb_scene000102_render000006.png,0,68,68,145,"[1, 0]",left,1,222,26,f,y,y,2019_Apr_25_1400,2AFC_task,59.93109127864803,
stimuli/rgb_scene000113_render000002.png,stimuli/rgb_scene000113_render000003.png,0,69,69,158,"[1, 0]",left,1,222,26,f,y,y,2019_Apr_25_1400,2AFC_task,59.93109127864803,
stimuli/rgb_scene000096_render000002.png,stimuli/rgb_scene000096_render000005.png,0,70,70,118,"[1, 0]",left,1,222,26,f,y,y,2019_Apr_25_1400,2AFC_task,59.93109127864803,
stimuli/rgb_scene000090_render000000.png,stimuli/rgb_scene000090_render000005.png,0,71,71,67,"[1, 0]",right,0,222,26,f,y,y,2019_Apr_25_1400,2AFC_task,59.93109127864803,
stimuli/rgb_scene000005_render000005.png,stimuli/rgb_scene000005_render000006.png,0,72,72,41,"[1, 0]",right,0,222,26,f,y,y,2019_Apr_25_1400,2AFC_task,59.93109127864803,
stimuli/rgb_scene000005_render000001.png,stimuli/rgb_scene000005_render000006.png,0,73,73,31,"[1, 0]",right,0,222,26,f,y,y,2019_Apr_25_1400,2AFC_task,59.93109127864803,
stimuli/rgb_scene000090_render000004.png,stimuli/rgb_scene000090_render000006.png,0,74,74,82,"[0, 1]",left,0,222,26,f,y,y,2019_Apr_25_1400,2AFC_task,59.93109127864803,
stimuli/rgb_scene000195_render000002.png,stimuli/rgb_scene000195_render000005.png,0,75,75,202,"[1, 0]",right,0,222,26,f,y,y,2019_Apr_25_1400,2AFC_task,59.93109127864803,
stimuli/rgb_scene000095_render000001.png,stimuli/rgb_scene000095_render000003.png,0,76,76,91,"[1, 0]",left,1,222,26,f,y,y,2019_Apr_25_1400,2AFC_task,59.93109127864803,
stimuli/rgb_scene000146_render000000.png,stimuli/rgb_scene000146_render000002.png,0,77,77,169,"[1, 0]",left,1,222,26,f,y,y,2019_Apr_25_1400,2AFC_task,59.93109127864803,
stimuli/rgb_scene000095_render000001.png,stimuli/rgb_scene000095_render000004.png,0,78,78,92,"[0, 1]",right,1,222,26,f,y,y,2019_Apr_25_1400,2AFC_task,59.93109127864803,
stimuli/rgb_scene000195_render000000.png,stimuli/rgb_scene000195_render000001.png,0,79,79,189,"[1, 0]",right,0,222,26,f,y,y,2019_Apr_25_1400,2AFC_task,59.93109127864803,
stimuli/rgb_scene000095_render000002.png,stimuli/rgb_scene000095_render000004.png,0,80,80,96,"[1, 0]",left,1,222,26,f,y,y,2019_Apr_25_1400,2AFC_task,59.93109127864803,
stimuli/rgb_scene000195_render000004.png,stimuli/rgb_scene000195_render000006.png,0,81,81,208,"[1, 0]",right,0,222,26,f,y,y,2019_Apr_25_1400,2AFC_task,59.93109127864803,
stimuli/rgb_scene000090_render000003.png,stimuli/rgb_scene000090_render000005.png,0,82,82,79,"[1, 0]",right,0,222,26,f,y,y,2019_Apr_25_1400,2AFC_task,59.93109127864803,
stimuli/rgb_scene000005_render000002.png,stimuli/rgb_scene000005_render000004.png,0,83,83,33,"[1, 0]",right,0,222,26,f,y,y,2019_Apr_25_1400,2AFC_task,59.93109127864803,
stimuli/rgb_scene000095_render000000.png,stimuli/rgb_scene000095_render000006.png,0,84,84,89,"[1, 0]",left,1,222,26,f,y,y,2019_Apr_25_1400,2AFC_task,59.93109127864803,
stimuli/rgb_scene000012_render000003.png,stimuli/rgb_scene000012_render000006.png,0,85,85,59,"[1, 0]",right,0,222,26,f,y,y,2019_Apr_25_1400,2AFC_task,59.93109127864803,
stimuli/rgb_scene000095_render000001.png,stimuli/rgb_scene000095_render000002.png,0,86,86,90,"[1, 0]",left,1,222,26,f,y,y,2019_Apr_25_1400,2AFC_task,59.93109127864803,
stimuli/rgb_scene000195_render000003.png,stimuli/rgb_scene000195_render000004.png,0,87,87,204,"[0, 1]",left,0,222,26,f,y,y,2019_Apr_25_1400,2AFC_task,59.93109127864803,
stimuli/rgb_scene000012_render000002.png,stimuli/rgb_scene000012_render000003.png,0,88,88,53,"[0, 1]",right,1,222,26,f,y,y,2019_Apr_25_1400,2AFC_task,59.93109127864803,
stimuli/rgb_scene000095_render000001.png,stimuli/rgb_scene000095_render000005.png,0,89,89,93,"[0, 1]",right,1,222,26,f,y,y,2019_Apr_25_1400,2AFC_task,59.93109127864803,
stimuli/rgb_scene000096_render000000.png,stimuli/rgb_scene000096_render000005.png,0,90,90,109,"[1, 0]",left,1,222,26,f,y,y,2019_Apr_25_1400,2AFC_task,59.93109127864803,
stimuli/rgb_scene000005_render000001.png,stimuli/rgb_scene000005_render000003.png,0,91,91,28,"[1, 0]",right,0,222,26,f,y,y,2019_Apr_25_1400,2AFC_task,59.93109127864803,
stimuli/rgb_scene000095_render000002.png,stimuli/rgb_scene000095_render000005.png,0,92,92,97,"[1, 0]",left,1,222,26,f,y,y,2019_Apr_25_1400,2AFC_task,59.93109127864803,
stimuli/rgb_scene000090_render000002.png,stimuli/rgb_scene000090_render000005.png,0,93,93,76,"[1, 0]",right,0,222,26,f,y,y,2019_Apr_25_1400,2AFC_task,59.93109127864803,
stimuli/rgb_scene000095_render000003.png,stimuli/rgb_scene000095_render000005.png,0,94,94,100,"[1, 0]",left,1,222,26,f,y,y,2019_Apr_25_1400,2AFC_task,59.93109127864803,
stimuli/rgb_scene000012_render000005.png,stimuli/rgb_scene000012_render000006.png,0,95,95,62,"[0, 1]",right,1,222,26,f,y,y,2019_Apr_25_1400,2AFC_task,59.93109127864803,
stimuli/rgb_scene000004_render000001.png,stimuli/rgb_scene000004_render000004.png,0,96,96,8,"[1, 0]",left,1,222,26,f,y,y,2019_Apr_25_1400,2AFC_task,59.93109127864803,
stimuli/rgb_scene000090_render000000.png,stimuli/rgb_scene000090_render000001.png,0,97,97,63,"[1, 0]",right,0,222,26,f,y,y,2019_Apr_25_1400,2AFC_task,59.93109127864803,
stimuli/rgb_scene000102_render000000.png,stimuli/rgb_scene000102_render000005.png,0,98,98,130,"[1, 0]",left,1,222,26,f,y,y,2019_Apr_25_1400,2AFC_task,59.93109127864803,
stimuli/rgb_scene000004_render000001.png,stimuli/rgb_scene000004_render000006.png,0,99,99,10,"[0, 1]",right,1,222,26,f,y,y,2019_Apr_25_1400,2AFC_task,59.93109127864803,
stimuli/rgb_scene000113_render000001.png,stimuli/rgb_scene000113_render000006.png,0,100,100,157,"[0, 1]",right,1,222,26,f,y,y,2019_Apr_25_1400,2AFC_task,59.93109127864803,
stimuli/rgb_scene000096_render000000.png,stimuli/rgb_scene000096_render000002.png,0,101,101,106,"[0, 1]",right,1,222,26,f,y,y,2019_Apr_25_1400,2AFC_task,59.93109127864803,
stimuli/rgb_scene000146_render000001.png,stimuli/rgb_scene000146_render000006.png,0,102,102,178,"[0, 1]",right,1,222,26,f,y,y,2019_Apr_25_1400,2AFC_task,59.93109127864803,
stimuli/rgb_scene000146_render000000.png,stimuli/rgb_scene000146_render000001.png,0,103,103,168,"[0, 1]",right,1,222,26,f,y,y,2019_Apr_25_1400,2AFC_task,59.93109127864803,
stimuli/rgb_scene000195_render000001.png,stimuli/rgb_scene000195_render000002.png,0,104,104,195,"[1, 0]",right,0,222,26,f,y,y,2019_Apr_25_1400,2AFC_task,59.93109127864803,
stimuli/rgb_scene000004_render000000.png,stimuli/rgb_scene000004_render000005.png,0,105,105,4,"[1, 0]",left,1,222,26,f,y,y,2019_Apr_25_1400,2AFC_task,59.93109127864803,
stimuli/rgb_scene000004_render000001.png,stimuli/rgb_scene000004_render000005.png,0,106,106,9,"[0, 1]",right,1,222,26,f,y,y,2019_Apr_25_1400,2AFC_task,59.93109127864803,
stimuli/rgb_scene000113_render000000.png,stimuli/rgb_scene000113_render000002.png,0,107,107,148,"[0, 1]",right,1,222,26,f,y,y,2019_Apr_25_1400,2AFC_task,59.93109127864803,
stimuli/rgb_scene000004_render000003.png,stimuli/rgb_scene000004_render000005.png,0,108,108,16,"[0, 1]",right,1,222,26,f,y,y,2019_Apr_25_1400,2AFC_task,59.93109127864803,
stimuli/rgb_scene000195_render000004.png,stimuli/rgb_scene000195_render000005.png,0,109,109,207,"[0, 1]",left,0,222,26,f,y,y,2019_Apr_25_1400,2AFC_task,59.93109127864803,
stimuli/rgb_scene000090_render000001.png,stimuli/rgb_scene000090_render000002.png,0,110,110,69,"[0, 1]",right,1,222,26,f,y,y,2019_Apr_25_1400,2AFC_task,59.93109127864803,
stimuli/rgb_scene000012_render000002.png,stimuli/rgb_scene000012_render000006.png,0,111,111,56,"[1, 0]",left,1,222,26,f,y,y,2019_Apr_25_1400,2AFC_task,59.93109127864803,
stimuli/rgb_scene000012_render000002.png,stimuli/rgb_scene000012_render000004.png,0,112,112,54,"[0, 1]",right,1,222,26,f,y,y,2019_Apr_25_1400,2AFC_task,59.93109127864803,
stimuli/rgb_scene000113_render000002.png,stimuli/rgb_scene000113_render000006.png,0,113,113,161,"[1, 0]",left,1,222,26,f,y,y,2019_Apr_25_1400,2AFC_task,59.93109127864803,
stimuli/rgb_scene000090_render000002.png,stimuli/rgb_scene000090_render000006.png,0,114,114,77,"[0, 1]",left,0,222,26,f,y,y,2019_Apr_25_1400,2AFC_task,59.93109127864803,
stimuli/rgb_scene000113_render000001.png,stimuli/rgb_scene000113_render000003.png,0,115,115,154,"[0, 1]",right,1,222,26,f,y,y,2019_Apr_25_1400,2AFC_task,59.93109127864803,
stimuli/rgb_scene000012_render000000.png,stimuli/rgb_scene000012_render000003.png,0,116,116,44,"[1, 0]",left,1,222,26,f,y,y,2019_Apr_25_1400,2AFC_task,59.93109127864803,
stimuli/rgb_scene000012_render000004.png,stimuli/rgb_scene000012_render000006.png,0,117,117,61,"[0, 1]",left,0,222,26,f,y,y,2019_Apr_25_1400,2AFC_task,59.93109127864803,
stimuli/rgb_scene000090_render000002.png,stimuli/rgb_scene000090_render000004.png,0,118,118,75,"[0, 1]",left,0,222,26,f,y,y,2019_Apr_25_1400,2AFC_task,59.93109127864803,
stimuli/rgb_scene000195_render000003.png,stimuli/rgb_scene000195_render000005.png,0,119,119,205,"[0, 1]",left,0,222,26,f,y,y,2019_Apr_25_1400,2AFC_task,59.93109127864803,
stimuli/rgb_scene000146_render000002.png,stimuli/rgb_scene000146_render000004.png,0,120,120,180,"[0, 1]",right,1,222,26,f,y,y,2019_Apr_25_1400,2AFC_task,59.93109127864803,
stimuli/rgb_scene000095_render000000.png,stimuli/rgb_scene000095_render000001.png,0,121,121,84,"[1, 0]",left,1,222,26,f,y,y,2019_Apr_25_1400,2AFC_task,59.93109127864803,
stimuli/rgb_scene000095_render000002.png,stimuli/rgb_scene000095_render000003.png,0,122,122,95,"[1, 0]",left,1,222,26,f,y,y,2019_Apr_25_1400,2AFC_task,59.93109127864803,
stimuli/rgb_scene000096_render000001.png,stimuli/rgb_scene000096_render000006.png,0,123,123,115,"[0, 1]",right,1,222,26,f,y,y,2019_Apr_25_1400,2AFC_task,59.93109127864803,
stimuli/rgb_scene000005_render000003.png,stimuli/rgb_scene000005_render000005.png,0,124,124,37,"[0, 1]",left,0,222,26,f,y,y,2019_Apr_25_1400,2AFC_task,59.93109127864803,
stimuli/rgb_scene000095_render000003.png,stimuli/rgb_scene000095_render000006.png,0,125,125,101,"[1, 0]",left,1,222,26,f,y,y,2019_Apr_25_1400,2AFC_task,59.93109127864803,
stimuli/rgb_scene000004_render000001.png,stimuli/rgb_scene000004_render000002.png,0,126,126,6,"[1, 0]",left,1,222,26,f,y,y,2019_Apr_25_1400,2AFC_task,59.93109127864803,
stimuli/rgb_scene000096_render000000.png,stimuli/rgb_scene000096_render000004.png,0,127,127,108,"[0, 1]",right,1,222,26,f,y,y,2019_Apr_25_1400,2AFC_task,59.93109127864803,
stimuli/rgb_scene000113_render000000.png,stimuli/rgb_scene000113_render000001.png,0,128,128,147,"[1, 0]",left,1,222,26,f,y,y,2019_Apr_25_1400,2AFC_task,59.93109127864803,
stimuli/rgb_scene000090_render000001.png,stimuli/rgb_scene000090_render000003.png,0,129,129,70,"[1, 0]",right,0,222,26,f,y,y,2019_Apr_25_1400,2AFC_task,59.93109127864803,
stimuli/rgb_scene000005_render000001.png,stimuli/rgb_scene000005_render000004.png,0,130,130,29,"[0, 1]",left,0,222,26,f,y,y,2019_Apr_25_1400,2AFC_task,59.93109127864803,
stimuli/rgb_scene000005_render000001.png,stimuli/rgb_scene000005_render000002.png,0,131,131,27,"[0, 1]",right,1,222,26,f,y,y,2019_Apr_25_1400,2AFC_task,59.93109127864803,
stimuli/rgb_scene000096_render000004.png,stimuli/rgb_scene000096_render000006.png,0,132,132,124,"[0, 1]",right,1,222,26,f,y,y,2019_Apr_25_1400,2AFC_task,59.93109127864803,
stimuli/rgb_scene000146_render000001.png,stimuli/rgb_scene000146_render000005.png,0,133,133,177,"[0, 1]",right,1,222,26,f,y,y,2019_Apr_25_1400,2AFC_task,59.93109127864803,
stimuli/rgb_scene000102_render000001.png,stimuli/rgb_scene000102_render000004.png,0,134,134,134,"[0, 1]",right,1,222,26,f,y,y,2019_Apr_25_1400,2AFC_task,59.93109127864803,
stimuli/rgb_scene000095_render000000.png,stimuli/rgb_scene000095_render000005.png,0,135,135,88,"[0, 1]",right,1,222,26,f,y,y,2019_Apr_25_1400,2AFC_task,59.93109127864803,
stimuli/rgb_scene000146_render000004.png,stimuli/rgb_scene000146_render000006.png,0,136,136,187,"[1, 0]",left,1,222,26,f,y,y,2019_Apr_25_1400,2AFC_task,59.93109127864803,
stimuli/rgb_scene000005_render000000.png,stimuli/rgb_scene000005_render000002.png,0,137,137,22,"[0, 1]",right,1,222,26,f,y,y,2019_Apr_25_1400,2AFC_task,59.93109127864803,
stimuli/rgb_scene000095_render000002.png,stimuli/rgb_scene000095_render000006.png,0,138,138,98,"[0, 1]",right,1,222,26,f,y,y,2019_Apr_25_1400,2AFC_task,59.93109127864803,
stimuli/rgb_scene000095_render000000.png,stimuli/rgb_scene000095_render000004.png,0,139,139,87,"[1, 0]",left,1,222,26,f,y,y,2019_Apr_25_1400,2AFC_task,59.93109127864803,
stimuli/rgb_scene000096_render000001.png,stimuli/rgb_scene000096_render000002.png,0,140,140,111,"[1, 0]",left,1,222,26,f,y,y,2019_Apr_25_1400,2AFC_task,59.93109127864803,
stimuli/rgb_scene000012_render000000.png,stimuli/rgb_scene000012_render000001.png,0,141,141,42,"[1, 0]",left,1,222,26,f,y,y,2019_Apr_25_1400,2AFC_task,59.93109127864803,
stimuli/rgb_scene000102_render000004.png,stimuli/rgb_scene000102_render000005.png,0,142,142,144,"[1, 0]",left,1,222,26,f,y,y,2019_Apr_25_1400,2AFC_task,59.93109127864803,
stimuli/rgb_scene000005_render000000.png,stimuli/rgb_scene000005_render000004.png,0,143,143,24,"[0, 1]",left,0,222,26,f,y,y,2019_Apr_25_1400,2AFC_task,59.93109127864803,
stimuli/rgb_scene000004_render000004.png,stimuli/rgb_scene000004_render000006.png,0,144,144,19,"[1, 0]",left,1,222,26,f,y,y,2019_Apr_25_1400,2AFC_task,59.93109127864803,
stimuli/rgb_scene000012_render000001.png,stimuli/rgb_scene000012_render000006.png,0,145,145,52,"[0, 1]",right,1,222,26,f,y,y,2019_Apr_25_1400,2AFC_task,59.93109127864803,
stimuli/rgb_scene000005_render000004.png,stimuli/rgb_scene000005_render000006.png,0,146,146,40,"[1, 0]",right,0,222,26,f,y,y,2019_Apr_25_1400,2AFC_task,59.93109127864803,
stimuli/rgb_scene000090_render000000.png,stimuli/rgb_scene000090_render000004.png,0,147,147,66,"[0, 1]",left,0,222,26,f,y,y,2019_Apr_25_1400,2AFC_task,59.93109127864803,
stimuli/rgb_scene000195_render000001.png,stimuli/rgb_scene000195_render000004.png,0,148,148,197,"[0, 1]",left,0,222,26,f,y,y,2019_Apr_25_1400,2AFC_task,59.93109127864803,
stimuli/rgb_scene000005_render000004.png,stimuli/rgb_scene000005_render000005.png,0,149,149,39,"[0, 1]",left,0,222,26,f,y,y,2019_Apr_25_1400,2AFC_task,59.93109127864803,
stimuli/rgb_scene000195_render000002.png,stimuli/rgb_scene000195_render000006.png,0,150,150,203,"[0, 1]",left,0,222,26,f,y,y,2019_Apr_25_1400,2AFC_task,59.93109127864803,
stimuli/rgb_scene000012_render000001.png,stimuli/rgb_scene000012_render000004.png,0,151,151,50,"[1, 0]",left,1,222,26,f,y,y,2019_Apr_25_1400,2AFC_task,59.93109127864803,
stimuli/rgb_scene000096_render000001.png,stimuli/rgb_scene000096_render000005.png,0,152,152,114,"[0, 1]",right,1,222,26,f,y,y,2019_Apr_25_1400,2AFC_task,59.93109127864803,
stimuli/rgb_scene000146_render000000.png,stimuli/rgb_scene000146_render000003.png,0,153,153,170,"[1, 0]",left,1,222,26,f,y,y,2019_Apr_25_1400,2AFC_task,59.93109127864803,
stimuli/rgb_scene000195_render000001.png,stimuli/rgb_scene000195_render000003.png,0,154,154,196,"[1, 0]",right,0,222,26,f,y,y,2019_Apr_25_1400,2AFC_task,59.93109127864803,
stimuli/rgb_scene000004_render000001.png,stimuli/rgb_scene000004_render000003.png,0,155,155,7,"[0, 1]",right,1,222,26,f,y,y,2019_Apr_25_1400,2AFC_task,59.93109127864803,
stimuli/rgb_scene000195_render000002.png,stimuli/rgb_scene000195_render000003.png,0,156,156,200,"[1, 0]",right,0,222,26,f,y,y,2019_Apr_25_1400,2AFC_task,59.93109127864803,
stimuli/rgb_scene000090_render000002.png,stimuli/rgb_scene000090_render000003.png,0,157,157,74,"[0, 1]",left,0,222,26,f,y,y,2019_Apr_25_1400,2AFC_task,59.93109127864803,
stimuli/rgb_scene000102_render000002.png,stimuli/rgb_scene000102_render000005.png,0,158,158,139,"[1, 0]",left,1,222,26,f,y,y,2019_Apr_25_1400,2AFC_task,59.93109127864803,
stimuli/rgb_scene000113_render000001.png,stimuli/rgb_scene000113_render000002.png,0,159,159,153,"[0, 1]",right,1,222,26,f,y,y,2019_Apr_25_1400,2AFC_task,59.93109127864803,
stimuli/rgb_scene000005_render000000.png,stimuli/rgb_scene000005_render000001.png,0,160,160,21,"[1, 0]",left,1,222,26,f,y,y,2019_Apr_25_1400,2AFC_task,59.93109127864803,
stimuli/rgb_scene000005_render000002.png,stimuli/rgb_scene000005_render000006.png,0,161,161,35,"[0, 1]",left,0,222,26,f,y,y,2019_Apr_25_1400,2AFC_task,59.93109127864803,
stimuli/rgb_scene000195_render000000.png,stimuli/rgb_scene000195_render000006.png,0,162,162,194,"[0, 1]",left,0,222,26,f,y,y,2019_Apr_25_1400,2AFC_task,59.93109127864803,
stimuli/rgb_scene000012_render000001.png,stimuli/rgb_scene000012_render000003.png,0,163,163,49,"[0, 1]",right,1,222,26,f,y,y,2019_Apr_25_1400,2AFC_task,59.93109127864803,
stimuli/rgb_scene000096_render000002.png,stimuli/rgb_scene000096_render000003.png,0,164,164,116,"[0, 1]",right,1,222,26,f,y,y,2019_Apr_25_1400,2AFC_task,59.93109127864803,
stimuli/rgb_scene000090_render000003.png,stimuli/rgb_scene000090_render000006.png,0,165,165,80,"[0, 1]",left,0,222,26,f,y,y,2019_Apr_25_1400,2AFC_task,59.93109127864803,
stimuli/rgb_scene000096_render000004.png,stimuli/rgb_scene000096_render000005.png,0,166,166,123,"[0, 1]",right,1,222,26,f,y,y,2019_Apr_25_1400,2AFC_task,59.93109127864803,
stimuli/rgb_scene000102_render000000.png,stimuli/rgb_scene000102_render000002.png,0,167,167,127,"[1, 0]",left,1,222,26,f,y,y,2019_Apr_25_1400,2AFC_task,59.93109127864803,
stimuli/rgb_scene000146_render000003.png,stimuli/rgb_scene000146_render000006.png,0,168,168,185,"[1, 0]",left,1,222,26,f,y,y,2019_Apr_25_1400,2AFC_task,59.93109127864803,
stimuli/rgb_scene000012_render000000.png,stimuli/rgb_scene000012_render000005.png,0,169,169,46,"[0, 1]",right,1,222,26,f,y,y,2019_Apr_25_1400,2AFC_task,59.93109127864803,
stimuli/rgb_scene000102_render000002.png,stimuli/rgb_scene000102_render000006.png,0,170,170,140,"[1, 0]",left,1,222,26,f,y,y,2019_Apr_25_1400,2AFC_task,59.93109127864803,
stimuli/rgb_scene000102_render000000.png,stimuli/rgb_scene000102_render000001.png,0,171,171,126,"[0, 1]",right,1,222,26,f,y,y,2019_Apr_25_1400,2AFC_task,59.93109127864803,
stimuli/rgb_scene000195_render000005.png,stimuli/rgb_scene000195_render000006.png,0,172,172,209,"[1, 0]",right,0,222,26,f,y,y,2019_Apr_25_1400,2AFC_task,59.93109127864803,
stimuli/rgb_scene000096_render000001.png,stimuli/rgb_scene000096_render000003.png,0,173,173,112,"[0, 1]",right,1,222,26,f,y,y,2019_Apr_25_1400,2AFC_task,59.93109127864803,
stimuli/rgb_scene000113_render000002.png,stimuli/rgb_scene000113_render000004.png,0,174,174,159,"[0, 1]",right,1,222,26,f,y,y,2019_Apr_25_1400,2AFC_task,59.93109127864803,
stimuli/rgb_scene000113_render000000.png,stimuli/rgb_scene000113_render000005.png,0,175,175,151,"[0, 1]",right,1,222,26,f,y,y,2019_Apr_25_1400,2AFC_task,59.93109127864803,
stimuli/rgb_scene000195_render000000.png,stimuli/rgb_scene000195_render000002.png,0,176,176,190,"[1, 0]",left,1,222,26,f,y,y,2019_Apr_25_1400,2AFC_task,59.93109127864803,
stimuli/rgb_scene000012_render000003.png,stimuli/rgb_scene000012_render000005.png,0,177,177,58,"[1, 0]",left,1,222,26,f,y,y,2019_Apr_25_1400,2AFC_task,59.93109127864803,
stimuli/rgb_scene000195_render000000.png,stimuli/rgb_scene000195_render000005.png,0,178,178,193,"[0, 1]",left,0,222,26,f,y,y,2019_Apr_25_1400,2AFC_task,59.93109127864803,
stimuli/rgb_scene000146_render000002.png,stimuli/rgb_scene000146_render000006.png,0,179,179,182,"[0, 1]",right,1,222,26,f,y,y,2019_Apr_25_1400,2AFC_task,59.93109127864803,
stimuli/rgb_scene000113_render000001.png,stimuli/rgb_scene000113_render000004.png,0,180,180,155,"[0, 1]",right,1,222,26,f,y,y,2019_Apr_25_1400,2AFC_task,59.93109127864803,
stimuli/rgb_scene000195_render000000.png,stimuli/rgb_scene000195_render000004.png,0,181,181,192,"[1, 0]",left,1,222,26,f,y,y,2019_Apr_25_1400,2AFC_task,59.93109127864803,
stimuli/rgb_scene000004_render000002.png,stimuli/rgb_scene000004_render000003.png,0,182,182,11,"[0, 1]",right,1,222,26,f,y,y,2019_Apr_25_1400,2AFC_task,59.93109127864803,
stimuli/rgb_scene000113_render000003.png,stimuli/rgb_scene000113_render000006.png,0,183,183,164,"[0, 1]",right,1,222,26,f,y,y,2019_Apr_25_1400,2AFC_task,59.93109127864803,
stimuli/rgb_scene000095_render000004.png,stimuli/rgb_scene000095_render000005.png,0,184,184,102,"[1, 0]",left,1,222,26,f,y,y,2019_Apr_25_1400,2AFC_task,59.93109127864803,
stimuli/rgb_scene000096_render000002.png,stimuli/rgb_scene000096_render000006.png,0,185,185,119,"[1, 0]",left,1,222,26,f,y,y,2019_Apr_25_1400,2AFC_task,59.93109127864803,
stimuli/rgb_scene000146_render000003.png,stimuli/rgb_scene000146_render000004.png,0,186,186,183,"[0, 1]",right,1,222,26,f,y,y,2019_Apr_25_1400,2AFC_task,59.93109127864803,
stimuli/rgb_scene000195_render000000.png,stimuli/rgb_scene000195_render000003.png,0,187,187,191,"[1, 0]",left,1,222,26,f,y,y,2019_Apr_25_1400,2AFC_task,59.93109127864803,
stimuli/rgb_scene000146_render000004.png,stimuli/rgb_scene000146_render000005.png,0,188,188,186,"[0, 1]",right,1,222,26,f,y,y,2019_Apr_25_1400,2AFC_task,59.93109127864803,
stimuli/rgb_scene000113_render000000.png,stimuli/rgb_scene000113_render000006.png,0,189,189,152,"[1, 0]",left,1,222,26,f,y,y,2019_Apr_25_1400,2AFC_task,59.93109127864803,
stimuli/rgb_scene000095_render000000.png,stimuli/rgb_scene000095_render000002.png,0,190,190,85,"[1, 0]",left,1,222,26,f,y,y,2019_Apr_25_1400,2AFC_task,59.93109127864803,
stimuli/rgb_scene000102_render000005.png,stimuli/rgb_scene000102_render000006.png,0,191,191,146,"[1, 0]",left,1,222,26,f,y,y,2019_Apr_25_1400,2AFC_task,59.93109127864803,
stimuli/rgb_scene000113_render000000.png,stimuli/rgb_scene000113_render000003.png,0,192,192,149,"[0, 1]",right,1,222,26,f,y,y,2019_Apr_25_1400,2AFC_task,59.93109127864803,
stimuli/rgb_scene000113_render000004.png,stimuli/rgb_scene000113_render000006.png,0,193,193,166,"[0, 1]",right,1,222,26,f,y,y,2019_Apr_25_1400,2AFC_task,59.93109127864803,
stimuli/rgb_scene000146_render000005.png,stimuli/rgb_scene000146_render000006.png,0,194,194,188,"[0, 1]",right,1,222,26,f,y,y,2019_Apr_25_1400,2AFC_task,59.93109127864803,
stimuli/rgb_scene000095_render000000.png,stimuli/rgb_scene000095_render000003.png,0,195,195,86,"[1, 0]",left,1,222,26,f,y,y,2019_Apr_25_1400,2AFC_task,59.93109127864803,
stimuli/rgb_scene000195_render000002.png,stimuli/rgb_scene000195_render000004.png,0,196,196,201,"[0, 1]",left,0,222,26,f,y,y,2019_Apr_25_1400,2AFC_task,59.93109127864803,
stimuli/rgb_scene000096_render000003.png,stimuli/rgb_scene000096_render000005.png,0,197,197,121,"[0, 1]",right,1,222,26,f,y,y,2019_Apr_25_1400,2AFC_task,59.93109127864803,
stimuli/rgb_scene000004_render000004.png,stimuli/rgb_scene000004_render000005.png,0,198,198,18,"[1, 0]",left,1,222,26,f,y,y,2019_Apr_25_1400,2AFC_task,59.93109127864803,
stimuli/rgb_scene000090_render000005.png,stimuli/rgb_scene000090_render000006.png,0,199,199,83,"[0, 1]",left,0,222,26,f,y,y,2019_Apr_25_1400,2AFC_task,59.93109127864803,
stimuli/rgb_scene000095_render000001.png,stimuli/rgb_scene000095_render000006.png,0,200,200,94,"[1, 0]",left,1,222,26,f,y,y,2019_Apr_25_1400,2AFC_task,59.93109127864803,
stimuli/rgb_scene000096_render000002.png,stimuli/rgb_scene000096_render000004.png,0,201,201,117,"[0, 1]",right,1,222,26,f,y,y,2019_Apr_25_1400,2AFC_task,59.93109127864803,
stimuli/rgb_scene000096_render000005.png,stimuli/rgb_scene000096_render000006.png,0,202,202,125,"[0, 1]",right,1,222,26,f,y,y,2019_Apr_25_1400,2AFC_task,59.93109127864803,
stimuli/rgb_scene000102_render000000.png,stimuli/rgb_scene000102_render000003.png,0,203,203,128,"[0, 1]",right,1,222,26,f,y,y,2019_Apr_25_1400,2AFC_task,59.93109127864803,
stimuli/rgb_scene000095_render000003.png,stimuli/rgb_scene000095_render000004.png,0,204,204,99,"[1, 0]",left,1,222,26,f,y,y,2019_Apr_25_1400,2AFC_task,59.93109127864803,
stimuli/rgb_scene000090_render000001.png,stimuli/rgb_scene000090_render000006.png,0,205,205,73,"[0, 1]",left,0,222,26,f,y,y,2019_Apr_25_1400,2AFC_task,59.93109127864803,
stimuli/rgb_scene000113_render000002.png,stimuli/rgb_scene000113_render000005.png,0,206,206,160,"[0, 1]",right,1,222,26,f,y,y,2019_Apr_25_1400,2AFC_task,59.93109127864803,
stimuli/rgb_scene000090_render000004.png,stimuli/rgb_scene000090_render000005.png,0,207,207,81,"[1, 0]",left,1,222,26,f,y,y,2019_Apr_25_1400,2AFC_task,59.93109127864803,
stimuli/rgb_scene000004_render000005.png,stimuli/rgb_scene000004_render000006.png,0,208,208,20,"[1, 0]",left,1,222,26,f,y,y,2019_Apr_25_1400,2AFC_task,59.93109127864803,
stimuli/rgb_scene000102_render000002.png,stimuli/rgb_scene000102_render000003.png,0,209,209,137,"[0, 1]",right,1,222,26,f,y,y,2019_Apr_25_1400,2AFC_task,59.93109127864803,
stimuli/rgb_scene000005_render000003.png,stimuli/rgb_scene000005_render000004.png,1,0,210,36,"[1, 0]",right,0,222,26,f,y,y,2019_Apr_25_1400,2AFC_task,59.93109127864803,
stimuli/rgb_scene000146_render000004.png,stimuli/rgb_scene000146_render000006.png,1,1,211,187,"[1, 0]",left,1,222,26,f,y,y,2019_Apr_25_1400,2AFC_task,59.93109127864803,
stimuli/rgb_scene000146_render000000.png,stimuli/rgb_scene000146_render000003.png,1,2,212,170,"[1, 0]",left,1,222,26,f,y,y,2019_Apr_25_1400,2AFC_task,59.93109127864803,
stimuli/rgb_scene000102_render000000.png,stimuli/rgb_scene000102_render000004.png,1,3,213,129,"[1, 0]",left,1,222,26,f,y,y,2019_Apr_25_1400,2AFC_task,59.93109127864803,
stimuli/rgb_scene000095_render000000.png,stimuli/rgb_scene000095_render000001.png,1,4,214,84,"[0, 1]",right,1,222,26,f,y,y,2019_Apr_25_1400,2AFC_task,59.93109127864803,
stimuli/rgb_scene000146_render000000.png,stimuli/rgb_scene000146_render000002.png,1,5,215,169,"[0, 1]",right,1,222,26,f,y,y,2019_Apr_25_1400,2AFC_task,59.93109127864803,
stimuli/rgb_scene000095_render000003.png,stimuli/rgb_scene000095_render000004.png,1,6,216,99,"[0, 1]",right,1,222,26,f,y,y,2019_Apr_25_1400,2AFC_task,59.93109127864803,
stimuli/rgb_scene000146_render000002.png,stimuli/rgb_scene000146_render000006.png,1,7,217,182,"[1, 0]",left,1,222,26,f,y,y,2019_Apr_25_1400,2AFC_task,59.93109127864803,
stimuli/rgb_scene000102_render000002.png,stimuli/rgb_scene000102_render000005.png,1,8,218,139,"[1, 0]",left,1,222,26,f,y,y,2019_Apr_25_1400,2AFC_task,59.93109127864803,
stimuli/rgb_scene000005_render000000.png,stimuli/rgb_scene000005_render000006.png,1,9,219,26,"[0, 1]",left,0,222,26,f,y,y,2019_Apr_25_1400,2AFC_task,59.93109127864803,
stimuli/rgb_scene000090_render000003.png,stimuli/rgb_scene000090_render000005.png,1,10,220,79,"[1, 0]",right,0,222,26,f,y,y,2019_Apr_25_1400,2AFC_task,59.93109127864803,
stimuli/rgb_scene000195_render000002.png,stimuli/rgb_scene000195_render000004.png,1,11,221,201,"[1, 0]",right,0,222,26,f,y,y,2019_Apr_25_1400,2AFC_task,59.93109127864803,
stimuli/rgb_scene000012_render000003.png,stimuli/rgb_scene000012_render000005.png,1,12,222,58,"[1, 0]",left,1,222,26,f,y,y,2019_Apr_25_1400,2AFC_task,59.93109127864803,
stimuli/rgb_scene000004_render000001.png,stimuli/rgb_scene000004_render000002.png,1,13,223,6,"[0, 1]",right,1,222,26,f,y,y,2019_Apr_25_1400,2AFC_task,59.93109127864803,
stimuli/rgb_scene000004_render000002.png,stimuli/rgb_scene000004_render000003.png,1,14,224,11,"[0, 1]",right,1,222,26,f,y,y,2019_Apr_25_1400,2AFC_task,59.93109127864803,
stimuli/rgb_scene000102_render000004.png,stimuli/rgb_scene000102_render000006.png,1,15,225,145,"[1, 0]",left,1,222,26,f,y,y,2019_Apr_25_1400,2AFC_task,59.93109127864803,
stimuli/rgb_scene000113_render000000.png,stimuli/rgb_scene000113_render000004.png,1,16,226,150,"[1, 0]",left,1,222,26,f,y,y,2019_Apr_25_1400,2AFC_task,59.93109127864803,
stimuli/rgb_scene000146_render000003.png,stimuli/rgb_scene000146_render000005.png,1,17,227,184,"[1, 0]",left,1,222,26,f,y,y,2019_Apr_25_1400,2AFC_task,59.93109127864803,
stimuli/rgb_scene000146_render000000.png,stimuli/rgb_scene000146_render000005.png,1,18,228,172,"[1, 0]",left,1,222,26,f,y,y,2019_Apr_25_1400,2AFC_task,59.93109127864803,
stimuli/rgb_scene000113_render000003.png,stimuli/rgb_scene000113_render000005.png,1,19,229,163,"[1, 0]",left,1,222,26,f,y,y,2019_Apr_25_1400,2AFC_task,59.93109127864803,
stimuli/rgb_scene000090_render000001.png,stimuli/rgb_scene000090_render000003.png,1,20,230,70,"[0, 1]",left,0,222,26,f,y,y,2019_Apr_25_1400,2AFC_task,59.93109127864803,
stimuli/rgb_scene000102_render000000.png,stimuli/rgb_scene000102_render000006.png,1,21,231,131,"[0, 1]",right,1,222,26,f,y,y,2019_Apr_25_1400,2AFC_task,59.93109127864803,
stimuli/rgb_scene000102_render000001.png,stimuli/rgb_scene000102_render000006.png,1,22,232,136,"[1, 0]",left,1,222,26,f,y,y,2019_Apr_25_1400,2AFC_task,59.93109127864803,
stimuli/rgb_scene000096_render000001.png,stimuli/rgb_scene000096_render000004.png,1,23,233,113,"[0, 1]",right,1,222,26,f,y,y,2019_Apr_25_1400,2AFC_task,59.93109127864803,
stimuli/rgb_scene000012_render000001.png,stimuli/rgb_scene000012_render000002.png,1,24,234,48,"[1, 0]",left,1,222,26,f,y,y,2019_Apr_25_1400,2AFC_task,59.93109127864803,
stimuli/rgb_scene000005_render000003.png,stimuli/rgb_scene000005_render000006.png,1,25,235,38,"[1, 0]",right,0,222,26,f,y,y,2019_Apr_25_1400,2AFC_task,59.93109127864803,
stimuli/rgb_scene000096_render000001.png,stimuli/rgb_scene000096_render000002.png,1,26,236,111,"[1, 0]",left,1,222,26,f,y,y,2019_Apr_25_1400,2AFC_task,59.93109127864803,
stimuli/rgb_scene000113_render000002.png,stimuli/rgb_scene000113_render000003.png,1,27,237,158,"[1, 0]",left,1,222,26,f,y,y,2019_Apr_25_1400,2AFC_task,59.93109127864803,
stimuli/rgb_scene000146_render000004.png,stimuli/rgb_scene000146_render000005.png,1,28,238,186,"[1, 0]",left,1,222,26,f,y,y,2019_Apr_25_1400,2AFC_task,59.93109127864803,
stimuli/rgb_scene000005_render000000.png,stimuli/rgb_scene000005_render000003.png,1,29,239,23,"[0, 1]",right,1,222,26,f,y,y,2019_Apr_25_1400,2AFC_task,59.93109127864803,
stimuli/rgb_scene000195_render000000.png,stimuli/rgb_scene000195_render000005.png,1,30,240,193,"[0, 1]",left,0,222,26,f,y,y,2019_Apr_25_1400,2AFC_task,59.93109127864803,
stimuli/rgb_scene000102_render000004.png,stimuli/rgb_scene000102_render000005.png,1,31,241,144,"[1, 0]",left,1,222,26,f,y,y,2019_Apr_25_1400,2AFC_task,59.93109127864803,
stimuli/rgb_scene000095_render000002.png,stimuli/rgb_scene000095_render000003.png,1,32,242,95,"[0, 1]",right,1,222,26,f,y,y,2019_Apr_25_1400,2AFC_task,59.93109127864803,
stimuli/rgb_scene000102_render000000.png,stimuli/rgb_scene000102_render000002.png,1,33,243,127,"[1, 0]",left,1,222,26,f,y,y,2019_Apr_25_1400,2AFC_task,59.93109127864803,
stimuli/rgb_scene000102_render000001.png,stimuli/rgb_scene000102_render000004.png,1,34,244,134,"[1, 0]",left,1,222,26,f,y,y,2019_Apr_25_1400,2AFC_task,59.93109127864803,
stimuli/rgb_scene000113_render000003.png,stimuli/rgb_scene000113_render000004.png,1,35,245,162,"[0, 1]",right,1,222,26,f,y,y,2019_Apr_25_1400,2AFC_task,59.93109127864803,
stimuli/rgb_scene000096_render000003.png,stimuli/rgb_scene000096_render000005.png,1,36,246,121,"[0, 1]",right,1,222,26,f,y,y,2019_Apr_25_1400,2AFC_task,59.93109127864803,
stimuli/rgb_scene000096_render000002.png,stimuli/rgb_scene000096_render000004.png,1,37,247,117,"[0, 1]",right,1,222,26,f,y,y,2019_Apr_25_1400,2AFC_task,59.93109127864803,
stimuli/rgb_scene000012_render000003.png,stimuli/rgb_scene000012_render000004.png,1,38,248,57,"[1, 0]",left,1,222,26,f,y,y,2019_Apr_25_1400,2AFC_task,59.93109127864803,
stimuli/rgb_scene000095_render000001.png,stimuli/rgb_scene000095_render000006.png,1,39,249,94,"[1, 0]",left,1,222,26,f,y,y,2019_Apr_25_1400,2AFC_task,59.93109127864803,
stimuli/rgb_scene000195_render000002.png,stimuli/rgb_scene000195_render000003.png,1,40,250,200,"[0, 1]",right,1,222,26,f,y,y,2019_Apr_25_1400,2AFC_task,59.93109127864803,
stimuli/rgb_scene000090_render000002.png,stimuli/rgb_scene000090_render000003.png,1,41,251,74,"[1, 0]",right,0,222,26,f,y,y,2019_Apr_25_1400,2AFC_task,59.93109127864803,
stimuli/rgb_scene000096_render000003.png,stimuli/rgb_scene000096_render000004.png,1,42,252,120,"[0, 1]",right,1,222,26,f,y,y,2019_Apr_25_1400,2AFC_task,59.93109127864803,
stimuli/rgb_scene000102_render000003.png,stimuli/rgb_scene000102_render000004.png,1,43,253,141,"[0, 1]",right,1,222,26,f,y,y,2019_Apr_25_1400,2AFC_task,59.93109127864803,
stimuli/rgb_scene000012_render000000.png,stimuli/rgb_scene000012_render000005.png,1,44,254,46,"[1, 0]",left,1,222,26,f,y,y,2019_Apr_25_1400,2AFC_task,59.93109127864803,
stimuli/rgb_scene000090_render000002.png,stimuli/rgb_scene000090_render000004.png,1,45,255,75,"[0, 1]",left,0,222,26,f,y,y,2019_Apr_25_1400,2AFC_task,59.93109127864803,
stimuli/rgb_scene000004_render000000.png,stimuli/rgb_scene000004_render000002.png,1,46,256,1,"[0, 1]",right,1,222,26,f,y,y,2019_Apr_25_1400,2AFC_task,59.93109127864803,
stimuli/rgb_scene000095_render000000.png,stimuli/rgb_scene000095_render000003.png,1,47,257,86,"[1, 0]",left,1,222,26,f,y,y,2019_Apr_25_1400,2AFC_task,59.93109127864803,
stimuli/rgb_scene000102_render000001.png,stimuli/rgb_scene000102_render000003.png,1,48,258,133,"[0, 1]",right,1,222,26,f,y,y,2019_Apr_25_1400,2AFC_task,59.93109127864803,
stimuli/rgb_scene000095_render000003.png,stimuli/rgb_scene000095_render000006.png,1,49,259,101,"[1, 0]",left,1,222,26,f,y,y,2019_Apr_25_1400,2AFC_task,59.93109127864803,
stimuli/rgb_scene000102_render000001.png,stimuli/rgb_scene000102_render000002.png,1,50,260,132,"[0, 1]",right,1,222,26,f,y,y,2019_Apr_25_1400,2AFC_task,59.93109127864803,
stimuli/rgb_scene000090_render000000.png,stimuli/rgb_scene000090_render000005.png,1,51,261,67,"[1, 0]",right,0,222,26,f,y,y,2019_Apr_25_1400,2AFC_task,59.93109127864803,
stimuli/rgb_scene000012_render000001.png,stimuli/rgb_scene000012_render000006.png,1,52,262,52,"[0, 1]",right,1,222,26,f,y,y,2019_Apr_25_1400,2AFC_task,59.93109127864803,
stimuli/rgb_scene000146_render000001.png,stimuli/rgb_scene000146_render000002.png,1,53,263,174,"[0, 1]",right,1,222,26,f,y,y,2019_Apr_25_1400,2AFC_task,59.93109127864803,
stimuli/rgb_scene000195_render000005.png,stimuli/rgb_scene000195_render000006.png,1,54,264,209,"[0, 1]",left,0,222,26,f,y,y,2019_Apr_25_1400,2AFC_task,59.93109127864803,
stimuli/rgb_scene000113_render000000.png,stimuli/rgb_scene000113_render000003.png,1,55,265,149,"[0, 1]",right,1,222,26,f,y,y,2019_Apr_25_1400,2AFC_task,59.93109127864803,
stimuli/rgb_scene000012_render000004.png,stimuli/rgb_scene000012_render000006.png,1,56,266,61,"[1, 0]",right,0,222,26,f,y,y,2019_Apr_25_1400,2AFC_task,59.93109127864803,
stimuli/rgb_scene000195_render000001.png,stimuli/rgb_scene000195_render000003.png,1,57,267,196,"[0, 1]",right,1,222,26,f,y,y,2019_Apr_25_1400,2AFC_task,59.93109127864803,
stimuli/rgb_scene000096_render000002.png,stimuli/rgb_scene000096_render000006.png,1,58,268,119,"[0, 1]",right,1,222,26,f,y,y,2019_Apr_25_1400,2AFC_task,59.93109127864803,
stimuli/rgb_scene000005_render000004.png,stimuli/rgb_scene000005_render000005.png,1,59,269,39,"[0, 1]",left,0,222,26,f,y,y,2019_Apr_25_1400,2AFC_task,59.93109127864803,
stimuli/rgb_scene000005_render000003.png,stimuli/rgb_scene000005_render000005.png,1,60,270,37,"[0, 1]",left,0,222,26,f,y,y,2019_Apr_25_1400,2AFC_task,59.93109127864803,
stimuli/rgb_scene000090_render000000.png,stimuli/rgb_scene000090_render000003.png,1,61,271,65,"[1, 0]",left,1,222,26,f,y,y,2019_Apr_25_1400,2AFC_task,59.93109127864803,
stimuli/rgb_scene000195_render000003.png,stimuli/rgb_scene000195_render000005.png,1,62,272,205,"[1, 0]",right,0,222,26,f,y,y,2019_Apr_25_1400,2AFC_task,59.93109127864803,
stimuli/rgb_scene000096_render000000.png,stimuli/rgb_scene000096_render000005.png,1,63,273,109,"[1, 0]",left,1,222,26,f,y,y,2019_Apr_25_1400,2AFC_task,59.93109127864803,
stimuli/rgb_scene000146_render000001.png,stimuli/rgb_scene000146_render000006.png,1,64,274,178,"[1, 0]",left,1,222,26,f,y,y,2019_Apr_25_1400,2AFC_task,59.93109127864803,
stimuli/rgb_scene000005_render000000.png,stimuli/rgb_scene000005_render000004.png,1,65,275,24,"[0, 1]",left,0,222,26,f,y,y,2019_Apr_25_1400,2AFC_task,59.93109127864803,
stimuli/rgb_scene000096_render000001.png,stimuli/rgb_scene000096_render000003.png,1,66,276,112,"[0, 1]",right,1,222,26,f,y,y,2019_Apr_25_1400,2AFC_task,59.93109127864803,
stimuli/rgb_scene000005_render000002.png,stimuli/rgb_scene000005_render000005.png,1,67,277,34,"[0, 1]",left,0,222,26,f,y,y,2019_Apr_25_1400,2AFC_task,59.93109127864803,
stimuli/rgb_scene000004_render000004.png,stimuli/rgb_scene000004_render000006.png,1,68,278,19,"[1, 0]",left,1,222,26,f,y,y,2019_Apr_25_1400,2AFC_task,59.93109127864803,
stimuli/rgb_scene000113_render000001.png,stimuli/rgb_scene000113_render000004.png,1,69,279,155,"[0, 1]",right,1,222,26,f,y,y,2019_Apr_25_1400,2AFC_task,59.93109127864803,
stimuli/rgb_scene000095_render000001.png,stimuli/rgb_scene000095_render000002.png,1,70,280,90,"[1, 0]",left,1,222,26,f,y,y,2019_Apr_25_1400,2AFC_task,59.93109127864803,
stimuli/rgb_scene000113_render000003.png,stimuli/rgb_scene000113_render000006.png,1,71,281,164,"[0, 1]",right,1,222,26,f,y,y,2019_Apr_25_1400,2AFC_task,59.93109127864803,
stimuli/rgb_scene000004_render000002.png,stimuli/rgb_scene000004_render000006.png,1,72,282,14,"[0, 1]",right,1,222,26,f,y,y,2019_Apr_25_1400,2AFC_task,59.93109127864803,
stimuli/rgb_scene000095_render000000.png,stimuli/rgb_scene000095_render000004.png,1,73,283,87,"[0, 1]",right,1,222,26,f,y,y,2019_Apr_25_1400,2AFC_task,59.93109127864803,
stimuli/rgb_scene000096_render000000.png,stimuli/rgb_scene000096_render000001.png,1,74,284,105,"[0, 1]",right,1,222,26,f,y,y,2019_Apr_25_1400,2AFC_task,59.93109127864803,
stimuli/rgb_scene000113_render000002.png,stimuli/rgb_scene000113_render000004.png,1,75,285,159,"[1, 0]",left,1,222,26,f,y,y,2019_Apr_25_1400,2AFC_task,59.93109127864803,
stimuli/rgb_scene000090_render000000.png,stimuli/rgb_scene000090_render000006.png,1,76,286,68,"[0, 1]",right,1,222,26,f,y,y,2019_Apr_25_1400,2AFC_task,59.93109127864803,
stimuli/rgb_scene000096_render000000.png,stimuli/rgb_scene000096_render000002.png,1,77,287,106,"[0, 1]",right,1,222,26,f,y,y,2019_Apr_25_1400,2AFC_task,59.93109127864803,
stimuli/rgb_scene000004_render000001.png,stimuli/rgb_scene000004_render000003.png,1,78,288,7,"[1, 0]",left,1,222,26,f,y,y,2019_Apr_25_1400,2AFC_task,59.93109127864803,
stimuli/rgb_scene000113_render000001.png,stimuli/rgb_scene000113_render000002.png,1,79,289,153,"[1, 0]",left,1,222,26,f,y,y,2019_Apr_25_1400,2AFC_task,59.93109127864803,
stimuli/rgb_scene000004_render000000.png,stimuli/rgb_scene000004_render000003.png,1,80,290,2,"[1, 0]",left,1,222,26,f,y,y,2019_Apr_25_1400,2AFC_task,59.93109127864803,
stimuli/rgb_scene000195_render000003.png,stimuli/rgb_scene000195_render000004.png,1,81,291,204,"[1, 0]",left,1,222,26,f,y,y,2019_Apr_25_1400,2AFC_task,59.93109127864803,
stimuli/rgb_scene000095_render000001.png,stimuli/rgb_scene000095_render000003.png,1,82,292,91,"[0, 1]",right,1,222,26,f,y,y,2019_Apr_25_1400,2AFC_task,59.93109127864803,
stimuli/rgb_scene000090_render000000.png,stimuli/rgb_scene000090_render000001.png,1,83,293,63,"[1, 0]",left,1,222,26,f,y,y,2019_Apr_25_1400,2AFC_task,59.93109127864803,
stimuli/rgb_scene000102_render000005.png,stimuli/rgb_scene000102_render000006.png,1,84,294,146,"[0, 1]",left,0,222,26,f,y,y,2019_Apr_25_1400,2AFC_task,59.93109127864803,
stimuli/rgb_scene000012_render000005.png,stimuli/rgb_scene000012_render000006.png,1,85,295,62,"[0, 1]",right,1,222,26,f,y,y,2019_Apr_25_1400,2AFC_task,59.93109127864803,
stimuli/rgb_scene000146_render000001.png,stimuli/rgb_scene000146_render000003.png,1,86,296,175,"[1, 0]",left,1,222,26,f,y,y,2019_Apr_25_1400,2AFC_task,59.93109127864803,
stimuli/rgb_scene000004_render000003.png,stimuli/rgb_scene000004_render000004.png,1,87,297,15,"[1, 0]",left,1,222,26,f,y,y,2019_Apr_25_1400,2AFC_task,59.93109127864803,
stimuli/rgb_scene000012_render000000.png,stimuli/rgb_scene000012_render000006.png,1,88,298,47,"[0, 1]",right,1,222,26,f,y,y,2019_Apr_25_1400,2AFC_task,59.93109127864803,
stimuli/rgb_scene000195_render000000.png,stimuli/rgb_scene000195_render000004.png,1,89,299,192,"[1, 0]",left,1,222,26,f,y,y,2019_Apr_25_1400,2AFC_task,59.93109127864803,
stimuli/rgb_scene000012_render000003.png,stimuli/rgb_scene000012_render000006.png,1,90,300,59,"[1, 0]",right,0,222,26,f,y,y,2019_Apr_25_1400,2AFC_task,59.93109127864803,
stimuli/rgb_scene000095_render000000.png,stimuli/rgb_scene000095_render000002.png,1,91,301,85,"[1, 0]",left,1,222,26,f,y,y,2019_Apr_25_1400,2AFC_task,59.93109127864803,
stimuli/rgb_scene000102_render000001.png,stimuli/rgb_scene000102_render000005.png,1,92,302,135,"[0, 1]",right,1,222,26,f,y,y,2019_Apr_25_1400,2AFC_task,59.93109127864803,
stimuli/rgb_scene000102_render000000.png,stimuli/rgb_scene000102_render000001.png,1,93,303,126,"[1, 0]",left,1,222,26,f,y,y,2019_Apr_25_1400,2AFC_task,59.93109127864803,
stimuli/rgb_scene000004_render000000.png,stimuli/rgb_scene000004_render000005.png,1,94,304,4,"[0, 1]",right,1,222,26,f,y,y,2019_Apr_25_1400,2AFC_task,59.93109127864803,
stimuli/rgb_scene000012_render000000.png,stimuli/rgb_scene000012_render000002.png,1,95,305,43,"[1, 0]",left,1,222,26,f,y,y,2019_Apr_25_1400,2AFC_task,59.93109127864803,
stimuli/rgb_scene000012_render000002.png,stimuli/rgb_scene000012_render000003.png,1,96,306,53,"[1, 0]",left,1,222,26,f,y,y,2019_Apr_25_1400,2AFC_task,59.93109127864803,
stimuli/rgb_scene000102_render000000.png,stimuli/rgb_scene000102_render000003.png,1,97,307,128,"[1, 0]",left,1,222,26,f,y,y,2019_Apr_25_1400,2AFC_task,59.93109127864803,
stimuli/rgb_scene000146_render000000.png,stimuli/rgb_scene000146_render000004.png,1,98,308,171,"[0, 1]",right,1,222,26,f,y,y,2019_Apr_25_1400,2AFC_task,59.93109127864803,
stimuli/rgb_scene000004_render000001.png,stimuli/rgb_scene000004_render000004.png,1,99,309,8,"[0, 1]",right,1,222,26,f,y,y,2019_Apr_25_1400,2AFC_task,59.93109127864803,
stimuli/rgb_scene000113_render000000.png,stimuli/rgb_scene000113_render000001.png,1,100,310,147,"[1, 0]",left,1,222,26,f,y,y,2019_Apr_25_1400,2AFC_task,59.93109127864803,
stimuli/rgb_scene000004_render000001.png,stimuli/rgb_scene000004_render000006.png,1,101,311,10,"[1, 0]",left,1,222,26,f,y,y,2019_Apr_25_1400,2AFC_task,59.93109127864803,
stimuli/rgb_scene000095_render000002.png,stimuli/rgb_scene000095_render000005.png,1,102,312,97,"[0, 1]",right,1,222,26,f,y,y,2019_Apr_25_1400,2AFC_task,59.93109127864803,
stimuli/rgb_scene000113_render000004.png,stimuli/rgb_scene000113_render000006.png,1,103,313,166,"[0, 1]",right,1,222,26,f,y,y,2019_Apr_25_1400,2AFC_task,59.93109127864803,
stimuli/rgb_scene000146_render000000.png,stimuli/rgb_scene000146_render000006.png,1,104,314,173,"[0, 1]",right,1,222,26,f,y,y,2019_Apr_25_1400,2AFC_task,59.93109127864803,
stimuli/rgb_scene000095_render000000.png,stimuli/rgb_scene000095_render000005.png,1,105,315,88,"[1, 0]",left,1,222,26,f,y,y,2019_Apr_25_1400,2AFC_task,59.93109127864803,
stimuli/rgb_scene000113_render000001.png,stimuli/rgb_scene000113_render000006.png,1,106,316,157,"[0, 1]",right,1,222,26,f,y,y,2019_Apr_25_1400,2AFC_task,59.93109127864803,
stimuli/rgb_scene000090_render000002.png,stimuli/rgb_scene000090_render000005.png,1,107,317,76,"[0, 1]",left,0,222,26,f,y,y,2019_Apr_25_1400,2AFC_task,59.93109127864803,
stimuli/rgb_scene000090_render000000.png,stimuli/rgb_scene000090_render000002.png,1,108,318,64,"[0, 1]",right,1,222,26,f,y,y,2019_Apr_25_1400,2AFC_task,59.93109127864803,
stimuli/rgb_scene000195_render000002.png,stimuli/rgb_scene000195_render000006.png,1,109,319,203,"[1, 0]",right,0,222,26,f,y,y,2019_Apr_25_1400,2AFC_task,59.93109127864803,
stimuli/rgb_scene000195_render000000.png,stimuli/rgb_scene000195_render000003.png,1,110,320,191,"[0, 1]",right,1,222,26,f,y,y,2019_Apr_25_1400,2AFC_task,59.93109127864803,
stimuli/rgb_scene000102_render000003.png,stimuli/rgb_scene000102_render000006.png,1,111,321,143,"[0, 1]",right,1,222,26,f,y,y,2019_Apr_25_1400,2AFC_task,59.93109127864803,
stimuli/rgb_scene000095_render000004.png,stimuli/rgb_scene000095_render000006.png,1,112,322,103,"[0, 1]",right,1,222,26,f,y,y,2019_Apr_25_1400,2AFC_task,59.93109127864803,
stimuli/rgb_scene000195_render000003.png,stimuli/rgb_scene000195_render000006.png,1,113,323,206,"[1, 0]",right,0,222,26,f,y,y,2019_Apr_25_1400,2AFC_task,59.93109127864803,
stimuli/rgb_scene000005_render000000.png,stimuli/rgb_scene000005_render000005.png,1,114,324,25,"[1, 0]",left,1,222,26,f,y,y,2019_Apr_25_1400,2AFC_task,59.93109127864803,
stimuli/rgb_scene000096_render000005.png,stimuli/rgb_scene000096_render000006.png,1,115,325,125,"[1, 0]",left,1,222,26,f,y,y,2019_Apr_25_1400,2AFC_task,59.93109127864803,
stimuli/rgb_scene000195_render000000.png,stimuli/rgb_scene000195_render000006.png,1,116,326,194,"[0, 1]",left,0,222,26,f,y,y,2019_Apr_25_1400,2AFC_task,59.93109127864803,
stimuli/rgb_scene000005_render000001.png,stimuli/rgb_scene000005_render000002.png,1,117,327,27,"[1, 0]",left,1,222,26,f,y,y,2019_Apr_25_1400,2AFC_task,59.93109127864803,
stimuli/rgb_scene000102_render000002.png,stimuli/rgb_scene000102_render000004.png,1,118,328,138,"[0, 1]",right,1,222,26,f,y,y,2019_Apr_25_1400,2AFC_task,59.93109127864803,
stimuli/rgb_scene000102_render000000.png,stimuli/rgb_scene000102_render000005.png,1,119,329,130,"[1, 0]",left,1,222,26,f,y,y,2019_Apr_25_1400,2AFC_task,59.93109127864803,
stimuli/rgb_scene000012_render000001.png,stimuli/rgb_scene000012_render000005.png,1,120,330,51,"[1, 0]",left,1,222,26,f,y,y,2019_Apr_25_1400,2AFC_task,59.93109127864803,
stimuli/rgb_scene000096_render000000.png,stimuli/rgb_scene000096_render000004.png,1,121,331,108,"[0, 1]",right,1,222,26,f,y,y,2019_Apr_25_1400,2AFC_task,59.93109127864803,
stimuli/rgb_scene000195_render000001.png,stimuli/rgb_scene000195_render000006.png,1,122,332,199,"[0, 1]",right,1,222,26,f,y,y,2019_Apr_25_1400,2AFC_task,59.93109127864803,
stimuli/rgb_scene000012_render000001.png,stimuli/rgb_scene000012_render000004.png,1,123,333,50,"[0, 1]",right,1,222,26,f,y,y,2019_Apr_25_1400,2AFC_task,59.93109127864803,
stimuli/rgb_scene000004_render000004.png,stimuli/rgb_scene000004_render000005.png,1,124,334,18,"[1, 0]",left,1,222,26,f,y,y,2019_Apr_25_1400,2AFC_task,59.93109127864803,
stimuli/rgb_scene000005_render000002.png,stimuli/rgb_scene000005_render000003.png,1,125,335,32,"[0, 1]",right,1,222,26,f,y,y,2019_Apr_25_1400,2AFC_task,59.93109127864803,
stimuli/rgb_scene000146_render000001.png,stimuli/rgb_scene000146_render000004.png,1,126,336,176,"[0, 1]",right,1,222,26,f,y,y,2019_Apr_25_1400,2AFC_task,59.93109127864803,
stimuli/rgb_scene000195_render000001.png,stimuli/rgb_scene000195_render000004.png,1,127,337,197,"[0, 1]",right,1,222,26,f,y,y,2019_Apr_25_1400,2AFC_task,59.93109127864803,
stimuli/rgb_scene000096_render000002.png,stimuli/rgb_scene000096_render000003.png,1,128,338,116,"[1, 0]",left,1,222,26,f,y,y,2019_Apr_25_1400,2AFC_task,59.93109127864803,
stimuli/rgb_scene000096_render000002.png,stimuli/rgb_scene000096_render000005.png,1,129,339,118,"[0, 1]",right,1,222,26,f,y,y,2019_Apr_25_1400,2AFC_task,59.93109127864803,
stimuli/rgb_scene000012_render000000.png,stimuli/rgb_scene000012_render000001.png,1,130,340,42,"[0, 1]",right,1,222,26,f,y,y,2019_Apr_25_1400,2AFC_task,59.93109127864803,
stimuli/rgb_scene000195_render000001.png,stimuli/rgb_scene000195_render000002.png,1,131,341,195,"[0, 1]",right,1,222,26,f,y,y,2019_Apr_25_1400,2AFC_task,59.93109127864803,
stimuli/rgb_scene000005_render000002.png,stimuli/rgb_scene000005_render000006.png,1,132,342,35,"[1, 0]",right,0,222,26,f,y,y,2019_Apr_25_1400,2AFC_task,59.93109127864803,
stimuli/rgb_scene000012_render000002.png,stimuli/rgb_scene000012_render000006.png,1,133,343,56,"[1, 0]",left,1,222,26,f,y,y,2019_Apr_25_1400,2AFC_task,59.93109127864803,
stimuli/rgb_scene000004_render000003.png,stimuli/rgb_scene000004_render000005.png,1,134,344,16,"[0, 1]",right,1,222,26,f,y,y,2019_Apr_25_1400,2AFC_task,59.93109127864803,
stimuli/rgb_scene000090_render000003.png,stimuli/rgb_scene000090_render000004.png,1,135,345,78,"[0, 1]",right,1,222,26,f,y,y,2019_Apr_25_1400,2AFC_task,59.93109127864803,
stimuli/rgb_scene000095_render000005.png,stimuli/rgb_scene000095_render000006.png,1,136,346,104,"[1, 0]",left,1,222,26,f,y,y,2019_Apr_25_1400,2AFC_task,59.93109127864803,
stimuli/rgb_scene000113_render000004.png,stimuli/rgb_scene000113_render000005.png,1,137,347,165,"[1, 0]",left,1,222,26,f,y,y,2019_Apr_25_1400,2AFC_task,59.93109127864803,
stimuli/rgb_scene000096_render000003.png,stimuli/rgb_scene000096_render000006.png,1,138,348,122,"[1, 0]",left,1,222,26,f,y,y,2019_Apr_25_1400,2AFC_task,59.93109127864803,
stimuli/rgb_scene000012_render000000.png,stimuli/rgb_scene000012_render000004.png,1,139,349,45,"[0, 1]",right,1,222,26,f,y,y,2019_Apr_25_1400,2AFC_task,59.93109127864803,
stimuli/rgb_scene000090_render000002.png,stimuli/rgb_scene000090_render000006.png,1,140,350,77,"[1, 0]",right,0,222,26,f,y,y,2019_Apr_25_1400,2AFC_task,59.93109127864803,
stimuli/rgb_scene000113_render000001.png,stimuli/rgb_scene000113_render000003.png,1,141,351,154,"[1, 0]",left,1,222,26,f,y,y,2019_Apr_25_1400,2AFC_task,59.93109127864803,
stimuli/rgb_scene000096_render000001.png,stimuli/rgb_scene000096_render000006.png,1,142,352,115,"[1, 0]",left,1,222,26,f,y,y,2019_Apr_25_1400,2AFC_task,59.93109127864803,
stimuli/rgb_scene000095_render000002.png,stimuli/rgb_scene000095_render000004.png,1,143,353,96,"[0, 1]",right,1,222,26,f,y,y,2019_Apr_25_1400,2AFC_task,59.93109127864803,
stimuli/rgb_scene000195_render000000.png,stimuli/rgb_scene000195_render000002.png,1,144,354,190,"[1, 0]",left,1,222,26,f,y,y,2019_Apr_25_1400,2AFC_task,59.93109127864803,
stimuli/rgb_scene000004_render000001.png,stimuli/rgb_scene000004_render000005.png,1,145,355,9,"[1, 0]",left,1,222,26,f,y,y,2019_Apr_25_1400,2AFC_task,59.93109127864803,
stimuli/rgb_scene000096_render000004.png,stimuli/rgb_scene000096_render000005.png,1,146,356,123,"[1, 0]",left,1,222,26,f,y,y,2019_Apr_25_1400,2AFC_task,59.93109127864803,
stimuli/rgb_scene000090_render000001.png,stimuli/rgb_scene000090_render000004.png,1,147,357,71,"[1, 0]",left,1,222,26,f,y,y,2019_Apr_25_1400,2AFC_task,59.93109127864803,
stimuli/rgb_scene000005_render000001.png,stimuli/rgb_scene000005_render000006.png,1,148,358,31,"[0, 1]",left,0,222,26,f,y,y,2019_Apr_25_1400,2AFC_task,59.93109127864803,
stimuli/rgb_scene000095_render000003.png,stimuli/rgb_scene000095_render000005.png,1,149,359,100,"[0, 1]",right,1,222,26,f,y,y,2019_Apr_25_1400,2AFC_task,59.93109127864803,
stimuli/rgb_scene000095_render000002.png,stimuli/rgb_scene000095_render000006.png,1,150,360,98,"[0, 1]",right,1,222,26,f,y,y,2019_Apr_25_1400,2AFC_task,59.93109127864803,
stimuli/rgb_scene000090_render000004.png,stimuli/rgb_scene000090_render000006.png,1,151,361,82,"[1, 0]",right,0,222,26,f,y,y,2019_Apr_25_1400,2AFC_task,59.93109127864803,
stimuli/rgb_scene000195_render000000.png,stimuli/rgb_scene000195_render000001.png,1,152,362,189,"[0, 1]",right,1,222,26,f,y,y,2019_Apr_25_1400,2AFC_task,59.93109127864803,
stimuli/rgb_scene000090_render000003.png,stimuli/rgb_scene000090_render000006.png,1,153,363,80,"[0, 1]",left,0,222,26,f,y,y,2019_Apr_25_1400,2AFC_task,59.93109127864803,
stimuli/rgb_scene000004_render000003.png,stimuli/rgb_scene000004_render000006.png,1,154,364,17,"[0, 1]",right,1,222,26,f,y,y,2019_Apr_25_1400,2AFC_task,59.93109127864803,
stimuli/rgb_scene000113_render000002.png,stimuli/rgb_scene000113_render000005.png,1,155,365,160,"[0, 1]",right,1,222,26,f,y,y,2019_Apr_25_1400,2AFC_task,59.93109127864803,
stimuli/rgb_scene000095_render000004.png,stimuli/rgb_scene000095_render000005.png,1,156,366,102,"[0, 1]",right,1,222,26,f,y,y,2019_Apr_25_1400,2AFC_task,59.93109127864803,
stimuli/rgb_scene000012_render000000.png,stimuli/rgb_scene000012_render000003.png,1,157,367,44,"[0, 1]",right,1,222,26,f,y,y,2019_Apr_25_1400,2AFC_task,59.93109127864803,
stimuli/rgb_scene000095_render000001.png,stimuli/rgb_scene000095_render000004.png,1,158,368,92,"[0, 1]",right,1,222,26,f,y,y,2019_Apr_25_1400,2AFC_task,59.93109127864803,
stimuli/rgb_scene000096_render000000.png,stimuli/rgb_scene000096_render000006.png,1,159,369,110,"[0, 1]",right,1,222,26,f,y,y,2019_Apr_25_1400,2AFC_task,59.93109127864803,
stimuli/rgb_scene000113_render000005.png,stimuli/rgb_scene000113_render000006.png,1,160,370,167,"[0, 1]",right,1,222,26,f,y,y,2019_Apr_25_1400,2AFC_task,59.93109127864803,
stimuli/rgb_scene000090_render000004.png,stimuli/rgb_scene000090_render000005.png,1,161,371,81,"[1, 0]",right,0,222,26,f,y,y,2019_Apr_25_1400,2AFC_task,59.93109127864803,
stimuli/rgb_scene000096_render000004.png,stimuli/rgb_scene000096_render000006.png,1,162,372,124,"[1, 0]",left,1,222,26,f,y,y,2019_Apr_25_1400,2AFC_task,59.93109127864803,
stimuli/rgb_scene000146_render000002.png,stimuli/rgb_scene000146_render000004.png,1,163,373,180,"[1, 0]",left,1,222,26,f,y,y,2019_Apr_25_1400,2AFC_task,59.93109127864803,
stimuli/rgb_scene000090_render000000.png,stimuli/rgb_scene000090_render000004.png,1,164,374,66,"[1, 0]",left,1,222,26,f,y,y,2019_Apr_25_1400,2AFC_task,59.93109127864803,
stimuli/rgb_scene000096_render000001.png,stimuli/rgb_scene000096_render000005.png,1,165,375,114,"[0, 1]",right,1,222,26,f,y,y,2019_Apr_25_1400,2AFC_task,59.93109127864803,
stimuli/rgb_scene000004_render000005.png,stimuli/rgb_scene000004_render000006.png,1,166,376,20,"[0, 1]",right,1,222,26,f,y,y,2019_Apr_25_1400,2AFC_task,59.93109127864803,
stimuli/rgb_scene000004_render000002.png,stimuli/rgb_scene000004_render000005.png,1,167,377,13,"[0, 1]",right,1,222,26,f,y,y,2019_Apr_25_1400,2AFC_task,59.93109127864803,
stimuli/rgb_scene000102_render000002.png,stimuli/rgb_scene000102_render000003.png,1,168,378,137,"[0, 1]",right,1,222,26,f,y,y,2019_Apr_25_1400,2AFC_task,59.93109127864803,
stimuli/rgb_scene000005_render000001.png,stimuli/rgb_scene000005_render000003.png,1,169,379,28,"[0, 1]",right,1,222,26,f,y,y,2019_Apr_25_1400,2AFC_task,59.93109127864803,
stimuli/rgb_scene000102_render000003.png,stimuli/rgb_scene000102_render000005.png,1,170,380,142,"[1, 0]",left,1,222,26,f,y,y,2019_Apr_25_1400,2AFC_task,59.93109127864803,
stimuli/rgb_scene000005_render000005.png,stimuli/rgb_scene000005_render000006.png,1,171,381,41,"[1, 0]",right,0,222,26,f,y,y,2019_Apr_25_1400,2AFC_task,59.93109127864803,
stimuli/rgb_scene000012_render000002.png,stimuli/rgb_scene000012_render000004.png,1,172,382,54,"[1, 0]",left,1,222,26,f,y,y,2019_Apr_25_1400,2AFC_task,59.93109127864803,
stimuli/rgb_scene000146_render000003.png,stimuli/rgb_scene000146_render000004.png,1,173,383,183,"[0, 1]",right,1,222,26,f,y,y,2019_Apr_25_1400,2AFC_task,59.93109127864803,
stimuli/rgb_scene000005_render000001.png,stimuli/rgb_scene000005_render000004.png,1,174,384,29,"[1, 0]",left,1,222,26,f,y,y,2019_Apr_25_1400,2AFC_task,59.93109127864803,
stimuli/rgb_scene000146_render000000.png,stimuli/rgb_scene000146_render000001.png,1,175,385,168,"[1, 0]",left,1,222,26,f,y,y,2019_Apr_25_1400,2AFC_task,59.93109127864803,
stimuli/rgb_scene000146_render000001.png,stimuli/rgb_scene000146_render000005.png,1,176,386,177,"[1, 0]",left,1,222,26,f,y,y,2019_Apr_25_1400,2AFC_task,59.93109127864803,
stimuli/rgb_scene000005_render000000.png,stimuli/rgb_scene000005_render000001.png,1,177,387,21,"[1, 0]",left,1,222,26,f,y,y,2019_Apr_25_1400,2AFC_task,59.93109127864803,
stimuli/rgb_scene000005_render000002.png,stimuli/rgb_scene000005_render000004.png,1,178,388,33,"[1, 0]",left,1,222,26,f,y,y,2019_Apr_25_1400,2AFC_task,59.93109127864803,
stimuli/rgb_scene000113_render000002.png,stimuli/rgb_scene000113_render000006.png,1,179,389,161,"[1, 0]",left,1,222,26,f,y,y,2019_Apr_25_1400,2AFC_task,59.93109127864803,
stimuli/rgb_scene000146_render000002.png,stimuli/rgb_scene000146_render000005.png,1,180,390,181,"[1, 0]",left,1,222,26,f,y,y,2019_Apr_25_1400,2AFC_task,59.93109127864803,
stimuli/rgb_scene000195_render000004.png,stimuli/rgb_scene000195_render000005.png,1,181,391,207,"[1, 0]",right,0,222,26,f,y,y,2019_Apr_25_1400,2AFC_task,59.93109127864803,
stimuli/rgb_scene000090_render000001.png,stimuli/rgb_scene000090_render000002.png,1,182,392,69,"[0, 1]",left,0,222,26,f,y,y,2019_Apr_25_1400,2AFC_task,59.93109127864803,
stimuli/rgb_scene000102_render000002.png,stimuli/rgb_scene000102_render000006.png,1,183,393,140,"[0, 1]",right,1,222,26,f,y,y,2019_Apr_25_1400,2AFC_task,59.93109127864803,
stimuli/rgb_scene000113_render000000.png,stimuli/rgb_scene000113_render000005.png,1,184,394,151,"[0, 1]",right,1,222,26,f,y,y,2019_Apr_25_1400,2AFC_task,59.93109127864803,
stimuli/rgb_scene000096_render000000.png,stimuli/rgb_scene000096_render000003.png,1,185,395,107,"[0, 1]",right,1,222,26,f,y,y,2019_Apr_25_1400,2AFC_task,59.93109127864803,
stimuli/rgb_scene000146_render000005.png,stimuli/rgb_scene000146_render000006.png,1,186,396,188,"[0, 1]",right,1,222,26,f,y,y,2019_Apr_25_1400,2AFC_task,59.93109127864803,
stimuli/rgb_scene000004_render000000.png,stimuli/rgb_scene000004_render000004.png,1,187,397,3,"[0, 1]",right,1,222,26,f,y,y,2019_Apr_25_1400,2AFC_task,59.93109127864803,
stimuli/rgb_scene000146_render000003.png,stimuli/rgb_scene000146_render000006.png,1,188,398,185,"[1, 0]",left,1,222,26,f,y,y,2019_Apr_25_1400,2AFC_task,59.93109127864803,
stimuli/rgb_scene000095_render000001.png,stimuli/rgb_scene000095_render000005.png,1,189,399,93,"[1, 0]",left,1,222,26,f,y,y,2019_Apr_25_1400,2AFC_task,59.93109127864803,
stimuli/rgb_scene000095_render000000.png,stimuli/rgb_scene000095_render000006.png,1,190,400,89,"[0, 1]",right,1,222,26,f,y,y,2019_Apr_25_1400,2AFC_task,59.93109127864803,
stimuli/rgb_scene000146_render000002.png,stimuli/rgb_scene000146_render000003.png,1,191,401,179,"[0, 1]",right,1,222,26,f,y,y,2019_Apr_25_1400,2AFC_task,59.93109127864803,
stimuli/rgb_scene000004_render000000.png,stimuli/rgb_scene000004_render000006.png,1,192,402,5,"[1, 0]",left,1,222,26,f,y,y,2019_Apr_25_1400,2AFC_task,59.93109127864803,
stimuli/rgb_scene000113_render000000.png,stimuli/rgb_scene000113_render000006.png,1,193,403,152,"[0, 1]",right,1,222,26,f,y,y,2019_Apr_25_1400,2AFC_task,59.93109127864803,
stimuli/rgb_scene000113_render000001.png,stimuli/rgb_scene000113_render000005.png,1,194,404,156,"[0, 1]",right,1,222,26,f,y,y,2019_Apr_25_1400,2AFC_task,59.93109127864803,
stimuli/rgb_scene000195_render000004.png,stimuli/rgb_scene000195_render000006.png,1,195,405,208,"[0, 1]",left,0,222,26,f,y,y,2019_Apr_25_1400,2AFC_task,59.93109127864803,
stimuli/rgb_scene000012_render000002.png,stimuli/rgb_scene000012_render000005.png,1,196,406,55,"[0, 1]",right,1,222,26,f,y,y,2019_Apr_25_1400,2AFC_task,59.93109127864803,
stimuli/rgb_scene000113_render000000.png,stimuli/rgb_scene000113_render000002.png,1,197,407,148,"[1, 0]",left,1,222,26,f,y,y,2019_Apr_25_1400,2AFC_task,59.93109127864803,
stimuli/rgb_scene000012_render000004.png,stimuli/rgb_scene000012_render000005.png,1,198,408,60,"[0, 1]",right,1,222,26,f,y,y,2019_Apr_25_1400,2AFC_task,59.93109127864803,
stimuli/rgb_scene000195_render000002.png,stimuli/rgb_scene000195_render000005.png,1,199,409,202,"[0, 1]",left,0,222,26,f,y,y,2019_Apr_25_1400,2AFC_task,59.93109127864803,
stimuli/rgb_scene000090_render000001.png,stimuli/rgb_scene000090_render000005.png,1,200,410,72,"[1, 0]",right,0,222,26,f,y,y,2019_Apr_25_1400,2AFC_task,59.93109127864803,
stimuli/rgb_scene000005_render000001.png,stimuli/rgb_scene000005_render000005.png,1,201,411,30,"[0, 1]",left,0,222,26,f,y,y,2019_Apr_25_1400,2AFC_task,59.93109127864803,
stimuli/rgb_scene000012_render000001.png,stimuli/rgb_scene000012_render000003.png,1,202,412,49,"[1, 0]",left,1,222,26,f,y,y,2019_Apr_25_1400,2AFC_task,59.93109127864803,
stimuli/rgb_scene000004_render000002.png,stimuli/rgb_scene000004_render000004.png,1,203,413,12,"[0, 1]",right,1,222,26,f,y,y,2019_Apr_25_1400,2AFC_task,59.93109127864803,
stimuli/rgb_scene000005_render000004.png,stimuli/rgb_scene000005_render000006.png,1,204,414,40,"[1, 0]",right,0,222,26,f,y,y,2019_Apr_25_1400,2AFC_task,59.93109127864803,
stimuli/rgb_scene000004_render000000.png,stimuli/rgb_scene000004_render000001.png,1,205,415,0,"[1, 0]",left,1,222,26,f,y,y,2019_Apr_25_1400,2AFC_task,59.93109127864803,
stimuli/rgb_scene000005_render000000.png,stimuli/rgb_scene000005_render000002.png,1,206,416,22,"[1, 0]",left,1,222,26,f,y,y,2019_Apr_25_1400,2AFC_task,59.93109127864803,
stimuli/rgb_scene000090_render000001.png,stimuli/rgb_scene000090_render000006.png,1,207,417,73,"[0, 1]",left,0,222,26,f,y,y,2019_Apr_25_1400,2AFC_task,59.93109127864803,
stimuli/rgb_scene000195_render000001.png,stimuli/rgb_scene000195_render000005.png,1,208,418,198,"[0, 1]",right,1,222,26,f,y,y,2019_Apr_25_1400,2AFC_task,59.93109127864803,
stimuli/rgb_scene000090_render000005.png,stimuli/rgb_scene000090_render000006.png,1,209,419,83,"[0, 1]",left,0,222,26,f,y,y,2019_Apr_25_1400,2AFC_task,59.93109127864803,
