stimOne,stimTwo,trials_1.thisRepN,trials_1.thisTrialN,trials_1.thisN,trials_1.thisIndex,presentation_positions,resp_key,corresponding_image,participant ID (two digits, e.g. 01),age,gender (m/f/-),normal or corrected-to-normal vision (y/n),normal colour vision (y/n),date,expName,frameRate,
stimuli/rgb_scene000005_render000000.png,stimuli/rgb_scene000005_render000003.png,0,0,0,23,"[1, 0]",left,1,234,25,m,y,y,2019_Apr_30_1505,2AFC_task,59.95351743796609,
stimuli/rgb_scene000195_render000002.png,stimuli/rgb_scene000195_render000005.png,0,1,1,202,"[0, 1]",left,0,234,25,m,y,y,2019_Apr_30_1505,2AFC_task,59.95351743796609,
stimuli/rgb_scene000090_render000000.png,stimuli/rgb_scene000090_render000003.png,0,2,2,65,"[0, 1]",left,0,234,25,m,y,y,2019_Apr_30_1505,2AFC_task,59.95351743796609,
stimuli/rgb_scene000146_render000002.png,stimuli/rgb_scene000146_render000006.png,0,3,3,182,"[0, 1]",right,1,234,25,m,y,y,2019_Apr_30_1505,2AFC_task,59.95351743796609,
stimuli/rgb_scene000146_render000000.png,stimuli/rgb_scene000146_render000001.png,0,4,4,168,"[1, 0]",left,1,234,25,m,y,y,2019_Apr_30_1505,2AFC_task,59.95351743796609,
stimuli/rgb_scene000146_render000005.png,stimuli/rgb_scene000146_render000006.png,0,5,5,188,"[0, 1]",left,0,234,25,m,y,y,2019_Apr_30_1505,2AFC_task,59.95351743796609,
stimuli/rgb_scene000004_render000001.png,stimuli/rgb_scene000004_render000004.png,0,6,6,8,"[1, 0]",left,1,234,25,m,y,y,2019_Apr_30_1505,2AFC_task,59.95351743796609,
stimuli/rgb_scene000095_render000001.png,stimuli/rgb_scene000095_render000003.png,0,7,7,91,"[0, 1]",right,1,234,25,m,y,y,2019_Apr_30_1505,2AFC_task,59.95351743796609,
stimuli/rgb_scene000004_render000001.png,stimuli/rgb_scene000004_render000005.png,0,8,8,9,"[1, 0]",left,1,234,25,m,y,y,2019_Apr_30_1505,2AFC_task,59.95351743796609,
stimuli/rgb_scene000012_render000000.png,stimuli/rgb_scene000012_render000001.png,0,9,9,42,"[1, 0]",left,1,234,25,m,y,y,2019_Apr_30_1505,2AFC_task,59.95351743796609,
stimuli/rgb_scene000004_render000000.png,stimuli/rgb_scene000004_render000002.png,0,10,10,1,"[1, 0]",left,1,234,25,m,y,y,2019_Apr_30_1505,2AFC_task,59.95351743796609,
stimuli/rgb_scene000012_render000004.png,stimuli/rgb_scene000012_render000005.png,0,11,11,60,"[0, 1]",right,1,234,25,m,y,y,2019_Apr_30_1505,2AFC_task,59.95351743796609,
stimuli/rgb_scene000096_render000002.png,stimuli/rgb_scene000096_render000005.png,0,12,12,118,"[0, 1]",right,1,234,25,m,y,y,2019_Apr_30_1505,2AFC_task,59.95351743796609,
stimuli/rgb_scene000102_render000001.png,stimuli/rgb_scene000102_render000002.png,0,13,13,132,"[1, 0]",left,1,234,25,m,y,y,2019_Apr_30_1505,2AFC_task,59.95351743796609,
stimuli/rgb_scene000005_render000002.png,stimuli/rgb_scene000005_render000005.png,0,14,14,34,"[0, 1]",left,0,234,25,m,y,y,2019_Apr_30_1505,2AFC_task,59.95351743796609,
stimuli/rgb_scene000096_render000003.png,stimuli/rgb_scene000096_render000005.png,0,15,15,121,"[1, 0]",left,1,234,25,m,y,y,2019_Apr_30_1505,2AFC_task,59.95351743796609,
stimuli/rgb_scene000005_render000001.png,stimuli/rgb_scene000005_render000003.png,0,16,16,28,"[1, 0]",left,1,234,25,m,y,y,2019_Apr_30_1505,2AFC_task,59.95351743796609,
stimuli/rgb_scene000102_render000001.png,stimuli/rgb_scene000102_render000006.png,0,17,17,136,"[1, 0]",left,1,234,25,m,y,y,2019_Apr_30_1505,2AFC_task,59.95351743796609,
stimuli/rgb_scene000004_render000002.png,stimuli/rgb_scene000004_render000004.png,0,18,18,12,"[0, 1]",right,1,234,25,m,y,y,2019_Apr_30_1505,2AFC_task,59.95351743796609,
stimuli/rgb_scene000146_render000001.png,stimuli/rgb_scene000146_render000005.png,0,19,19,177,"[1, 0]",left,1,234,25,m,y,y,2019_Apr_30_1505,2AFC_task,59.95351743796609,
stimuli/rgb_scene000005_render000001.png,stimuli/rgb_scene000005_render000005.png,0,20,20,30,"[0, 1]",left,0,234,25,m,y,y,2019_Apr_30_1505,2AFC_task,59.95351743796609,
stimuli/rgb_scene000102_render000000.png,stimuli/rgb_scene000102_render000003.png,0,21,21,128,"[0, 1]",right,1,234,25,m,y,y,2019_Apr_30_1505,2AFC_task,59.95351743796609,
stimuli/rgb_scene000004_render000002.png,stimuli/rgb_scene000004_render000006.png,0,22,22,14,"[0, 1]",right,1,234,25,m,y,y,2019_Apr_30_1505,2AFC_task,59.95351743796609,
stimuli/rgb_scene000195_render000002.png,stimuli/rgb_scene000195_render000003.png,0,23,23,200,"[0, 1]",left,0,234,25,m,y,y,2019_Apr_30_1505,2AFC_task,59.95351743796609,
stimuli/rgb_scene000004_render000002.png,stimuli/rgb_scene000004_render000003.png,0,24,24,11,"[0, 1]",right,1,234,25,m,y,y,2019_Apr_30_1505,2AFC_task,59.95351743796609,
stimuli/rgb_scene000090_render000002.png,stimuli/rgb_scene000090_render000004.png,0,25,25,75,"[1, 0]",right,0,234,25,m,y,y,2019_Apr_30_1505,2AFC_task,59.95351743796609,
stimuli/rgb_scene000090_render000003.png,stimuli/rgb_scene000090_render000005.png,0,26,26,79,"[1, 0]",left,1,234,25,m,y,y,2019_Apr_30_1505,2AFC_task,59.95351743796609,
stimuli/rgb_scene000005_render000004.png,stimuli/rgb_scene000005_render000005.png,0,27,27,39,"[1, 0]",right,0,234,25,m,y,y,2019_Apr_30_1505,2AFC_task,59.95351743796609,
stimuli/rgb_scene000113_render000002.png,stimuli/rgb_scene000113_render000006.png,0,28,28,161,"[1, 0]",left,1,234,25,m,y,y,2019_Apr_30_1505,2AFC_task,59.95351743796609,
stimuli/rgb_scene000090_render000001.png,stimuli/rgb_scene000090_render000004.png,0,29,29,71,"[1, 0]",right,0,234,25,m,y,y,2019_Apr_30_1505,2AFC_task,59.95351743796609,
stimuli/rgb_scene000090_render000001.png,stimuli/rgb_scene000090_render000006.png,0,30,30,73,"[1, 0]",right,0,234,25,m,y,y,2019_Apr_30_1505,2AFC_task,59.95351743796609,
stimuli/rgb_scene000005_render000003.png,stimuli/rgb_scene000005_render000005.png,0,31,31,37,"[1, 0]",right,0,234,25,m,y,y,2019_Apr_30_1505,2AFC_task,59.95351743796609,
stimuli/rgb_scene000195_render000003.png,stimuli/rgb_scene000195_render000005.png,0,32,32,205,"[1, 0]",right,0,234,25,m,y,y,2019_Apr_30_1505,2AFC_task,59.95351743796609,
stimuli/rgb_scene000004_render000000.png,stimuli/rgb_scene000004_render000003.png,0,33,33,2,"[1, 0]",left,1,234,25,m,y,y,2019_Apr_30_1505,2AFC_task,59.95351743796609,
stimuli/rgb_scene000005_render000004.png,stimuli/rgb_scene000005_render000006.png,0,34,34,40,"[1, 0]",left,1,234,25,m,y,y,2019_Apr_30_1505,2AFC_task,59.95351743796609,
stimuli/rgb_scene000195_render000001.png,stimuli/rgb_scene000195_render000004.png,0,35,35,197,"[0, 1]",left,0,234,25,m,y,y,2019_Apr_30_1505,2AFC_task,59.95351743796609,
stimuli/rgb_scene000195_render000000.png,stimuli/rgb_scene000195_render000004.png,0,36,36,192,"[1, 0]",right,0,234,25,m,y,y,2019_Apr_30_1505,2AFC_task,59.95351743796609,
stimuli/rgb_scene000005_render000002.png,stimuli/rgb_scene000005_render000003.png,0,37,37,32,"[1, 0]",right,0,234,25,m,y,y,2019_Apr_30_1505,2AFC_task,59.95351743796609,
stimuli/rgb_scene000095_render000000.png,stimuli/rgb_scene000095_render000005.png,0,38,38,88,"[0, 1]",right,1,234,25,m,y,y,2019_Apr_30_1505,2AFC_task,59.95351743796609,
stimuli/rgb_scene000096_render000000.png,stimuli/rgb_scene000096_render000006.png,0,39,39,110,"[0, 1]",right,1,234,25,m,y,y,2019_Apr_30_1505,2AFC_task,59.95351743796609,
stimuli/rgb_scene000146_render000002.png,stimuli/rgb_scene000146_render000003.png,0,40,40,179,"[1, 0]",left,1,234,25,m,y,y,2019_Apr_30_1505,2AFC_task,59.95351743796609,
stimuli/rgb_scene000012_render000000.png,stimuli/rgb_scene000012_render000004.png,0,41,41,45,"[0, 1]",right,1,234,25,m,y,y,2019_Apr_30_1505,2AFC_task,59.95351743796609,
stimuli/rgb_scene000005_render000005.png,stimuli/rgb_scene000005_render000006.png,0,42,42,41,"[1, 0]",right,0,234,25,m,y,y,2019_Apr_30_1505,2AFC_task,59.95351743796609,
stimuli/rgb_scene000004_render000002.png,stimuli/rgb_scene000004_render000005.png,0,43,43,13,"[1, 0]",left,1,234,25,m,y,y,2019_Apr_30_1505,2AFC_task,59.95351743796609,
stimuli/rgb_scene000195_render000000.png,stimuli/rgb_scene000195_render000006.png,0,44,44,194,"[0, 1]",left,0,234,25,m,y,y,2019_Apr_30_1505,2AFC_task,59.95351743796609,
stimuli/rgb_scene000096_render000002.png,stimuli/rgb_scene000096_render000006.png,0,45,45,119,"[0, 1]",right,1,234,25,m,y,y,2019_Apr_30_1505,2AFC_task,59.95351743796609,
stimuli/rgb_scene000095_render000002.png,stimuli/rgb_scene000095_render000003.png,0,46,46,95,"[1, 0]",left,1,234,25,m,y,y,2019_Apr_30_1505,2AFC_task,59.95351743796609,
stimuli/rgb_scene000005_render000003.png,stimuli/rgb_scene000005_render000006.png,0,47,47,38,"[0, 1]",left,0,234,25,m,y,y,2019_Apr_30_1505,2AFC_task,59.95351743796609,
stimuli/rgb_scene000113_render000000.png,stimuli/rgb_scene000113_render000002.png,0,48,48,148,"[0, 1]",right,1,234,25,m,y,y,2019_Apr_30_1505,2AFC_task,59.95351743796609,
stimuli/rgb_scene000090_render000004.png,stimuli/rgb_scene000090_render000006.png,0,49,49,82,"[0, 1]",right,1,234,25,m,y,y,2019_Apr_30_1505,2AFC_task,59.95351743796609,
stimuli/rgb_scene000195_render000000.png,stimuli/rgb_scene000195_render000001.png,0,50,50,189,"[0, 1]",left,0,234,25,m,y,y,2019_Apr_30_1505,2AFC_task,59.95351743796609,
stimuli/rgb_scene000195_render000000.png,stimuli/rgb_scene000195_render000003.png,0,51,51,191,"[1, 0]",left,1,234,25,m,y,y,2019_Apr_30_1505,2AFC_task,59.95351743796609,
stimuli/rgb_scene000012_render000002.png,stimuli/rgb_scene000012_render000004.png,0,52,52,54,"[0, 1]",right,1,234,25,m,y,y,2019_Apr_30_1505,2AFC_task,59.95351743796609,
stimuli/rgb_scene000146_render000000.png,stimuli/rgb_scene000146_render000004.png,0,53,53,171,"[1, 0]",left,1,234,25,m,y,y,2019_Apr_30_1505,2AFC_task,59.95351743796609,
stimuli/rgb_scene000004_render000004.png,stimuli/rgb_scene000004_render000005.png,0,54,54,18,"[0, 1]",left,0,234,25,m,y,y,2019_Apr_30_1505,2AFC_task,59.95351743796609,
stimuli/rgb_scene000096_render000000.png,stimuli/rgb_scene000096_render000002.png,0,55,55,106,"[0, 1]",right,1,234,25,m,y,y,2019_Apr_30_1505,2AFC_task,59.95351743796609,
stimuli/rgb_scene000095_render000003.png,stimuli/rgb_scene000095_render000005.png,0,56,56,100,"[0, 1]",right,1,234,25,m,y,y,2019_Apr_30_1505,2AFC_task,59.95351743796609,
stimuli/rgb_scene000012_render000000.png,stimuli/rgb_scene000012_render000003.png,0,57,57,44,"[0, 1]",right,1,234,25,m,y,y,2019_Apr_30_1505,2AFC_task,59.95351743796609,
stimuli/rgb_scene000096_render000004.png,stimuli/rgb_scene000096_render000006.png,0,58,58,124,"[0, 1]",right,1,234,25,m,y,y,2019_Apr_30_1505,2AFC_task,59.95351743796609,
stimuli/rgb_scene000113_render000002.png,stimuli/rgb_scene000113_render000003.png,0,59,59,158,"[1, 0]",left,1,234,25,m,y,y,2019_Apr_30_1505,2AFC_task,59.95351743796609,
stimuli/rgb_scene000146_render000001.png,stimuli/rgb_scene000146_render000006.png,0,60,60,178,"[0, 1]",right,1,234,25,m,y,y,2019_Apr_30_1505,2AFC_task,59.95351743796609,
stimuli/rgb_scene000102_render000002.png,stimuli/rgb_scene000102_render000003.png,0,61,61,137,"[0, 1]",right,1,234,25,m,y,y,2019_Apr_30_1505,2AFC_task,59.95351743796609,
stimuli/rgb_scene000195_render000000.png,stimuli/rgb_scene000195_render000002.png,0,62,62,190,"[0, 1]",right,1,234,25,m,y,y,2019_Apr_30_1505,2AFC_task,59.95351743796609,
stimuli/rgb_scene000004_render000003.png,stimuli/rgb_scene000004_render000004.png,0,63,63,15,"[1, 0]",right,0,234,25,m,y,y,2019_Apr_30_1505,2AFC_task,59.95351743796609,
stimuli/rgb_scene000146_render000004.png,stimuli/rgb_scene000146_render000006.png,0,64,64,187,"[1, 0]",right,0,234,25,m,y,y,2019_Apr_30_1505,2AFC_task,59.95351743796609,
stimuli/rgb_scene000095_render000000.png,stimuli/rgb_scene000095_render000001.png,0,65,65,84,"[1, 0]",left,1,234,25,m,y,y,2019_Apr_30_1505,2AFC_task,59.95351743796609,
stimuli/rgb_scene000096_render000000.png,stimuli/rgb_scene000096_render000001.png,0,66,66,105,"[0, 1]",right,1,234,25,m,y,y,2019_Apr_30_1505,2AFC_task,59.95351743796609,
stimuli/rgb_scene000090_render000002.png,stimuli/rgb_scene000090_render000003.png,0,67,67,74,"[0, 1]",left,0,234,25,m,y,y,2019_Apr_30_1505,2AFC_task,59.95351743796609,
stimuli/rgb_scene000004_render000001.png,stimuli/rgb_scene000004_render000002.png,0,68,68,6,"[1, 0]",left,1,234,25,m,y,y,2019_Apr_30_1505,2AFC_task,59.95351743796609,
stimuli/rgb_scene000012_render000001.png,stimuli/rgb_scene000012_render000004.png,0,69,69,50,"[0, 1]",left,0,234,25,m,y,y,2019_Apr_30_1505,2AFC_task,59.95351743796609,
stimuli/rgb_scene000146_render000001.png,stimuli/rgb_scene000146_render000003.png,0,70,70,175,"[1, 0]",left,1,234,25,m,y,y,2019_Apr_30_1505,2AFC_task,59.95351743796609,
stimuli/rgb_scene000012_render000001.png,stimuli/rgb_scene000012_render000006.png,0,71,71,52,"[0, 1]",right,1,234,25,m,y,y,2019_Apr_30_1505,2AFC_task,59.95351743796609,
stimuli/rgb_scene000195_render000004.png,stimuli/rgb_scene000195_render000006.png,0,72,72,208,"[1, 0]",right,0,234,25,m,y,y,2019_Apr_30_1505,2AFC_task,59.95351743796609,
stimuli/rgb_scene000005_render000002.png,stimuli/rgb_scene000005_render000006.png,0,73,73,35,"[0, 1]",left,0,234,25,m,y,y,2019_Apr_30_1505,2AFC_task,59.95351743796609,
stimuli/rgb_scene000102_render000003.png,stimuli/rgb_scene000102_render000005.png,0,74,74,142,"[1, 0]",right,0,234,25,m,y,y,2019_Apr_30_1505,2AFC_task,59.95351743796609,
stimuli/rgb_scene000090_render000002.png,stimuli/rgb_scene000090_render000005.png,0,75,75,76,"[0, 1]",left,0,234,25,m,y,y,2019_Apr_30_1505,2AFC_task,59.95351743796609,
stimuli/rgb_scene000012_render000004.png,stimuli/rgb_scene000012_render000006.png,0,76,76,61,"[0, 1]",left,0,234,25,m,y,y,2019_Apr_30_1505,2AFC_task,59.95351743796609,
stimuli/rgb_scene000090_render000000.png,stimuli/rgb_scene000090_render000001.png,0,77,77,63,"[0, 1]",left,0,234,25,m,y,y,2019_Apr_30_1505,2AFC_task,59.95351743796609,
stimuli/rgb_scene000005_render000000.png,stimuli/rgb_scene000005_render000002.png,0,78,78,22,"[0, 1]",right,1,234,25,m,y,y,2019_Apr_30_1505,2AFC_task,59.95351743796609,
stimuli/rgb_scene000004_render000003.png,stimuli/rgb_scene000004_render000006.png,0,79,79,17,"[0, 1]",left,0,234,25,m,y,y,2019_Apr_30_1505,2AFC_task,59.95351743796609,
stimuli/rgb_scene000113_render000000.png,stimuli/rgb_scene000113_render000004.png,0,80,80,150,"[1, 0]",left,1,234,25,m,y,y,2019_Apr_30_1505,2AFC_task,59.95351743796609,
stimuli/rgb_scene000095_render000002.png,stimuli/rgb_scene000095_render000004.png,0,81,81,96,"[0, 1]",right,1,234,25,m,y,y,2019_Apr_30_1505,2AFC_task,59.95351743796609,
stimuli/rgb_scene000012_render000002.png,stimuli/rgb_scene000012_render000003.png,0,82,82,53,"[1, 0]",left,1,234,25,m,y,y,2019_Apr_30_1505,2AFC_task,59.95351743796609,
stimuli/rgb_scene000095_render000001.png,stimuli/rgb_scene000095_render000004.png,0,83,83,92,"[0, 1]",right,1,234,25,m,y,y,2019_Apr_30_1505,2AFC_task,59.95351743796609,
stimuli/rgb_scene000004_render000000.png,stimuli/rgb_scene000004_render000004.png,0,84,84,3,"[0, 1]",right,1,234,25,m,y,y,2019_Apr_30_1505,2AFC_task,59.95351743796609,
stimuli/rgb_scene000096_render000001.png,stimuli/rgb_scene000096_render000002.png,0,85,85,111,"[1, 0]",left,1,234,25,m,y,y,2019_Apr_30_1505,2AFC_task,59.95351743796609,
stimuli/rgb_scene000012_render000003.png,stimuli/rgb_scene000012_render000004.png,0,86,86,57,"[0, 1]",left,0,234,25,m,y,y,2019_Apr_30_1505,2AFC_task,59.95351743796609,
stimuli/rgb_scene000113_render000003.png,stimuli/rgb_scene000113_render000005.png,0,87,87,163,"[0, 1]",left,0,234,25,m,y,y,2019_Apr_30_1505,2AFC_task,59.95351743796609,
stimuli/rgb_scene000095_render000004.png,stimuli/rgb_scene000095_render000006.png,0,88,88,103,"[1, 0]",left,1,234,25,m,y,y,2019_Apr_30_1505,2AFC_task,59.95351743796609,
stimuli/rgb_scene000113_render000000.png,stimuli/rgb_scene000113_render000003.png,0,89,89,149,"[0, 1]",right,1,234,25,m,y,y,2019_Apr_30_1505,2AFC_task,59.95351743796609,
stimuli/rgb_scene000146_render000000.png,stimuli/rgb_scene000146_render000003.png,0,90,90,170,"[1, 0]",left,1,234,25,m,y,y,2019_Apr_30_1505,2AFC_task,59.95351743796609,
stimuli/rgb_scene000113_render000002.png,stimuli/rgb_scene000113_render000004.png,0,91,91,159,"[1, 0]",left,1,234,25,m,y,y,2019_Apr_30_1505,2AFC_task,59.95351743796609,
stimuli/rgb_scene000146_render000004.png,stimuli/rgb_scene000146_render000005.png,0,92,92,186,"[1, 0]",left,1,234,25,m,y,y,2019_Apr_30_1505,2AFC_task,59.95351743796609,
stimuli/rgb_scene000195_render000001.png,stimuli/rgb_scene000195_render000005.png,0,93,93,198,"[1, 0]",right,0,234,25,m,y,y,2019_Apr_30_1505,2AFC_task,59.95351743796609,
stimuli/rgb_scene000090_render000003.png,stimuli/rgb_scene000090_render000004.png,0,94,94,78,"[1, 0]",right,0,234,25,m,y,y,2019_Apr_30_1505,2AFC_task,59.95351743796609,
stimuli/rgb_scene000095_render000005.png,stimuli/rgb_scene000095_render000006.png,0,95,95,104,"[0, 1]",right,1,234,25,m,y,y,2019_Apr_30_1505,2AFC_task,59.95351743796609,
stimuli/rgb_scene000012_render000005.png,stimuli/rgb_scene000012_render000006.png,0,96,96,62,"[0, 1]",left,0,234,25,m,y,y,2019_Apr_30_1505,2AFC_task,59.95351743796609,
stimuli/rgb_scene000113_render000004.png,stimuli/rgb_scene000113_render000006.png,0,97,97,166,"[1, 0]",right,0,234,25,m,y,y,2019_Apr_30_1505,2AFC_task,59.95351743796609,
stimuli/rgb_scene000113_render000001.png,stimuli/rgb_scene000113_render000004.png,0,98,98,155,"[1, 0]",left,1,234,25,m,y,y,2019_Apr_30_1505,2AFC_task,59.95351743796609,
stimuli/rgb_scene000113_render000004.png,stimuli/rgb_scene000113_render000005.png,0,99,99,165,"[1, 0]",right,0,234,25,m,y,y,2019_Apr_30_1505,2AFC_task,59.95351743796609,
stimuli/rgb_scene000090_render000003.png,stimuli/rgb_scene000090_render000006.png,0,100,100,80,"[1, 0]",right,0,234,25,m,y,y,2019_Apr_30_1505,2AFC_task,59.95351743796609,
stimuli/rgb_scene000095_render000003.png,stimuli/rgb_scene000095_render000004.png,0,101,101,99,"[1, 0]",left,1,234,25,m,y,y,2019_Apr_30_1505,2AFC_task,59.95351743796609,
stimuli/rgb_scene000096_render000004.png,stimuli/rgb_scene000096_render000005.png,0,102,102,123,"[1, 0]",left,1,234,25,m,y,y,2019_Apr_30_1505,2AFC_task,59.95351743796609,
stimuli/rgb_scene000090_render000000.png,stimuli/rgb_scene000090_render000004.png,0,103,103,66,"[1, 0]",right,0,234,25,m,y,y,2019_Apr_30_1505,2AFC_task,59.95351743796609,
stimuli/rgb_scene000096_render000003.png,stimuli/rgb_scene000096_render000004.png,0,104,104,120,"[1, 0]",left,1,234,25,m,y,y,2019_Apr_30_1505,2AFC_task,59.95351743796609,
stimuli/rgb_scene000113_render000000.png,stimuli/rgb_scene000113_render000001.png,0,105,105,147,"[0, 1]",right,1,234,25,m,y,y,2019_Apr_30_1505,2AFC_task,59.95351743796609,
stimuli/rgb_scene000146_render000000.png,stimuli/rgb_scene000146_render000006.png,0,106,106,173,"[0, 1]",right,1,234,25,m,y,y,2019_Apr_30_1505,2AFC_task,59.95351743796609,
stimuli/rgb_scene000102_render000001.png,stimuli/rgb_scene000102_render000004.png,0,107,107,134,"[0, 1]",right,1,234,25,m,y,y,2019_Apr_30_1505,2AFC_task,59.95351743796609,
stimuli/rgb_scene000012_render000001.png,stimuli/rgb_scene000012_render000002.png,0,108,108,48,"[0, 1]",right,1,234,25,m,y,y,2019_Apr_30_1505,2AFC_task,59.95351743796609,
stimuli/rgb_scene000102_render000000.png,stimuli/rgb_scene000102_render000005.png,0,109,109,130,"[1, 0]",left,1,234,25,m,y,y,2019_Apr_30_1505,2AFC_task,59.95351743796609,
stimuli/rgb_scene000146_render000002.png,stimuli/rgb_scene000146_render000004.png,0,110,110,180,"[0, 1]",right,1,234,25,m,y,y,2019_Apr_30_1505,2AFC_task,59.95351743796609,
stimuli/rgb_scene000012_render000000.png,stimuli/rgb_scene000012_render000002.png,0,111,111,43,"[0, 1]",right,1,234,25,m,y,y,2019_Apr_30_1505,2AFC_task,59.95351743796609,
stimuli/rgb_scene000195_render000001.png,stimuli/rgb_scene000195_render000002.png,0,112,112,195,"[0, 1]",right,1,234,25,m,y,y,2019_Apr_30_1505,2AFC_task,59.95351743796609,
stimuli/rgb_scene000102_render000002.png,stimuli/rgb_scene000102_render000004.png,0,113,113,138,"[0, 1]",right,1,234,25,m,y,y,2019_Apr_30_1505,2AFC_task,59.95351743796609,
stimuli/rgb_scene000095_render000002.png,stimuli/rgb_scene000095_render000005.png,0,114,114,97,"[1, 0]",left,1,234,25,m,y,y,2019_Apr_30_1505,2AFC_task,59.95351743796609,
stimuli/rgb_scene000095_render000001.png,stimuli/rgb_scene000095_render000006.png,0,115,115,94,"[0, 1]",right,1,234,25,m,y,y,2019_Apr_30_1505,2AFC_task,59.95351743796609,
stimuli/rgb_scene000090_render000001.png,stimuli/rgb_scene000090_render000003.png,0,116,116,70,"[0, 1]",left,0,234,25,m,y,y,2019_Apr_30_1505,2AFC_task,59.95351743796609,
stimuli/rgb_scene000095_render000000.png,stimuli/rgb_scene000095_render000003.png,0,117,117,86,"[0, 1]",right,1,234,25,m,y,y,2019_Apr_30_1505,2AFC_task,59.95351743796609,
stimuli/rgb_scene000004_render000000.png,stimuli/rgb_scene000004_render000001.png,0,118,118,0,"[1, 0]",left,1,234,25,m,y,y,2019_Apr_30_1505,2AFC_task,59.95351743796609,
stimuli/rgb_scene000004_render000001.png,stimuli/rgb_scene000004_render000003.png,0,119,119,7,"[1, 0]",left,1,234,25,m,y,y,2019_Apr_30_1505,2AFC_task,59.95351743796609,
stimuli/rgb_scene000012_render000000.png,stimuli/rgb_scene000012_render000006.png,0,120,120,47,"[1, 0]",left,1,234,25,m,y,y,2019_Apr_30_1505,2AFC_task,59.95351743796609,
stimuli/rgb_scene000004_render000001.png,stimuli/rgb_scene000004_render000006.png,0,121,121,10,"[0, 1]",right,1,234,25,m,y,y,2019_Apr_30_1505,2AFC_task,59.95351743796609,
stimuli/rgb_scene000113_render000003.png,stimuli/rgb_scene000113_render000006.png,0,122,122,164,"[0, 1]",left,0,234,25,m,y,y,2019_Apr_30_1505,2AFC_task,59.95351743796609,
stimuli/rgb_scene000146_render000003.png,stimuli/rgb_scene000146_render000004.png,0,123,123,183,"[0, 1]",right,1,234,25,m,y,y,2019_Apr_30_1505,2AFC_task,59.95351743796609,
stimuli/rgb_scene000195_render000004.png,stimuli/rgb_scene000195_render000005.png,0,124,124,207,"[0, 1]",left,0,234,25,m,y,y,2019_Apr_30_1505,2AFC_task,59.95351743796609,
stimuli/rgb_scene000195_render000003.png,stimuli/rgb_scene000195_render000004.png,0,125,125,204,"[1, 0]",right,0,234,25,m,y,y,2019_Apr_30_1505,2AFC_task,59.95351743796609,
stimuli/rgb_scene000195_render000003.png,stimuli/rgb_scene000195_render000006.png,0,126,126,206,"[1, 0]",right,0,234,25,m,y,y,2019_Apr_30_1505,2AFC_task,59.95351743796609,
stimuli/rgb_scene000096_render000001.png,stimuli/rgb_scene000096_render000005.png,0,127,127,114,"[1, 0]",left,1,234,25,m,y,y,2019_Apr_30_1505,2AFC_task,59.95351743796609,
stimuli/rgb_scene000102_render000003.png,stimuli/rgb_scene000102_render000006.png,0,128,128,143,"[1, 0]",right,0,234,25,m,y,y,2019_Apr_30_1505,2AFC_task,59.95351743796609,
stimuli/rgb_scene000146_render000000.png,stimuli/rgb_scene000146_render000005.png,0,129,129,172,"[0, 1]",right,1,234,25,m,y,y,2019_Apr_30_1505,2AFC_task,59.95351743796609,
stimuli/rgb_scene000146_render000001.png,stimuli/rgb_scene000146_render000002.png,0,130,130,174,"[1, 0]",left,1,234,25,m,y,y,2019_Apr_30_1505,2AFC_task,59.95351743796609,
stimuli/rgb_scene000096_render000000.png,stimuli/rgb_scene000096_render000004.png,0,131,131,108,"[1, 0]",left,1,234,25,m,y,y,2019_Apr_30_1505,2AFC_task,59.95351743796609,
stimuli/rgb_scene000012_render000001.png,stimuli/rgb_scene000012_render000003.png,0,132,132,49,"[0, 1]",right,1,234,25,m,y,y,2019_Apr_30_1505,2AFC_task,59.95351743796609,
stimuli/rgb_scene000095_render000002.png,stimuli/rgb_scene000095_render000006.png,0,133,133,98,"[0, 1]",right,1,234,25,m,y,y,2019_Apr_30_1505,2AFC_task,59.95351743796609,
stimuli/rgb_scene000005_render000000.png,stimuli/rgb_scene000005_render000006.png,0,134,134,26,"[1, 0]",right,0,234,25,m,y,y,2019_Apr_30_1505,2AFC_task,59.95351743796609,
stimuli/rgb_scene000102_render000003.png,stimuli/rgb_scene000102_render000004.png,0,135,135,141,"[0, 1]",left,0,234,25,m,y,y,2019_Apr_30_1505,2AFC_task,59.95351743796609,
stimuli/rgb_scene000195_render000005.png,stimuli/rgb_scene000195_render000006.png,0,136,136,209,"[0, 1]",left,0,234,25,m,y,y,2019_Apr_30_1505,2AFC_task,59.95351743796609,
stimuli/rgb_scene000113_render000001.png,stimuli/rgb_scene000113_render000003.png,0,137,137,154,"[1, 0]",left,1,234,25,m,y,y,2019_Apr_30_1505,2AFC_task,59.95351743796609,
stimuli/rgb_scene000095_render000001.png,stimuli/rgb_scene000095_render000005.png,0,138,138,93,"[0, 1]",right,1,234,25,m,y,y,2019_Apr_30_1505,2AFC_task,59.95351743796609,
stimuli/rgb_scene000102_render000002.png,stimuli/rgb_scene000102_render000006.png,0,139,139,140,"[0, 1]",left,0,234,25,m,y,y,2019_Apr_30_1505,2AFC_task,59.95351743796609,
stimuli/rgb_scene000113_render000002.png,stimuli/rgb_scene000113_render000005.png,0,140,140,160,"[0, 1]",right,1,234,25,m,y,y,2019_Apr_30_1505,2AFC_task,59.95351743796609,
stimuli/rgb_scene000005_render000000.png,stimuli/rgb_scene000005_render000004.png,0,141,141,24,"[1, 0]",right,0,234,25,m,y,y,2019_Apr_30_1505,2AFC_task,59.95351743796609,
stimuli/rgb_scene000004_render000000.png,stimuli/rgb_scene000004_render000006.png,0,142,142,5,"[0, 1]",right,1,234,25,m,y,y,2019_Apr_30_1505,2AFC_task,59.95351743796609,
stimuli/rgb_scene000005_render000000.png,stimuli/rgb_scene000005_render000005.png,0,143,143,25,"[1, 0]",left,1,234,25,m,y,y,2019_Apr_30_1505,2AFC_task,59.95351743796609,
stimuli/rgb_scene000090_render000000.png,stimuli/rgb_scene000090_render000006.png,0,144,144,68,"[0, 1]",left,0,234,25,m,y,y,2019_Apr_30_1505,2AFC_task,59.95351743796609,
stimuli/rgb_scene000012_render000003.png,stimuli/rgb_scene000012_render000006.png,0,145,145,59,"[0, 1]",left,0,234,25,m,y,y,2019_Apr_30_1505,2AFC_task,59.95351743796609,
stimuli/rgb_scene000004_render000000.png,stimuli/rgb_scene000004_render000005.png,0,146,146,4,"[0, 1]",right,1,234,25,m,y,y,2019_Apr_30_1505,2AFC_task,59.95351743796609,
stimuli/rgb_scene000195_render000002.png,stimuli/rgb_scene000195_render000004.png,0,147,147,201,"[0, 1]",left,0,234,25,m,y,y,2019_Apr_30_1505,2AFC_task,59.95351743796609,
stimuli/rgb_scene000012_render000000.png,stimuli/rgb_scene000012_render000005.png,0,148,148,46,"[0, 1]",right,1,234,25,m,y,y,2019_Apr_30_1505,2AFC_task,59.95351743796609,
stimuli/rgb_scene000090_render000005.png,stimuli/rgb_scene000090_render000006.png,0,149,149,83,"[1, 0]",right,0,234,25,m,y,y,2019_Apr_30_1505,2AFC_task,59.95351743796609,
stimuli/rgb_scene000095_render000000.png,stimuli/rgb_scene000095_render000006.png,0,150,150,89,"[1, 0]",left,1,234,25,m,y,y,2019_Apr_30_1505,2AFC_task,59.95351743796609,
stimuli/rgb_scene000195_render000001.png,stimuli/rgb_scene000195_render000003.png,0,151,151,196,"[1, 0]",right,0,234,25,m,y,y,2019_Apr_30_1505,2AFC_task,59.95351743796609,
stimuli/rgb_scene000005_render000003.png,stimuli/rgb_scene000005_render000004.png,0,152,152,36,"[0, 1]",left,0,234,25,m,y,y,2019_Apr_30_1505,2AFC_task,59.95351743796609,
stimuli/rgb_scene000012_render000003.png,stimuli/rgb_scene000012_render000005.png,0,153,153,58,"[0, 1]",left,0,234,25,m,y,y,2019_Apr_30_1505,2AFC_task,59.95351743796609,
stimuli/rgb_scene000113_render000001.png,stimuli/rgb_scene000113_render000005.png,0,154,154,156,"[0, 1]",right,1,234,25,m,y,y,2019_Apr_30_1505,2AFC_task,59.95351743796609,
stimuli/rgb_scene000012_render000001.png,stimuli/rgb_scene000012_render000005.png,0,155,155,51,"[1, 0]",left,1,234,25,m,y,y,2019_Apr_30_1505,2AFC_task,59.95351743796609,
stimuli/rgb_scene000102_render000004.png,stimuli/rgb_scene000102_render000005.png,0,156,156,144,"[0, 1]",left,0,234,25,m,y,y,2019_Apr_30_1505,2AFC_task,59.95351743796609,
stimuli/rgb_scene000004_render000003.png,stimuli/rgb_scene000004_render000005.png,0,157,157,16,"[0, 1]",right,1,234,25,m,y,y,2019_Apr_30_1505,2AFC_task,59.95351743796609,
stimuli/rgb_scene000095_render000004.png,stimuli/rgb_scene000095_render000005.png,0,158,158,102,"[1, 0]",left,1,234,25,m,y,y,2019_Apr_30_1505,2AFC_task,59.95351743796609,
stimuli/rgb_scene000113_render000003.png,stimuli/rgb_scene000113_render000004.png,0,159,159,162,"[1, 0]",left,1,234,25,m,y,y,2019_Apr_30_1505,2AFC_task,59.95351743796609,
stimuli/rgb_scene000195_render000002.png,stimuli/rgb_scene000195_render000006.png,0,160,160,203,"[1, 0]",right,0,234,25,m,y,y,2019_Apr_30_1505,2AFC_task,59.95351743796609,
stimuli/rgb_scene000090_render000000.png,stimuli/rgb_scene000090_render000005.png,0,161,161,67,"[0, 1]",left,0,234,25,m,y,y,2019_Apr_30_1505,2AFC_task,59.95351743796609,
stimuli/rgb_scene000113_render000001.png,stimuli/rgb_scene000113_render000002.png,0,162,162,153,"[0, 1]",right,1,234,25,m,y,y,2019_Apr_30_1505,2AFC_task,59.95351743796609,
stimuli/rgb_scene000096_render000001.png,stimuli/rgb_scene000096_render000003.png,0,163,163,112,"[1, 0]",left,1,234,25,m,y,y,2019_Apr_30_1505,2AFC_task,59.95351743796609,
stimuli/rgb_scene000096_render000000.png,stimuli/rgb_scene000096_render000003.png,0,164,164,107,"[0, 1]",right,1,234,25,m,y,y,2019_Apr_30_1505,2AFC_task,59.95351743796609,
stimuli/rgb_scene000102_render000002.png,stimuli/rgb_scene000102_render000005.png,0,165,165,139,"[0, 1]",right,1,234,25,m,y,y,2019_Apr_30_1505,2AFC_task,59.95351743796609,
stimuli/rgb_scene000096_render000001.png,stimuli/rgb_scene000096_render000006.png,0,166,166,115,"[0, 1]",right,1,234,25,m,y,y,2019_Apr_30_1505,2AFC_task,59.95351743796609,
stimuli/rgb_scene000195_render000001.png,stimuli/rgb_scene000195_render000006.png,0,167,167,199,"[1, 0]",right,0,234,25,m,y,y,2019_Apr_30_1505,2AFC_task,59.95351743796609,
stimuli/rgb_scene000096_render000000.png,stimuli/rgb_scene000096_render000005.png,0,168,168,109,"[0, 1]",right,1,234,25,m,y,y,2019_Apr_30_1505,2AFC_task,59.95351743796609,
stimuli/rgb_scene000102_render000001.png,stimuli/rgb_scene000102_render000005.png,0,169,169,135,"[1, 0]",left,1,234,25,m,y,y,2019_Apr_30_1505,2AFC_task,59.95351743796609,
stimuli/rgb_scene000102_render000000.png,stimuli/rgb_scene000102_render000002.png,0,170,170,127,"[1, 0]",left,1,234,25,m,y,y,2019_Apr_30_1505,2AFC_task,59.95351743796609,
stimuli/rgb_scene000102_render000000.png,stimuli/rgb_scene000102_render000001.png,0,171,171,126,"[1, 0]",left,1,234,25,m,y,y,2019_Apr_30_1505,2AFC_task,59.95351743796609,
stimuli/rgb_scene000102_render000001.png,stimuli/rgb_scene000102_render000003.png,0,172,172,133,"[1, 0]",left,1,234,25,m,y,y,2019_Apr_30_1505,2AFC_task,59.95351743796609,
stimuli/rgb_scene000005_render000001.png,stimuli/rgb_scene000005_render000002.png,0,173,173,27,"[0, 1]",right,1,234,25,m,y,y,2019_Apr_30_1505,2AFC_task,59.95351743796609,
stimuli/rgb_scene000090_render000001.png,stimuli/rgb_scene000090_render000002.png,0,174,174,69,"[1, 0]",left,1,234,25,m,y,y,2019_Apr_30_1505,2AFC_task,59.95351743796609,
stimuli/rgb_scene000004_render000004.png,stimuli/rgb_scene000004_render000006.png,0,175,175,19,"[0, 1]",left,0,234,25,m,y,y,2019_Apr_30_1505,2AFC_task,59.95351743796609,
stimuli/rgb_scene000096_render000002.png,stimuli/rgb_scene000096_render000003.png,0,176,176,116,"[0, 1]",right,1,234,25,m,y,y,2019_Apr_30_1505,2AFC_task,59.95351743796609,
stimuli/rgb_scene000096_render000005.png,stimuli/rgb_scene000096_render000006.png,0,177,177,125,"[0, 1]",right,1,234,25,m,y,y,2019_Apr_30_1505,2AFC_task,59.95351743796609,
stimuli/rgb_scene000102_render000005.png,stimuli/rgb_scene000102_render000006.png,0,178,178,146,"[0, 1]",left,0,234,25,m,y,y,2019_Apr_30_1505,2AFC_task,59.95351743796609,
stimuli/rgb_scene000004_render000005.png,stimuli/rgb_scene000004_render000006.png,0,179,179,20,"[0, 1]",left,0,234,25,m,y,y,2019_Apr_30_1505,2AFC_task,59.95351743796609,
stimuli/rgb_scene000146_render000003.png,stimuli/rgb_scene000146_render000006.png,0,180,180,185,"[1, 0]",right,0,234,25,m,y,y,2019_Apr_30_1505,2AFC_task,59.95351743796609,
stimuli/rgb_scene000146_render000000.png,stimuli/rgb_scene000146_render000002.png,0,181,181,169,"[1, 0]",left,1,234,25,m,y,y,2019_Apr_30_1505,2AFC_task,59.95351743796609,
stimuli/rgb_scene000113_render000005.png,stimuli/rgb_scene000113_render000006.png,0,182,182,167,"[0, 1]",left,0,234,25,m,y,y,2019_Apr_30_1505,2AFC_task,59.95351743796609,
stimuli/rgb_scene000102_render000004.png,stimuli/rgb_scene000102_render000006.png,0,183,183,145,"[1, 0]",right,0,234,25,m,y,y,2019_Apr_30_1505,2AFC_task,59.95351743796609,
stimuli/rgb_scene000095_render000000.png,stimuli/rgb_scene000095_render000002.png,0,184,184,85,"[0, 1]",left,0,234,25,m,y,y,2019_Apr_30_1505,2AFC_task,59.95351743796609,
stimuli/rgb_scene000005_render000001.png,stimuli/rgb_scene000005_render000006.png,0,185,185,31,"[0, 1]",left,0,234,25,m,y,y,2019_Apr_30_1505,2AFC_task,59.95351743796609,
stimuli/rgb_scene000095_render000001.png,stimuli/rgb_scene000095_render000002.png,0,186,186,90,"[0, 1]",right,1,234,25,m,y,y,2019_Apr_30_1505,2AFC_task,59.95351743796609,
stimuli/rgb_scene000146_render000001.png,stimuli/rgb_scene000146_render000004.png,0,187,187,176,"[1, 0]",left,1,234,25,m,y,y,2019_Apr_30_1505,2AFC_task,59.95351743796609,
stimuli/rgb_scene000012_render000002.png,stimuli/rgb_scene000012_render000005.png,0,188,188,55,"[1, 0]",right,0,234,25,m,y,y,2019_Apr_30_1505,2AFC_task,59.95351743796609,
stimuli/rgb_scene000146_render000003.png,stimuli/rgb_scene000146_render000005.png,0,189,189,184,"[0, 1]",left,0,234,25,m,y,y,2019_Apr_30_1505,2AFC_task,59.95351743796609,
stimuli/rgb_scene000096_render000001.png,stimuli/rgb_scene000096_render000004.png,0,190,190,113,"[1, 0]",left,1,234,25,m,y,y,2019_Apr_30_1505,2AFC_task,59.95351743796609,
stimuli/rgb_scene000113_render000000.png,stimuli/rgb_scene000113_render000005.png,0,191,191,151,"[0, 1]",right,1,234,25,m,y,y,2019_Apr_30_1505,2AFC_task,59.95351743796609,
stimuli/rgb_scene000102_render000000.png,stimuli/rgb_scene000102_render000004.png,0,192,192,129,"[1, 0]",left,1,234,25,m,y,y,2019_Apr_30_1505,2AFC_task,59.95351743796609,
stimuli/rgb_scene000113_render000000.png,stimuli/rgb_scene000113_render000006.png,0,193,193,152,"[1, 0]",left,1,234,25,m,y,y,2019_Apr_30_1505,2AFC_task,59.95351743796609,
stimuli/rgb_scene000090_render000001.png,stimuli/rgb_scene000090_render000005.png,0,194,194,72,"[1, 0]",right,0,234,25,m,y,y,2019_Apr_30_1505,2AFC_task,59.95351743796609,
stimuli/rgb_scene000090_render000000.png,stimuli/rgb_scene000090_render000002.png,0,195,195,64,"[1, 0]",right,0,234,25,m,y,y,2019_Apr_30_1505,2AFC_task,59.95351743796609,
stimuli/rgb_scene000090_render000004.png,stimuli/rgb_scene000090_render000005.png,0,196,196,81,"[0, 1]",left,0,234,25,m,y,y,2019_Apr_30_1505,2AFC_task,59.95351743796609,
stimuli/rgb_scene000195_render000000.png,stimuli/rgb_scene000195_render000005.png,0,197,197,193,"[0, 1]",left,0,234,25,m,y,y,2019_Apr_30_1505,2AFC_task,59.95351743796609,
stimuli/rgb_scene000095_render000000.png,stimuli/rgb_scene000095_render000004.png,0,198,198,87,"[0, 1]",right,1,234,25,m,y,y,2019_Apr_30_1505,2AFC_task,59.95351743796609,
stimuli/rgb_scene000102_render000000.png,stimuli/rgb_scene000102_render000006.png,0,199,199,131,"[1, 0]",left,1,234,25,m,y,y,2019_Apr_30_1505,2AFC_task,59.95351743796609,
stimuli/rgb_scene000012_render000002.png,stimuli/rgb_scene000012_render000006.png,0,200,200,56,"[1, 0]",right,0,234,25,m,y,y,2019_Apr_30_1505,2AFC_task,59.95351743796609,
stimuli/rgb_scene000146_render000002.png,stimuli/rgb_scene000146_render000005.png,0,201,201,181,"[0, 1]",left,0,234,25,m,y,y,2019_Apr_30_1505,2AFC_task,59.95351743796609,
stimuli/rgb_scene000005_render000000.png,stimuli/rgb_scene000005_render000001.png,0,202,202,21,"[0, 1]",left,0,234,25,m,y,y,2019_Apr_30_1505,2AFC_task,59.95351743796609,
stimuli/rgb_scene000095_render000003.png,stimuli/rgb_scene000095_render000006.png,0,203,203,101,"[0, 1]",right,1,234,25,m,y,y,2019_Apr_30_1505,2AFC_task,59.95351743796609,
stimuli/rgb_scene000096_render000002.png,stimuli/rgb_scene000096_render000004.png,0,204,204,117,"[1, 0]",left,1,234,25,m,y,y,2019_Apr_30_1505,2AFC_task,59.95351743796609,
stimuli/rgb_scene000005_render000002.png,stimuli/rgb_scene000005_render000004.png,0,205,205,33,"[0, 1]",right,1,234,25,m,y,y,2019_Apr_30_1505,2AFC_task,59.95351743796609,
stimuli/rgb_scene000005_render000001.png,stimuli/rgb_scene000005_render000004.png,0,206,206,29,"[0, 1]",right,1,234,25,m,y,y,2019_Apr_30_1505,2AFC_task,59.95351743796609,
stimuli/rgb_scene000090_render000002.png,stimuli/rgb_scene000090_render000006.png,0,207,207,77,"[0, 1]",left,0,234,25,m,y,y,2019_Apr_30_1505,2AFC_task,59.95351743796609,
stimuli/rgb_scene000096_render000003.png,stimuli/rgb_scene000096_render000006.png,0,208,208,122,"[1, 0]",left,1,234,25,m,y,y,2019_Apr_30_1505,2AFC_task,59.95351743796609,
stimuli/rgb_scene000113_render000001.png,stimuli/rgb_scene000113_render000006.png,0,209,209,157,"[0, 1]",left,0,234,25,m,y,y,2019_Apr_30_1505,2AFC_task,59.95351743796609,
stimuli/rgb_scene000090_render000000.png,stimuli/rgb_scene000090_render000002.png,1,0,210,64,"[1, 0]",right,0,234,25,m,y,y,2019_Apr_30_1505,2AFC_task,59.95351743796609,
stimuli/rgb_scene000090_render000002.png,stimuli/rgb_scene000090_render000006.png,1,1,211,77,"[0, 1]",left,0,234,25,m,y,y,2019_Apr_30_1505,2AFC_task,59.95351743796609,
stimuli/rgb_scene000102_render000000.png,stimuli/rgb_scene000102_render000003.png,1,2,212,128,"[0, 1]",right,1,234,25,m,y,y,2019_Apr_30_1505,2AFC_task,59.95351743796609,
stimuli/rgb_scene000096_render000002.png,stimuli/rgb_scene000096_render000006.png,1,3,213,119,"[1, 0]",left,1,234,25,m,y,y,2019_Apr_30_1505,2AFC_task,59.95351743796609,
stimuli/rgb_scene000113_render000003.png,stimuli/rgb_scene000113_render000006.png,1,4,214,164,"[0, 1]",left,0,234,25,m,y,y,2019_Apr_30_1505,2AFC_task,59.95351743796609,
stimuli/rgb_scene000146_render000003.png,stimuli/rgb_scene000146_render000005.png,1,5,215,184,"[1, 0]",left,1,234,25,m,y,y,2019_Apr_30_1505,2AFC_task,59.95351743796609,
stimuli/rgb_scene000195_render000000.png,stimuli/rgb_scene000195_render000001.png,1,6,216,189,"[1, 0]",right,0,234,25,m,y,y,2019_Apr_30_1505,2AFC_task,59.95351743796609,
stimuli/rgb_scene000095_render000000.png,stimuli/rgb_scene000095_render000001.png,1,7,217,84,"[1, 0]",right,0,234,25,m,y,y,2019_Apr_30_1505,2AFC_task,59.95351743796609,
stimuli/rgb_scene000146_render000003.png,stimuli/rgb_scene000146_render000004.png,1,8,218,183,"[1, 0]",right,0,234,25,m,y,y,2019_Apr_30_1505,2AFC_task,59.95351743796609,
stimuli/rgb_scene000004_render000002.png,stimuli/rgb_scene000004_render000006.png,1,9,219,14,"[1, 0]",left,1,234,25,m,y,y,2019_Apr_30_1505,2AFC_task,59.95351743796609,
stimuli/rgb_scene000004_render000003.png,stimuli/rgb_scene000004_render000004.png,1,10,220,15,"[0, 1]",right,1,234,25,m,y,y,2019_Apr_30_1505,2AFC_task,59.95351743796609,
stimuli/rgb_scene000012_render000003.png,stimuli/rgb_scene000012_render000006.png,1,11,221,59,"[0, 1]",left,0,234,25,m,y,y,2019_Apr_30_1505,2AFC_task,59.95351743796609,
stimuli/rgb_scene000195_render000002.png,stimuli/rgb_scene000195_render000005.png,1,12,222,202,"[0, 1]",left,0,234,25,m,y,y,2019_Apr_30_1505,2AFC_task,59.95351743796609,
stimuli/rgb_scene000096_render000000.png,stimuli/rgb_scene000096_render000005.png,1,13,223,109,"[0, 1]",right,1,234,25,m,y,y,2019_Apr_30_1505,2AFC_task,59.95351743796609,
stimuli/rgb_scene000005_render000000.png,stimuli/rgb_scene000005_render000005.png,1,14,224,25,"[0, 1]",left,0,234,25,m,y,y,2019_Apr_30_1505,2AFC_task,59.95351743796609,
stimuli/rgb_scene000004_render000000.png,stimuli/rgb_scene000004_render000003.png,1,15,225,2,"[0, 1]",right,1,234,25,m,y,y,2019_Apr_30_1505,2AFC_task,59.95351743796609,
stimuli/rgb_scene000004_render000002.png,stimuli/rgb_scene000004_render000004.png,1,16,226,12,"[0, 1]",left,0,234,25,m,y,y,2019_Apr_30_1505,2AFC_task,59.95351743796609,
stimuli/rgb_scene000146_render000000.png,stimuli/rgb_scene000146_render000004.png,1,17,227,171,"[1, 0]",left,1,234,25,m,y,y,2019_Apr_30_1505,2AFC_task,59.95351743796609,
stimuli/rgb_scene000004_render000001.png,stimuli/rgb_scene000004_render000003.png,1,18,228,7,"[1, 0]",left,1,234,25,m,y,y,2019_Apr_30_1505,2AFC_task,59.95351743796609,
stimuli/rgb_scene000095_render000003.png,stimuli/rgb_scene000095_render000006.png,1,19,229,101,"[1, 0]",left,1,234,25,m,y,y,2019_Apr_30_1505,2AFC_task,59.95351743796609,
stimuli/rgb_scene000113_render000000.png,stimuli/rgb_scene000113_render000004.png,1,20,230,150,"[1, 0]",left,1,234,25,m,y,y,2019_Apr_30_1505,2AFC_task,59.95351743796609,
stimuli/rgb_scene000090_render000002.png,stimuli/rgb_scene000090_render000004.png,1,21,231,75,"[0, 1]",left,0,234,25,m,y,y,2019_Apr_30_1505,2AFC_task,59.95351743796609,
stimuli/rgb_scene000146_render000002.png,stimuli/rgb_scene000146_render000005.png,1,22,232,181,"[0, 1]",right,1,234,25,m,y,y,2019_Apr_30_1505,2AFC_task,59.95351743796609,
stimuli/rgb_scene000012_render000004.png,stimuli/rgb_scene000012_render000005.png,1,23,233,60,"[0, 1]",right,1,234,25,m,y,y,2019_Apr_30_1505,2AFC_task,59.95351743796609,
stimuli/rgb_scene000090_render000002.png,stimuli/rgb_scene000090_render000003.png,1,24,234,74,"[0, 1]",left,0,234,25,m,y,y,2019_Apr_30_1505,2AFC_task,59.95351743796609,
stimuli/rgb_scene000095_render000002.png,stimuli/rgb_scene000095_render000003.png,1,25,235,95,"[0, 1]",right,1,234,25,m,y,y,2019_Apr_30_1505,2AFC_task,59.95351743796609,
stimuli/rgb_scene000095_render000004.png,stimuli/rgb_scene000095_render000005.png,1,26,236,102,"[1, 0]",left,1,234,25,m,y,y,2019_Apr_30_1505,2AFC_task,59.95351743796609,
stimuli/rgb_scene000102_render000001.png,stimuli/rgb_scene000102_render000005.png,1,27,237,135,"[1, 0]",left,1,234,25,m,y,y,2019_Apr_30_1505,2AFC_task,59.95351743796609,
stimuli/rgb_scene000113_render000002.png,stimuli/rgb_scene000113_render000005.png,1,28,238,160,"[0, 1]",right,1,234,25,m,y,y,2019_Apr_30_1505,2AFC_task,59.95351743796609,
stimuli/rgb_scene000102_render000005.png,stimuli/rgb_scene000102_render000006.png,1,29,239,146,"[0, 1]",left,0,234,25,m,y,y,2019_Apr_30_1505,2AFC_task,59.95351743796609,
stimuli/rgb_scene000096_render000001.png,stimuli/rgb_scene000096_render000002.png,1,30,240,111,"[0, 1]",right,1,234,25,m,y,y,2019_Apr_30_1505,2AFC_task,59.95351743796609,
stimuli/rgb_scene000090_render000000.png,stimuli/rgb_scene000090_render000006.png,1,31,241,68,"[1, 0]",right,0,234,25,m,y,y,2019_Apr_30_1505,2AFC_task,59.95351743796609,
stimuli/rgb_scene000113_render000002.png,stimuli/rgb_scene000113_render000004.png,1,32,242,159,"[0, 1]",right,1,234,25,m,y,y,2019_Apr_30_1505,2AFC_task,59.95351743796609,
stimuli/rgb_scene000102_render000000.png,stimuli/rgb_scene000102_render000006.png,1,33,243,131,"[1, 0]",left,1,234,25,m,y,y,2019_Apr_30_1505,2AFC_task,59.95351743796609,
stimuli/rgb_scene000113_render000000.png,stimuli/rgb_scene000113_render000005.png,1,34,244,151,"[1, 0]",left,1,234,25,m,y,y,2019_Apr_30_1505,2AFC_task,59.95351743796609,
stimuli/rgb_scene000102_render000003.png,stimuli/rgb_scene000102_render000004.png,1,35,245,141,"[0, 1]",right,1,234,25,m,y,y,2019_Apr_30_1505,2AFC_task,59.95351743796609,
stimuli/rgb_scene000095_render000001.png,stimuli/rgb_scene000095_render000006.png,1,36,246,94,"[0, 1]",right,1,234,25,m,y,y,2019_Apr_30_1505,2AFC_task,59.95351743796609,
stimuli/rgb_scene000096_render000004.png,stimuli/rgb_scene000096_render000005.png,1,37,247,123,"[1, 0]",left,1,234,25,m,y,y,2019_Apr_30_1505,2AFC_task,59.95351743796609,
stimuli/rgb_scene000195_render000005.png,stimuli/rgb_scene000195_render000006.png,1,38,248,209,"[1, 0]",left,1,234,25,m,y,y,2019_Apr_30_1505,2AFC_task,59.95351743796609,
stimuli/rgb_scene000090_render000001.png,stimuli/rgb_scene000090_render000004.png,1,39,249,71,"[1, 0]",right,0,234,25,m,y,y,2019_Apr_30_1505,2AFC_task,59.95351743796609,
stimuli/rgb_scene000113_render000001.png,stimuli/rgb_scene000113_render000002.png,1,40,250,153,"[1, 0]",right,0,234,25,m,y,y,2019_Apr_30_1505,2AFC_task,59.95351743796609,
stimuli/rgb_scene000004_render000003.png,stimuli/rgb_scene000004_render000006.png,1,41,251,17,"[0, 1]",left,0,234,25,m,y,y,2019_Apr_30_1505,2AFC_task,59.95351743796609,
stimuli/rgb_scene000102_render000002.png,stimuli/rgb_scene000102_render000004.png,1,42,252,138,"[1, 0]",left,1,234,25,m,y,y,2019_Apr_30_1505,2AFC_task,59.95351743796609,
stimuli/rgb_scene000146_render000001.png,stimuli/rgb_scene000146_render000006.png,1,43,253,178,"[1, 0]",left,1,234,25,m,y,y,2019_Apr_30_1505,2AFC_task,59.95351743796609,
stimuli/rgb_scene000095_render000001.png,stimuli/rgb_scene000095_render000005.png,1,44,254,93,"[1, 0]",left,1,234,25,m,y,y,2019_Apr_30_1505,2AFC_task,59.95351743796609,
stimuli/rgb_scene000090_render000000.png,stimuli/rgb_scene000090_render000004.png,1,45,255,66,"[1, 0]",right,0,234,25,m,y,y,2019_Apr_30_1505,2AFC_task,59.95351743796609,
stimuli/rgb_scene000012_render000000.png,stimuli/rgb_scene000012_render000005.png,1,46,256,46,"[1, 0]",left,1,234,25,m,y,y,2019_Apr_30_1505,2AFC_task,59.95351743796609,
stimuli/rgb_scene000012_render000000.png,stimuli/rgb_scene000012_render000003.png,1,47,257,44,"[1, 0]",left,1,234,25,m,y,y,2019_Apr_30_1505,2AFC_task,59.95351743796609,
stimuli/rgb_scene000005_render000000.png,stimuli/rgb_scene000005_render000004.png,1,48,258,24,"[1, 0]",right,0,234,25,m,y,y,2019_Apr_30_1505,2AFC_task,59.95351743796609,
stimuli/rgb_scene000146_render000001.png,stimuli/rgb_scene000146_render000005.png,1,49,259,177,"[1, 0]",left,1,234,25,m,y,y,2019_Apr_30_1505,2AFC_task,59.95351743796609,
stimuli/rgb_scene000004_render000001.png,stimuli/rgb_scene000004_render000004.png,1,50,260,8,"[0, 1]",right,1,234,25,m,y,y,2019_Apr_30_1505,2AFC_task,59.95351743796609,
stimuli/rgb_scene000005_render000002.png,stimuli/rgb_scene000005_render000004.png,1,51,261,33,"[0, 1]",left,0,234,25,m,y,y,2019_Apr_30_1505,2AFC_task,59.95351743796609,
stimuli/rgb_scene000090_render000004.png,stimuli/rgb_scene000090_render000005.png,1,52,262,81,"[1, 0]",right,0,234,25,m,y,y,2019_Apr_30_1505,2AFC_task,59.95351743796609,
stimuli/rgb_scene000146_render000001.png,stimuli/rgb_scene000146_render000003.png,1,53,263,175,"[0, 1]",right,1,234,25,m,y,y,2019_Apr_30_1505,2AFC_task,59.95351743796609,
stimuli/rgb_scene000096_render000000.png,stimuli/rgb_scene000096_render000006.png,1,54,264,110,"[0, 1]",right,1,234,25,m,y,y,2019_Apr_30_1505,2AFC_task,59.95351743796609,
stimuli/rgb_scene000195_render000004.png,stimuli/rgb_scene000195_render000006.png,1,55,265,208,"[1, 0]",right,0,234,25,m,y,y,2019_Apr_30_1505,2AFC_task,59.95351743796609,
stimuli/rgb_scene000102_render000000.png,stimuli/rgb_scene000102_render000004.png,1,56,266,129,"[0, 1]",right,1,234,25,m,y,y,2019_Apr_30_1505,2AFC_task,59.95351743796609,
stimuli/rgb_scene000102_render000004.png,stimuli/rgb_scene000102_render000006.png,1,57,267,145,"[0, 1]",left,0,234,25,m,y,y,2019_Apr_30_1505,2AFC_task,59.95351743796609,
stimuli/rgb_scene000095_render000000.png,stimuli/rgb_scene000095_render000004.png,1,58,268,87,"[0, 1]",left,0,234,25,m,y,y,2019_Apr_30_1505,2AFC_task,59.95351743796609,
stimuli/rgb_scene000096_render000003.png,stimuli/rgb_scene000096_render000004.png,1,59,269,120,"[1, 0]",left,1,234,25,m,y,y,2019_Apr_30_1505,2AFC_task,59.95351743796609,
stimuli/rgb_scene000113_render000001.png,stimuli/rgb_scene000113_render000005.png,1,60,270,156,"[1, 0]",left,1,234,25,m,y,y,2019_Apr_30_1505,2AFC_task,59.95351743796609,
stimuli/rgb_scene000096_render000005.png,stimuli/rgb_scene000096_render000006.png,1,61,271,125,"[1, 0]",left,1,234,25,m,y,y,2019_Apr_30_1505,2AFC_task,59.95351743796609,
stimuli/rgb_scene000102_render000004.png,stimuli/rgb_scene000102_render000005.png,1,62,272,144,"[1, 0]",right,0,234,25,m,y,y,2019_Apr_30_1505,2AFC_task,59.95351743796609,
stimuli/rgb_scene000096_render000004.png,stimuli/rgb_scene000096_render000006.png,1,63,273,124,"[0, 1]",right,1,234,25,m,y,y,2019_Apr_30_1505,2AFC_task,59.95351743796609,
stimuli/rgb_scene000095_render000005.png,stimuli/rgb_scene000095_render000006.png,1,64,274,104,"[0, 1]",right,1,234,25,m,y,y,2019_Apr_30_1505,2AFC_task,59.95351743796609,
stimuli/rgb_scene000102_render000000.png,stimuli/rgb_scene000102_render000001.png,1,65,275,126,"[1, 0]",left,1,234,25,m,y,y,2019_Apr_30_1505,2AFC_task,59.95351743796609,
stimuli/rgb_scene000004_render000004.png,stimuli/rgb_scene000004_render000006.png,1,66,276,19,"[1, 0]",right,0,234,25,m,y,y,2019_Apr_30_1505,2AFC_task,59.95351743796609,
stimuli/rgb_scene000005_render000003.png,stimuli/rgb_scene000005_render000006.png,1,67,277,38,"[0, 1]",left,0,234,25,m,y,y,2019_Apr_30_1505,2AFC_task,59.95351743796609,
stimuli/rgb_scene000102_render000002.png,stimuli/rgb_scene000102_render000003.png,1,68,278,137,"[0, 1]",right,1,234,25,m,y,y,2019_Apr_30_1505,2AFC_task,59.95351743796609,
stimuli/rgb_scene000090_render000001.png,stimuli/rgb_scene000090_render000002.png,1,69,279,69,"[1, 0]",right,0,234,25,m,y,y,2019_Apr_30_1505,2AFC_task,59.95351743796609,
stimuli/rgb_scene000146_render000000.png,stimuli/rgb_scene000146_render000006.png,1,70,280,173,"[0, 1]",right,1,234,25,m,y,y,2019_Apr_30_1505,2AFC_task,59.95351743796609,
stimuli/rgb_scene000195_render000000.png,stimuli/rgb_scene000195_render000003.png,1,71,281,191,"[1, 0]",left,1,234,25,m,y,y,2019_Apr_30_1505,2AFC_task,59.95351743796609,
stimuli/rgb_scene000095_render000000.png,stimuli/rgb_scene000095_render000002.png,1,72,282,85,"[0, 1]",left,0,234,25,m,y,y,2019_Apr_30_1505,2AFC_task,59.95351743796609,
stimuli/rgb_scene000004_render000001.png,stimuli/rgb_scene000004_render000002.png,1,73,283,6,"[0, 1]",right,1,234,25,m,y,y,2019_Apr_30_1505,2AFC_task,59.95351743796609,
stimuli/rgb_scene000004_render000000.png,stimuli/rgb_scene000004_render000002.png,1,74,284,1,"[0, 1]",right,1,234,25,m,y,y,2019_Apr_30_1505,2AFC_task,59.95351743796609,
stimuli/rgb_scene000146_render000002.png,stimuli/rgb_scene000146_render000003.png,1,75,285,179,"[1, 0]",left,1,234,25,m,y,y,2019_Apr_30_1505,2AFC_task,59.95351743796609,
stimuli/rgb_scene000005_render000003.png,stimuli/rgb_scene000005_render000005.png,1,76,286,37,"[0, 1]",left,0,234,25,m,y,y,2019_Apr_30_1505,2AFC_task,59.95351743796609,
stimuli/rgb_scene000102_render000001.png,stimuli/rgb_scene000102_render000003.png,1,77,287,133,"[0, 1]",right,1,234,25,m,y,y,2019_Apr_30_1505,2AFC_task,59.95351743796609,
stimuli/rgb_scene000096_render000002.png,stimuli/rgb_scene000096_render000005.png,1,78,288,118,"[0, 1]",right,1,234,25,m,y,y,2019_Apr_30_1505,2AFC_task,59.95351743796609,
stimuli/rgb_scene000005_render000002.png,stimuli/rgb_scene000005_render000003.png,1,79,289,32,"[1, 0]",left,1,234,25,m,y,y,2019_Apr_30_1505,2AFC_task,59.95351743796609,
stimuli/rgb_scene000146_render000002.png,stimuli/rgb_scene000146_render000004.png,1,80,290,180,"[0, 1]",right,1,234,25,m,y,y,2019_Apr_30_1505,2AFC_task,59.95351743796609,
stimuli/rgb_scene000195_render000000.png,stimuli/rgb_scene000195_render000004.png,1,81,291,192,"[1, 0]",right,0,234,25,m,y,y,2019_Apr_30_1505,2AFC_task,59.95351743796609,
stimuli/rgb_scene000113_render000005.png,stimuli/rgb_scene000113_render000006.png,1,82,292,167,"[1, 0]",right,0,234,25,m,y,y,2019_Apr_30_1505,2AFC_task,59.95351743796609,
stimuli/rgb_scene000113_render000000.png,stimuli/rgb_scene000113_render000006.png,1,83,293,152,"[1, 0]",left,1,234,25,m,y,y,2019_Apr_30_1505,2AFC_task,59.95351743796609,
stimuli/rgb_scene000095_render000003.png,stimuli/rgb_scene000095_render000004.png,1,84,294,99,"[1, 0]",left,1,234,25,m,y,y,2019_Apr_30_1505,2AFC_task,59.95351743796609,
stimuli/rgb_scene000096_render000003.png,stimuli/rgb_scene000096_render000005.png,1,85,295,121,"[0, 1]",right,1,234,25,m,y,y,2019_Apr_30_1505,2AFC_task,59.95351743796609,
stimuli/rgb_scene000113_render000004.png,stimuli/rgb_scene000113_render000006.png,1,86,296,166,"[1, 0]",right,0,234,25,m,y,y,2019_Apr_30_1505,2AFC_task,59.95351743796609,
stimuli/rgb_scene000012_render000002.png,stimuli/rgb_scene000012_render000003.png,1,87,297,53,"[0, 1]",right,1,234,25,m,y,y,2019_Apr_30_1505,2AFC_task,59.95351743796609,
stimuli/rgb_scene000102_render000002.png,stimuli/rgb_scene000102_render000006.png,1,88,298,140,"[0, 1]",left,0,234,25,m,y,y,2019_Apr_30_1505,2AFC_task,59.95351743796609,
stimuli/rgb_scene000095_render000000.png,stimuli/rgb_scene000095_render000003.png,1,89,299,86,"[1, 0]",left,1,234,25,m,y,y,2019_Apr_30_1505,2AFC_task,59.95351743796609,
stimuli/rgb_scene000005_render000000.png,stimuli/rgb_scene000005_render000001.png,1,90,300,21,"[1, 0]",left,1,234,25,m,y,y,2019_Apr_30_1505,2AFC_task,59.95351743796609,
stimuli/rgb_scene000012_render000000.png,stimuli/rgb_scene000012_render000002.png,1,91,301,43,"[0, 1]",right,1,234,25,m,y,y,2019_Apr_30_1505,2AFC_task,59.95351743796609,
stimuli/rgb_scene000195_render000002.png,stimuli/rgb_scene000195_render000004.png,1,92,302,201,"[0, 1]",left,0,234,25,m,y,y,2019_Apr_30_1505,2AFC_task,59.95351743796609,
stimuli/rgb_scene000195_render000000.png,stimuli/rgb_scene000195_render000002.png,1,93,303,190,"[0, 1]",right,1,234,25,m,y,y,2019_Apr_30_1505,2AFC_task,59.95351743796609,
stimuli/rgb_scene000090_render000003.png,stimuli/rgb_scene000090_render000005.png,1,94,304,79,"[0, 1]",right,1,234,25,m,y,y,2019_Apr_30_1505,2AFC_task,59.95351743796609,
stimuli/rgb_scene000005_render000002.png,stimuli/rgb_scene000005_render000006.png,1,95,305,35,"[0, 1]",left,0,234,25,m,y,y,2019_Apr_30_1505,2AFC_task,59.95351743796609,
stimuli/rgb_scene000113_render000001.png,stimuli/rgb_scene000113_render000006.png,1,96,306,157,"[0, 1]",right,1,234,25,m,y,y,2019_Apr_30_1505,2AFC_task,59.95351743796609,
stimuli/rgb_scene000113_render000000.png,stimuli/rgb_scene000113_render000003.png,1,97,307,149,"[0, 1]",right,1,234,25,m,y,y,2019_Apr_30_1505,2AFC_task,59.95351743796609,
stimuli/rgb_scene000146_render000005.png,stimuli/rgb_scene000146_render000006.png,1,98,308,188,"[1, 0]",right,0,234,25,m,y,y,2019_Apr_30_1505,2AFC_task,59.95351743796609,
stimuli/rgb_scene000096_render000003.png,stimuli/rgb_scene000096_render000006.png,1,99,309,122,"[0, 1]",right,1,234,25,m,y,y,2019_Apr_30_1505,2AFC_task,59.95351743796609,
stimuli/rgb_scene000195_render000003.png,stimuli/rgb_scene000195_render000006.png,1,100,310,206,"[1, 0]",right,0,234,25,m,y,y,2019_Apr_30_1505,2AFC_task,59.95351743796609,
stimuli/rgb_scene000146_render000003.png,stimuli/rgb_scene000146_render000006.png,1,101,311,185,"[0, 1]",left,0,234,25,m,y,y,2019_Apr_30_1505,2AFC_task,59.95351743796609,
stimuli/rgb_scene000095_render000001.png,stimuli/rgb_scene000095_render000003.png,1,102,312,91,"[0, 1]",left,0,234,25,m,y,y,2019_Apr_30_1505,2AFC_task,59.95351743796609,
stimuli/rgb_scene000004_render000003.png,stimuli/rgb_scene000004_render000005.png,1,103,313,16,"[0, 1]",right,1,234,25,m,y,y,2019_Apr_30_1505,2AFC_task,59.95351743796609,
stimuli/rgb_scene000102_render000001.png,stimuli/rgb_scene000102_render000006.png,1,104,314,136,"[0, 1]",right,1,234,25,m,y,y,2019_Apr_30_1505,2AFC_task,59.95351743796609,
stimuli/rgb_scene000090_render000000.png,stimuli/rgb_scene000090_render000001.png,1,105,315,63,"[1, 0]",right,0,234,25,m,y,y,2019_Apr_30_1505,2AFC_task,59.95351743796609,
stimuli/rgb_scene000004_render000000.png,stimuli/rgb_scene000004_render000001.png,1,106,316,0,"[0, 1]",right,1,234,25,m,y,y,2019_Apr_30_1505,2AFC_task,59.95351743796609,
stimuli/rgb_scene000005_render000003.png,stimuli/rgb_scene000005_render000004.png,1,107,317,36,"[1, 0]",right,0,234,25,m,y,y,2019_Apr_30_1505,2AFC_task,59.95351743796609,
stimuli/rgb_scene000195_render000003.png,stimuli/rgb_scene000195_render000004.png,1,108,318,204,"[0, 1]",left,0,234,25,m,y,y,2019_Apr_30_1505,2AFC_task,59.95351743796609,
stimuli/rgb_scene000146_render000000.png,stimuli/rgb_scene000146_render000003.png,1,109,319,170,"[0, 1]",right,1,234,25,m,y,y,2019_Apr_30_1505,2AFC_task,59.95351743796609,
stimuli/rgb_scene000090_render000001.png,stimuli/rgb_scene000090_render000003.png,1,110,320,70,"[1, 0]",right,0,234,25,m,y,y,2019_Apr_30_1505,2AFC_task,59.95351743796609,
stimuli/rgb_scene000004_render000000.png,stimuli/rgb_scene000004_render000005.png,1,111,321,4,"[1, 0]",left,1,234,25,m,y,y,2019_Apr_30_1505,2AFC_task,59.95351743796609,
stimuli/rgb_scene000096_render000000.png,stimuli/rgb_scene000096_render000001.png,1,112,322,105,"[1, 0]",left,1,234,25,m,y,y,2019_Apr_30_1505,2AFC_task,59.95351743796609,
stimuli/rgb_scene000012_render000001.png,stimuli/rgb_scene000012_render000005.png,1,113,323,51,"[0, 1]",left,0,234,25,m,y,y,2019_Apr_30_1505,2AFC_task,59.95351743796609,
stimuli/rgb_scene000012_render000002.png,stimuli/rgb_scene000012_render000006.png,1,114,324,56,"[1, 0]",right,0,234,25,m,y,y,2019_Apr_30_1505,2AFC_task,59.95351743796609,
stimuli/rgb_scene000102_render000000.png,stimuli/rgb_scene000102_render000005.png,1,115,325,130,"[0, 1]",right,1,234,25,m,y,y,2019_Apr_30_1505,2AFC_task,59.95351743796609,
stimuli/rgb_scene000004_render000004.png,stimuli/rgb_scene000004_render000005.png,1,116,326,18,"[0, 1]",left,0,234,25,m,y,y,2019_Apr_30_1505,2AFC_task,59.95351743796609,
stimuli/rgb_scene000012_render000000.png,stimuli/rgb_scene000012_render000001.png,1,117,327,42,"[0, 1]",right,1,234,25,m,y,y,2019_Apr_30_1505,2AFC_task,59.95351743796609,
stimuli/rgb_scene000005_render000005.png,stimuli/rgb_scene000005_render000006.png,1,118,328,41,"[0, 1]",left,0,234,25,m,y,y,2019_Apr_30_1505,2AFC_task,59.95351743796609,
stimuli/rgb_scene000004_render000005.png,stimuli/rgb_scene000004_render000006.png,1,119,329,20,"[0, 1]",left,0,234,25,m,y,y,2019_Apr_30_1505,2AFC_task,59.95351743796609,
stimuli/rgb_scene000004_render000001.png,stimuli/rgb_scene000004_render000005.png,1,120,330,9,"[0, 1]",right,1,234,25,m,y,y,2019_Apr_30_1505,2AFC_task,59.95351743796609,
stimuli/rgb_scene000146_render000002.png,stimuli/rgb_scene000146_render000006.png,1,121,331,182,"[1, 0]",right,0,234,25,m,y,y,2019_Apr_30_1505,2AFC_task,59.95351743796609,
stimuli/rgb_scene000146_render000001.png,stimuli/rgb_scene000146_render000002.png,1,122,332,174,"[1, 0]",right,0,234,25,m,y,y,2019_Apr_30_1505,2AFC_task,59.95351743796609,
stimuli/rgb_scene000102_render000001.png,stimuli/rgb_scene000102_render000002.png,1,123,333,132,"[1, 0]",left,1,234,25,m,y,y,2019_Apr_30_1505,2AFC_task,59.95351743796609,
stimuli/rgb_scene000095_render000003.png,stimuli/rgb_scene000095_render000005.png,1,124,334,100,"[1, 0]",left,1,234,25,m,y,y,2019_Apr_30_1505,2AFC_task,59.95351743796609,
stimuli/rgb_scene000102_render000003.png,stimuli/rgb_scene000102_render000005.png,1,125,335,142,"[0, 1]",left,0,234,25,m,y,y,2019_Apr_30_1505,2AFC_task,59.95351743796609,
stimuli/rgb_scene000113_render000000.png,stimuli/rgb_scene000113_render000001.png,1,126,336,147,"[1, 0]",right,0,234,25,m,y,y,2019_Apr_30_1505,2AFC_task,59.95351743796609,
stimuli/rgb_scene000095_render000001.png,stimuli/rgb_scene000095_render000002.png,1,127,337,90,"[0, 1]",right,1,234,25,m,y,y,2019_Apr_30_1505,2AFC_task,59.95351743796609,
stimuli/rgb_scene000004_render000000.png,stimuli/rgb_scene000004_render000004.png,1,128,338,3,"[0, 1]",right,1,234,25,m,y,y,2019_Apr_30_1505,2AFC_task,59.95351743796609,
stimuli/rgb_scene000012_render000003.png,stimuli/rgb_scene000012_render000004.png,1,129,339,57,"[0, 1]",left,0,234,25,m,y,y,2019_Apr_30_1505,2AFC_task,59.95351743796609,
stimuli/rgb_scene000195_render000004.png,stimuli/rgb_scene000195_render000005.png,1,130,340,207,"[0, 1]",left,0,234,25,m,y,y,2019_Apr_30_1505,2AFC_task,59.95351743796609,
stimuli/rgb_scene000195_render000001.png,stimuli/rgb_scene000195_render000004.png,1,131,341,197,"[0, 1]",left,0,234,25,m,y,y,2019_Apr_30_1505,2AFC_task,59.95351743796609,
stimuli/rgb_scene000195_render000001.png,stimuli/rgb_scene000195_render000003.png,1,132,342,196,"[0, 1]",right,1,234,25,m,y,y,2019_Apr_30_1505,2AFC_task,59.95351743796609,
stimuli/rgb_scene000113_render000000.png,stimuli/rgb_scene000113_render000002.png,1,133,343,148,"[1, 0]",left,1,234,25,m,y,y,2019_Apr_30_1505,2AFC_task,59.95351743796609,
stimuli/rgb_scene000146_render000000.png,stimuli/rgb_scene000146_render000002.png,1,134,344,169,"[0, 1]",right,1,234,25,m,y,y,2019_Apr_30_1505,2AFC_task,59.95351743796609,
stimuli/rgb_scene000146_render000000.png,stimuli/rgb_scene000146_render000001.png,1,135,345,168,"[1, 0]",right,0,234,25,m,y,y,2019_Apr_30_1505,2AFC_task,59.95351743796609,
stimuli/rgb_scene000012_render000002.png,stimuli/rgb_scene000012_render000005.png,1,136,346,55,"[1, 0]",right,0,234,25,m,y,y,2019_Apr_30_1505,2AFC_task,59.95351743796609,
stimuli/rgb_scene000195_render000001.png,stimuli/rgb_scene000195_render000006.png,1,137,347,199,"[0, 1]",left,0,234,25,m,y,y,2019_Apr_30_1505,2AFC_task,59.95351743796609,
stimuli/rgb_scene000090_render000004.png,stimuli/rgb_scene000090_render000006.png,1,138,348,82,"[0, 1]",left,0,234,25,m,y,y,2019_Apr_30_1505,2AFC_task,59.95351743796609,
stimuli/rgb_scene000146_render000004.png,stimuli/rgb_scene000146_render000006.png,1,139,349,187,"[1, 0]",right,0,234,25,m,y,y,2019_Apr_30_1505,2AFC_task,59.95351743796609,
stimuli/rgb_scene000090_render000005.png,stimuli/rgb_scene000090_render000006.png,1,140,350,83,"[0, 1]",left,0,234,25,m,y,y,2019_Apr_30_1505,2AFC_task,59.95351743796609,
stimuli/rgb_scene000012_render000004.png,stimuli/rgb_scene000012_render000006.png,1,141,351,61,"[0, 1]",left,0,234,25,m,y,y,2019_Apr_30_1505,2AFC_task,59.95351743796609,
stimuli/rgb_scene000090_render000003.png,stimuli/rgb_scene000090_render000006.png,1,142,352,80,"[0, 1]",left,0,234,25,m,y,y,2019_Apr_30_1505,2AFC_task,59.95351743796609,
stimuli/rgb_scene000095_render000004.png,stimuli/rgb_scene000095_render000006.png,1,143,353,103,"[1, 0]",right,0,234,25,m,y,y,2019_Apr_30_1505,2AFC_task,59.95351743796609,
stimuli/rgb_scene000005_render000001.png,stimuli/rgb_scene000005_render000006.png,1,144,354,31,"[0, 1]",left,0,234,25,m,y,y,2019_Apr_30_1505,2AFC_task,59.95351743796609,
stimuli/rgb_scene000113_render000004.png,stimuli/rgb_scene000113_render000005.png,1,145,355,165,"[1, 0]",right,0,234,25,m,y,y,2019_Apr_30_1505,2AFC_task,59.95351743796609,
stimuli/rgb_scene000012_render000003.png,stimuli/rgb_scene000012_render000005.png,1,146,356,58,"[0, 1]",right,1,234,25,m,y,y,2019_Apr_30_1505,2AFC_task,59.95351743796609,
stimuli/rgb_scene000096_render000001.png,stimuli/rgb_scene000096_render000003.png,1,147,357,112,"[0, 1]",right,1,234,25,m,y,y,2019_Apr_30_1505,2AFC_task,59.95351743796609,
stimuli/rgb_scene000113_render000001.png,stimuli/rgb_scene000113_render000004.png,1,148,358,155,"[0, 1]",right,1,234,25,m,y,y,2019_Apr_30_1505,2AFC_task,59.95351743796609,
stimuli/rgb_scene000195_render000000.png,stimuli/rgb_scene000195_render000005.png,1,149,359,193,"[1, 0]",right,0,234,25,m,y,y,2019_Apr_30_1505,2AFC_task,59.95351743796609,
stimuli/rgb_scene000090_render000000.png,stimuli/rgb_scene000090_render000003.png,1,150,360,65,"[0, 1]",left,0,234,25,m,y,y,2019_Apr_30_1505,2AFC_task,59.95351743796609,
stimuli/rgb_scene000004_render000002.png,stimuli/rgb_scene000004_render000003.png,1,151,361,11,"[1, 0]",left,1,234,25,m,y,y,2019_Apr_30_1505,2AFC_task,59.95351743796609,
stimuli/rgb_scene000005_render000004.png,stimuli/rgb_scene000005_render000006.png,1,152,362,40,"[0, 1]",left,0,234,25,m,y,y,2019_Apr_30_1505,2AFC_task,59.95351743796609,
stimuli/rgb_scene000005_render000004.png,stimuli/rgb_scene000005_render000005.png,1,153,363,39,"[1, 0]",right,0,234,25,m,y,y,2019_Apr_30_1505,2AFC_task,59.95351743796609,
stimuli/rgb_scene000195_render000003.png,stimuli/rgb_scene000195_render000005.png,1,154,364,205,"[1, 0]",right,0,234,25,m,y,y,2019_Apr_30_1505,2AFC_task,59.95351743796609,
stimuli/rgb_scene000012_render000001.png,stimuli/rgb_scene000012_render000003.png,1,155,365,49,"[1, 0]",left,1,234,25,m,y,y,2019_Apr_30_1505,2AFC_task,59.95351743796609,
stimuli/rgb_scene000005_render000002.png,stimuli/rgb_scene000005_render000005.png,1,156,366,34,"[1, 0]",right,0,234,25,m,y,y,2019_Apr_30_1505,2AFC_task,59.95351743796609,
stimuli/rgb_scene000195_render000001.png,stimuli/rgb_scene000195_render000005.png,1,157,367,198,"[0, 1]",left,0,234,25,m,y,y,2019_Apr_30_1505,2AFC_task,59.95351743796609,
stimuli/rgb_scene000195_render000002.png,stimuli/rgb_scene000195_render000003.png,1,158,368,200,"[0, 1]",left,0,234,25,m,y,y,2019_Apr_30_1505,2AFC_task,59.95351743796609,
stimuli/rgb_scene000096_render000001.png,stimuli/rgb_scene000096_render000006.png,1,159,369,115,"[0, 1]",right,1,234,25,m,y,y,2019_Apr_30_1505,2AFC_task,59.95351743796609,
stimuli/rgb_scene000090_render000003.png,stimuli/rgb_scene000090_render000004.png,1,160,370,78,"[1, 0]",right,0,234,25,m,y,y,2019_Apr_30_1505,2AFC_task,59.95351743796609,
stimuli/rgb_scene000096_render000000.png,stimuli/rgb_scene000096_render000004.png,1,161,371,108,"[1, 0]",left,1,234,25,m,y,y,2019_Apr_30_1505,2AFC_task,59.95351743796609,
stimuli/rgb_scene000005_render000001.png,stimuli/rgb_scene000005_render000002.png,1,162,372,27,"[0, 1]",right,1,234,25,m,y,y,2019_Apr_30_1505,2AFC_task,59.95351743796609,
stimuli/rgb_scene000095_render000002.png,stimuli/rgb_scene000095_render000006.png,1,163,373,98,"[0, 1]",right,1,234,25,m,y,y,2019_Apr_30_1505,2AFC_task,59.95351743796609,
stimuli/rgb_scene000095_render000002.png,stimuli/rgb_scene000095_render000005.png,1,164,374,97,"[1, 0]",left,1,234,25,m,y,y,2019_Apr_30_1505,2AFC_task,59.95351743796609,
stimuli/rgb_scene000096_render000002.png,stimuli/rgb_scene000096_render000003.png,1,165,375,116,"[0, 1]",right,1,234,25,m,y,y,2019_Apr_30_1505,2AFC_task,59.95351743796609,
stimuli/rgb_scene000102_render000001.png,stimuli/rgb_scene000102_render000004.png,1,166,376,134,"[1, 0]",left,1,234,25,m,y,y,2019_Apr_30_1505,2AFC_task,59.95351743796609,
stimuli/rgb_scene000095_render000000.png,stimuli/rgb_scene000095_render000005.png,1,167,377,88,"[1, 0]",right,0,234,25,m,y,y,2019_Apr_30_1505,2AFC_task,59.95351743796609,
stimuli/rgb_scene000195_render000002.png,stimuli/rgb_scene000195_render000006.png,1,168,378,203,"[1, 0]",right,0,234,25,m,y,y,2019_Apr_30_1505,2AFC_task,59.95351743796609,
stimuli/rgb_scene000012_render000001.png,stimuli/rgb_scene000012_render000002.png,1,169,379,48,"[1, 0]",left,1,234,25,m,y,y,2019_Apr_30_1505,2AFC_task,59.95351743796609,
stimuli/rgb_scene000005_render000000.png,stimuli/rgb_scene000005_render000003.png,1,170,380,23,"[1, 0]",left,1,234,25,m,y,y,2019_Apr_30_1505,2AFC_task,59.95351743796609,
stimuli/rgb_scene000090_render000002.png,stimuli/rgb_scene000090_render000005.png,1,171,381,76,"[1, 0]",right,0,234,25,m,y,y,2019_Apr_30_1505,2AFC_task,59.95351743796609,
stimuli/rgb_scene000146_render000004.png,stimuli/rgb_scene000146_render000005.png,1,172,382,186,"[1, 0]",right,0,234,25,m,y,y,2019_Apr_30_1505,2AFC_task,59.95351743796609,
stimuli/rgb_scene000012_render000000.png,stimuli/rgb_scene000012_render000006.png,1,173,383,47,"[1, 0]",right,0,234,25,m,y,y,2019_Apr_30_1505,2AFC_task,59.95351743796609,
stimuli/rgb_scene000102_render000002.png,stimuli/rgb_scene000102_render000005.png,1,174,384,139,"[0, 1]",left,0,234,25,m,y,y,2019_Apr_30_1505,2AFC_task,59.95351743796609,
stimuli/rgb_scene000113_render000002.png,stimuli/rgb_scene000113_render000006.png,1,175,385,161,"[0, 1]",right,1,234,25,m,y,y,2019_Apr_30_1505,2AFC_task,59.95351743796609,
stimuli/rgb_scene000096_render000000.png,stimuli/rgb_scene000096_render000002.png,1,176,386,106,"[1, 0]",left,1,234,25,m,y,y,2019_Apr_30_1505,2AFC_task,59.95351743796609,
stimuli/rgb_scene000113_render000003.png,stimuli/rgb_scene000113_render000004.png,1,177,387,162,"[1, 0]",right,0,234,25,m,y,y,2019_Apr_30_1505,2AFC_task,59.95351743796609,
stimuli/rgb_scene000012_render000001.png,stimuli/rgb_scene000012_render000004.png,1,178,388,50,"[1, 0]",left,1,234,25,m,y,y,2019_Apr_30_1505,2AFC_task,59.95351743796609,
stimuli/rgb_scene000005_render000001.png,stimuli/rgb_scene000005_render000003.png,1,179,389,28,"[0, 1]",right,1,234,25,m,y,y,2019_Apr_30_1505,2AFC_task,59.95351743796609,
stimuli/rgb_scene000096_render000002.png,stimuli/rgb_scene000096_render000004.png,1,180,390,117,"[0, 1]",right,1,234,25,m,y,y,2019_Apr_30_1505,2AFC_task,59.95351743796609,
stimuli/rgb_scene000004_render000000.png,stimuli/rgb_scene000004_render000006.png,1,181,391,5,"[1, 0]",left,1,234,25,m,y,y,2019_Apr_30_1505,2AFC_task,59.95351743796609,
stimuli/rgb_scene000195_render000001.png,stimuli/rgb_scene000195_render000002.png,1,182,392,195,"[0, 1]",right,1,234,25,m,y,y,2019_Apr_30_1505,2AFC_task,59.95351743796609,
stimuli/rgb_scene000012_render000001.png,stimuli/rgb_scene000012_render000006.png,1,183,393,52,"[0, 1]",left,0,234,25,m,y,y,2019_Apr_30_1505,2AFC_task,59.95351743796609,
stimuli/rgb_scene000095_render000002.png,stimuli/rgb_scene000095_render000004.png,1,184,394,96,"[0, 1]",right,1,234,25,m,y,y,2019_Apr_30_1505,2AFC_task,59.95351743796609,
stimuli/rgb_scene000096_render000000.png,stimuli/rgb_scene000096_render000003.png,1,185,395,107,"[0, 1]",right,1,234,25,m,y,y,2019_Apr_30_1505,2AFC_task,59.95351743796609,
stimuli/rgb_scene000090_render000000.png,stimuli/rgb_scene000090_render000005.png,1,186,396,67,"[0, 1]",left,0,234,25,m,y,y,2019_Apr_30_1505,2AFC_task,59.95351743796609,
stimuli/rgb_scene000090_render000001.png,stimuli/rgb_scene000090_render000006.png,1,187,397,73,"[1, 0]",right,0,234,25,m,y,y,2019_Apr_30_1505,2AFC_task,59.95351743796609,
stimuli/rgb_scene000102_render000003.png,stimuli/rgb_scene000102_render000006.png,1,188,398,143,"[1, 0]",right,0,234,25,m,y,y,2019_Apr_30_1505,2AFC_task,59.95351743796609,
stimuli/rgb_scene000195_render000000.png,stimuli/rgb_scene000195_render000006.png,1,189,399,194,"[0, 1]",left,0,234,25,m,y,y,2019_Apr_30_1505,2AFC_task,59.95351743796609,
stimuli/rgb_scene000004_render000001.png,stimuli/rgb_scene000004_render000006.png,1,190,400,10,"[1, 0]",left,1,234,25,m,y,y,2019_Apr_30_1505,2AFC_task,59.95351743796609,
stimuli/rgb_scene000095_render000001.png,stimuli/rgb_scene000095_render000004.png,1,191,401,92,"[0, 1]",left,0,234,25,m,y,y,2019_Apr_30_1505,2AFC_task,59.95351743796609,
stimuli/rgb_scene000102_render000000.png,stimuli/rgb_scene000102_render000002.png,1,192,402,127,"[1, 0]",left,1,234,25,m,y,y,2019_Apr_30_1505,2AFC_task,59.95351743796609,
stimuli/rgb_scene000095_render000000.png,stimuli/rgb_scene000095_render000006.png,1,193,403,89,"[1, 0]",right,0,234,25,m,y,y,2019_Apr_30_1505,2AFC_task,59.95351743796609,
stimuli/rgb_scene000096_render000001.png,stimuli/rgb_scene000096_render000004.png,1,194,404,113,"[0, 1]",right,1,234,25,m,y,y,2019_Apr_30_1505,2AFC_task,59.95351743796609,
stimuli/rgb_scene000146_render000000.png,stimuli/rgb_scene000146_render000005.png,1,195,405,172,"[1, 0]",left,1,234,25,m,y,y,2019_Apr_30_1505,2AFC_task,59.95351743796609,
stimuli/rgb_scene000005_render000001.png,stimuli/rgb_scene000005_render000004.png,1,196,406,29,"[1, 0]",right,0,234,25,m,y,y,2019_Apr_30_1505,2AFC_task,59.95351743796609,
stimuli/rgb_scene000004_render000002.png,stimuli/rgb_scene000004_render000005.png,1,197,407,13,"[0, 1]",right,1,234,25,m,y,y,2019_Apr_30_1505,2AFC_task,59.95351743796609,
stimuli/rgb_scene000113_render000003.png,stimuli/rgb_scene000113_render000005.png,1,198,408,163,"[0, 1]",left,0,234,25,m,y,y,2019_Apr_30_1505,2AFC_task,59.95351743796609,
stimuli/rgb_scene000005_render000000.png,stimuli/rgb_scene000005_render000002.png,1,199,409,22,"[0, 1]",left,0,234,25,m,y,y,2019_Apr_30_1505,2AFC_task,59.95351743796609,
stimuli/rgb_scene000005_render000001.png,stimuli/rgb_scene000005_render000005.png,1,200,410,30,"[1, 0]",right,0,234,25,m,y,y,2019_Apr_30_1505,2AFC_task,59.95351743796609,
stimuli/rgb_scene000113_render000001.png,stimuli/rgb_scene000113_render000003.png,1,201,411,154,"[1, 0]",left,1,234,25,m,y,y,2019_Apr_30_1505,2AFC_task,59.95351743796609,
stimuli/rgb_scene000012_render000005.png,stimuli/rgb_scene000012_render000006.png,1,202,412,62,"[1, 0]",right,0,234,25,m,y,y,2019_Apr_30_1505,2AFC_task,59.95351743796609,
stimuli/rgb_scene000005_render000000.png,stimuli/rgb_scene000005_render000006.png,1,203,413,26,"[1, 0]",right,0,234,25,m,y,y,2019_Apr_30_1505,2AFC_task,59.95351743796609,
stimuli/rgb_scene000113_render000002.png,stimuli/rgb_scene000113_render000003.png,1,204,414,158,"[0, 1]",right,1,234,25,m,y,y,2019_Apr_30_1505,2AFC_task,59.95351743796609,
stimuli/rgb_scene000012_render000000.png,stimuli/rgb_scene000012_render000004.png,1,205,415,45,"[0, 1]",right,1,234,25,m,y,y,2019_Apr_30_1505,2AFC_task,59.95351743796609,
stimuli/rgb_scene000090_render000001.png,stimuli/rgb_scene000090_render000005.png,1,206,416,72,"[0, 1]",left,0,234,25,m,y,y,2019_Apr_30_1505,2AFC_task,59.95351743796609,
stimuli/rgb_scene000146_render000001.png,stimuli/rgb_scene000146_render000004.png,1,207,417,176,"[1, 0]",right,0,234,25,m,y,y,2019_Apr_30_1505,2AFC_task,59.95351743796609,
stimuli/rgb_scene000012_render000002.png,stimuli/rgb_scene000012_render000004.png,1,208,418,54,"[0, 1]",right,1,234,25,m,y,y,2019_Apr_30_1505,2AFC_task,59.95351743796609,
stimuli/rgb_scene000096_render000001.png,stimuli/rgb_scene000096_render000005.png,1,209,419,114,"[1, 0]",left,1,234,25,m,y,y,2019_Apr_30_1505,2AFC_task,59.95351743796609,
