stimOne,stimTwo,trials_1.thisRepN,trials_1.thisTrialN,trials_1.thisN,trials_1.thisIndex,presentation_positions,resp_key,corresponding_image,participant ID (two digits, e.g. 01),age,gender (m/f/-),normal or corrected-to-normal vision (y/n),normal colour vision (y/n),date,expName,frameRate,
stimuli/rgb_scene000005_render000003.png,stimuli/rgb_scene000005_render000005.png,0,0,0,37,"[1, 0]",right,0,244,23,f,y,y,2019_Apr_30_1041,2AFC_task,59.99501069241021,
stimuli/rgb_scene000096_render000003.png,stimuli/rgb_scene000096_render000006.png,0,1,1,122,"[0, 1]",right,1,244,23,f,y,y,2019_Apr_30_1041,2AFC_task,59.99501069241021,
stimuli/rgb_scene000195_render000001.png,stimuli/rgb_scene000195_render000005.png,0,2,2,198,"[0, 1]",left,0,244,23,f,y,y,2019_Apr_30_1041,2AFC_task,59.99501069241021,
stimuli/rgb_scene000096_render000001.png,stimuli/rgb_scene000096_render000003.png,0,3,3,112,"[0, 1]",right,1,244,23,f,y,y,2019_Apr_30_1041,2AFC_task,59.99501069241021,
stimuli/rgb_scene000005_render000000.png,stimuli/rgb_scene000005_render000005.png,0,4,4,25,"[0, 1]",right,1,244,23,f,y,y,2019_Apr_30_1041,2AFC_task,59.99501069241021,
stimuli/rgb_scene000095_render000002.png,stimuli/rgb_scene000095_render000005.png,0,5,5,97,"[0, 1]",right,1,244,23,f,y,y,2019_Apr_30_1041,2AFC_task,59.99501069241021,
stimuli/rgb_scene000113_render000001.png,stimuli/rgb_scene000113_render000003.png,0,6,6,154,"[1, 0]",left,1,244,23,f,y,y,2019_Apr_30_1041,2AFC_task,59.99501069241021,
stimuli/rgb_scene000095_render000004.png,stimuli/rgb_scene000095_render000005.png,0,7,7,102,"[1, 0]",left,1,244,23,f,y,y,2019_Apr_30_1041,2AFC_task,59.99501069241021,
stimuli/rgb_scene000095_render000002.png,stimuli/rgb_scene000095_render000003.png,0,8,8,95,"[0, 1]",right,1,244,23,f,y,y,2019_Apr_30_1041,2AFC_task,59.99501069241021,
stimuli/rgb_scene000005_render000001.png,stimuli/rgb_scene000005_render000006.png,0,9,9,31,"[0, 1]",right,1,244,23,f,y,y,2019_Apr_30_1041,2AFC_task,59.99501069241021,
stimuli/rgb_scene000195_render000002.png,stimuli/rgb_scene000195_render000004.png,0,10,10,201,"[0, 1]",right,1,244,23,f,y,y,2019_Apr_30_1041,2AFC_task,59.99501069241021,
stimuli/rgb_scene000095_render000001.png,stimuli/rgb_scene000095_render000002.png,0,11,11,90,"[1, 0]",left,1,244,23,f,y,y,2019_Apr_30_1041,2AFC_task,59.99501069241021,
stimuli/rgb_scene000195_render000000.png,stimuli/rgb_scene000195_render000004.png,0,12,12,192,"[1, 0]",left,1,244,23,f,y,y,2019_Apr_30_1041,2AFC_task,59.99501069241021,
stimuli/rgb_scene000102_render000003.png,stimuli/rgb_scene000102_render000006.png,0,13,13,143,"[1, 0]",left,1,244,23,f,y,y,2019_Apr_30_1041,2AFC_task,59.99501069241021,
stimuli/rgb_scene000102_render000000.png,stimuli/rgb_scene000102_render000001.png,0,14,14,126,"[0, 1]",right,1,244,23,f,y,y,2019_Apr_30_1041,2AFC_task,59.99501069241021,
stimuli/rgb_scene000004_render000004.png,stimuli/rgb_scene000004_render000005.png,0,15,15,18,"[0, 1]",right,1,244,23,f,y,y,2019_Apr_30_1041,2AFC_task,59.99501069241021,
stimuli/rgb_scene000113_render000004.png,stimuli/rgb_scene000113_render000005.png,0,16,16,165,"[0, 1]",right,1,244,23,f,y,y,2019_Apr_30_1041,2AFC_task,59.99501069241021,
stimuli/rgb_scene000090_render000001.png,stimuli/rgb_scene000090_render000002.png,0,17,17,69,"[1, 0]",left,1,244,23,f,y,y,2019_Apr_30_1041,2AFC_task,59.99501069241021,
stimuli/rgb_scene000096_render000000.png,stimuli/rgb_scene000096_render000002.png,0,18,18,106,"[0, 1]",right,1,244,23,f,y,y,2019_Apr_30_1041,2AFC_task,59.99501069241021,
stimuli/rgb_scene000102_render000000.png,stimuli/rgb_scene000102_render000003.png,0,19,19,128,"[0, 1]",right,1,244,23,f,y,y,2019_Apr_30_1041,2AFC_task,59.99501069241021,
stimuli/rgb_scene000096_render000003.png,stimuli/rgb_scene000096_render000004.png,0,20,20,120,"[0, 1]",right,1,244,23,f,y,y,2019_Apr_30_1041,2AFC_task,59.99501069241021,
stimuli/rgb_scene000195_render000000.png,stimuli/rgb_scene000195_render000003.png,0,21,21,191,"[1, 0]",left,1,244,23,f,y,y,2019_Apr_30_1041,2AFC_task,59.99501069241021,
stimuli/rgb_scene000146_render000004.png,stimuli/rgb_scene000146_render000006.png,0,22,22,187,"[1, 0]",left,1,244,23,f,y,y,2019_Apr_30_1041,2AFC_task,59.99501069241021,
stimuli/rgb_scene000090_render000001.png,stimuli/rgb_scene000090_render000005.png,0,23,23,72,"[0, 1]",right,1,244,23,f,y,y,2019_Apr_30_1041,2AFC_task,59.99501069241021,
stimuli/rgb_scene000012_render000001.png,stimuli/rgb_scene000012_render000004.png,0,24,24,50,"[1, 0]",left,1,244,23,f,y,y,2019_Apr_30_1041,2AFC_task,59.99501069241021,
stimuli/rgb_scene000005_render000001.png,stimuli/rgb_scene000005_render000003.png,0,25,25,28,"[0, 1]",right,1,244,23,f,y,y,2019_Apr_30_1041,2AFC_task,59.99501069241021,
stimuli/rgb_scene000102_render000002.png,stimuli/rgb_scene000102_render000004.png,0,26,26,138,"[0, 1]",right,1,244,23,f,y,y,2019_Apr_30_1041,2AFC_task,59.99501069241021,
stimuli/rgb_scene000012_render000001.png,stimuli/rgb_scene000012_render000006.png,0,27,27,52,"[0, 1]",right,1,244,23,f,y,y,2019_Apr_30_1041,2AFC_task,59.99501069241021,
stimuli/rgb_scene000005_render000001.png,stimuli/rgb_scene000005_render000005.png,0,28,28,30,"[1, 0]",left,1,244,23,f,y,y,2019_Apr_30_1041,2AFC_task,59.99501069241021,
stimuli/rgb_scene000005_render000000.png,stimuli/rgb_scene000005_render000006.png,0,29,29,26,"[1, 0]",left,1,244,23,f,y,y,2019_Apr_30_1041,2AFC_task,59.99501069241021,
stimuli/rgb_scene000113_render000000.png,stimuli/rgb_scene000113_render000004.png,0,30,30,150,"[0, 1]",right,1,244,23,f,y,y,2019_Apr_30_1041,2AFC_task,59.99501069241021,
stimuli/rgb_scene000004_render000002.png,stimuli/rgb_scene000004_render000006.png,0,31,31,14,"[1, 0]",left,1,244,23,f,y,y,2019_Apr_30_1041,2AFC_task,59.99501069241021,
stimuli/rgb_scene000095_render000004.png,stimuli/rgb_scene000095_render000006.png,0,32,32,103,"[1, 0]",left,1,244,23,f,y,y,2019_Apr_30_1041,2AFC_task,59.99501069241021,
stimuli/rgb_scene000005_render000003.png,stimuli/rgb_scene000005_render000004.png,0,33,33,36,"[0, 1]",right,1,244,23,f,y,y,2019_Apr_30_1041,2AFC_task,59.99501069241021,
stimuli/rgb_scene000146_render000000.png,stimuli/rgb_scene000146_render000006.png,0,34,34,173,"[1, 0]",left,1,244,23,f,y,y,2019_Apr_30_1041,2AFC_task,59.99501069241021,
stimuli/rgb_scene000113_render000005.png,stimuli/rgb_scene000113_render000006.png,0,35,35,167,"[0, 1]",right,1,244,23,f,y,y,2019_Apr_30_1041,2AFC_task,59.99501069241021,
stimuli/rgb_scene000004_render000005.png,stimuli/rgb_scene000004_render000006.png,0,36,36,20,"[0, 1]",right,1,244,23,f,y,y,2019_Apr_30_1041,2AFC_task,59.99501069241021,
stimuli/rgb_scene000004_render000001.png,stimuli/rgb_scene000004_render000006.png,0,37,37,10,"[0, 1]",right,1,244,23,f,y,y,2019_Apr_30_1041,2AFC_task,59.99501069241021,
stimuli/rgb_scene000146_render000001.png,stimuli/rgb_scene000146_render000006.png,0,38,38,178,"[1, 0]",left,1,244,23,f,y,y,2019_Apr_30_1041,2AFC_task,59.99501069241021,
stimuli/rgb_scene000146_render000000.png,stimuli/rgb_scene000146_render000004.png,0,39,39,171,"[0, 1]",right,1,244,23,f,y,y,2019_Apr_30_1041,2AFC_task,59.99501069241021,
stimuli/rgb_scene000005_render000001.png,stimuli/rgb_scene000005_render000004.png,0,40,40,29,"[0, 1]",right,1,244,23,f,y,y,2019_Apr_30_1041,2AFC_task,59.99501069241021,
stimuli/rgb_scene000090_render000004.png,stimuli/rgb_scene000090_render000005.png,0,41,41,81,"[1, 0]",left,1,244,23,f,y,y,2019_Apr_30_1041,2AFC_task,59.99501069241021,
stimuli/rgb_scene000004_render000000.png,stimuli/rgb_scene000004_render000005.png,0,42,42,4,"[0, 1]",right,1,244,23,f,y,y,2019_Apr_30_1041,2AFC_task,59.99501069241021,
stimuli/rgb_scene000146_render000001.png,stimuli/rgb_scene000146_render000003.png,0,43,43,175,"[0, 1]",right,1,244,23,f,y,y,2019_Apr_30_1041,2AFC_task,59.99501069241021,
stimuli/rgb_scene000012_render000000.png,stimuli/rgb_scene000012_render000005.png,0,44,44,46,"[1, 0]",left,1,244,23,f,y,y,2019_Apr_30_1041,2AFC_task,59.99501069241021,
stimuli/rgb_scene000004_render000001.png,stimuli/rgb_scene000004_render000005.png,0,45,45,9,"[1, 0]",left,1,244,23,f,y,y,2019_Apr_30_1041,2AFC_task,59.99501069241021,
stimuli/rgb_scene000004_render000002.png,stimuli/rgb_scene000004_render000005.png,0,46,46,13,"[0, 1]",right,1,244,23,f,y,y,2019_Apr_30_1041,2AFC_task,59.99501069241021,
stimuli/rgb_scene000096_render000001.png,stimuli/rgb_scene000096_render000005.png,0,47,47,114,"[1, 0]",left,1,244,23,f,y,y,2019_Apr_30_1041,2AFC_task,59.99501069241021,
stimuli/rgb_scene000090_render000001.png,stimuli/rgb_scene000090_render000006.png,0,48,48,73,"[0, 1]",right,1,244,23,f,y,y,2019_Apr_30_1041,2AFC_task,59.99501069241021,
stimuli/rgb_scene000102_render000004.png,stimuli/rgb_scene000102_render000006.png,0,49,49,145,"[1, 0]",left,1,244,23,f,y,y,2019_Apr_30_1041,2AFC_task,59.99501069241021,
stimuli/rgb_scene000004_render000000.png,stimuli/rgb_scene000004_render000004.png,0,50,50,3,"[1, 0]",left,1,244,23,f,y,y,2019_Apr_30_1041,2AFC_task,59.99501069241021,
stimuli/rgb_scene000095_render000000.png,stimuli/rgb_scene000095_render000005.png,0,51,51,88,"[1, 0]",left,1,244,23,f,y,y,2019_Apr_30_1041,2AFC_task,59.99501069241021,
stimuli/rgb_scene000113_render000000.png,stimuli/rgb_scene000113_render000001.png,0,52,52,147,"[1, 0]",left,1,244,23,f,y,y,2019_Apr_30_1041,2AFC_task,59.99501069241021,
stimuli/rgb_scene000095_render000003.png,stimuli/rgb_scene000095_render000005.png,0,53,53,100,"[1, 0]",left,1,244,23,f,y,y,2019_Apr_30_1041,2AFC_task,59.99501069241021,
stimuli/rgb_scene000005_render000002.png,stimuli/rgb_scene000005_render000005.png,0,54,54,34,"[1, 0]",right,0,244,23,f,y,y,2019_Apr_30_1041,2AFC_task,59.99501069241021,
stimuli/rgb_scene000090_render000000.png,stimuli/rgb_scene000090_render000003.png,0,55,55,65,"[0, 1]",right,1,244,23,f,y,y,2019_Apr_30_1041,2AFC_task,59.99501069241021,
stimuli/rgb_scene000005_render000000.png,stimuli/rgb_scene000005_render000002.png,0,56,56,22,"[1, 0]",left,1,244,23,f,y,y,2019_Apr_30_1041,2AFC_task,59.99501069241021,
stimuli/rgb_scene000146_render000002.png,stimuli/rgb_scene000146_render000004.png,0,57,57,180,"[0, 1]",right,1,244,23,f,y,y,2019_Apr_30_1041,2AFC_task,59.99501069241021,
stimuli/rgb_scene000095_render000002.png,stimuli/rgb_scene000095_render000006.png,0,58,58,98,"[0, 1]",right,1,244,23,f,y,y,2019_Apr_30_1041,2AFC_task,59.99501069241021,
stimuli/rgb_scene000102_render000005.png,stimuli/rgb_scene000102_render000006.png,0,59,59,146,"[0, 1]",left,0,244,23,f,y,y,2019_Apr_30_1041,2AFC_task,59.99501069241021,
stimuli/rgb_scene000095_render000000.png,stimuli/rgb_scene000095_render000002.png,0,60,60,85,"[0, 1]",right,1,244,23,f,y,y,2019_Apr_30_1041,2AFC_task,59.99501069241021,
stimuli/rgb_scene000096_render000002.png,stimuli/rgb_scene000096_render000004.png,0,61,61,117,"[1, 0]",left,1,244,23,f,y,y,2019_Apr_30_1041,2AFC_task,59.99501069241021,
stimuli/rgb_scene000012_render000001.png,stimuli/rgb_scene000012_render000002.png,0,62,62,48,"[0, 1]",right,1,244,23,f,y,y,2019_Apr_30_1041,2AFC_task,59.99501069241021,
stimuli/rgb_scene000012_render000002.png,stimuli/rgb_scene000012_render000003.png,0,63,63,53,"[1, 0]",left,1,244,23,f,y,y,2019_Apr_30_1041,2AFC_task,59.99501069241021,
stimuli/rgb_scene000195_render000004.png,stimuli/rgb_scene000195_render000006.png,0,64,64,208,"[1, 0]",left,1,244,23,f,y,y,2019_Apr_30_1041,2AFC_task,59.99501069241021,
stimuli/rgb_scene000096_render000002.png,stimuli/rgb_scene000096_render000003.png,0,65,65,116,"[1, 0]",left,1,244,23,f,y,y,2019_Apr_30_1041,2AFC_task,59.99501069241021,
stimuli/rgb_scene000113_render000001.png,stimuli/rgb_scene000113_render000006.png,0,66,66,157,"[1, 0]",left,1,244,23,f,y,y,2019_Apr_30_1041,2AFC_task,59.99501069241021,
stimuli/rgb_scene000096_render000000.png,stimuli/rgb_scene000096_render000001.png,0,67,67,105,"[1, 0]",left,1,244,23,f,y,y,2019_Apr_30_1041,2AFC_task,59.99501069241021,
stimuli/rgb_scene000012_render000004.png,stimuli/rgb_scene000012_render000005.png,0,68,68,60,"[1, 0]",left,1,244,23,f,y,y,2019_Apr_30_1041,2AFC_task,59.99501069241021,
stimuli/rgb_scene000012_render000002.png,stimuli/rgb_scene000012_render000006.png,0,69,69,56,"[0, 1]",right,1,244,23,f,y,y,2019_Apr_30_1041,2AFC_task,59.99501069241021,
stimuli/rgb_scene000005_render000002.png,stimuli/rgb_scene000005_render000006.png,0,70,70,35,"[1, 0]",left,1,244,23,f,y,y,2019_Apr_30_1041,2AFC_task,59.99501069241021,
stimuli/rgb_scene000090_render000000.png,stimuli/rgb_scene000090_render000006.png,0,71,71,68,"[0, 1]",left,0,244,23,f,y,y,2019_Apr_30_1041,2AFC_task,59.99501069241021,
stimuli/rgb_scene000113_render000001.png,stimuli/rgb_scene000113_render000002.png,0,72,72,153,"[1, 0]",left,1,244,23,f,y,y,2019_Apr_30_1041,2AFC_task,59.99501069241021,
stimuli/rgb_scene000102_render000000.png,stimuli/rgb_scene000102_render000006.png,0,73,73,131,"[1, 0]",left,1,244,23,f,y,y,2019_Apr_30_1041,2AFC_task,59.99501069241021,
stimuli/rgb_scene000096_render000000.png,stimuli/rgb_scene000096_render000003.png,0,74,74,107,"[1, 0]",left,1,244,23,f,y,y,2019_Apr_30_1041,2AFC_task,59.99501069241021,
stimuli/rgb_scene000113_render000000.png,stimuli/rgb_scene000113_render000002.png,0,75,75,148,"[1, 0]",left,1,244,23,f,y,y,2019_Apr_30_1041,2AFC_task,59.99501069241021,
stimuli/rgb_scene000005_render000001.png,stimuli/rgb_scene000005_render000002.png,0,76,76,27,"[0, 1]",right,1,244,23,f,y,y,2019_Apr_30_1041,2AFC_task,59.99501069241021,
stimuli/rgb_scene000113_render000003.png,stimuli/rgb_scene000113_render000006.png,0,77,77,164,"[1, 0]",left,1,244,23,f,y,y,2019_Apr_30_1041,2AFC_task,59.99501069241021,
stimuli/rgb_scene000004_render000004.png,stimuli/rgb_scene000004_render000006.png,0,78,78,19,"[1, 0]",right,0,244,23,f,y,y,2019_Apr_30_1041,2AFC_task,59.99501069241021,
stimuli/rgb_scene000102_render000003.png,stimuli/rgb_scene000102_render000005.png,0,79,79,142,"[1, 0]",left,1,244,23,f,y,y,2019_Apr_30_1041,2AFC_task,59.99501069241021,
stimuli/rgb_scene000195_render000001.png,stimuli/rgb_scene000195_render000004.png,0,80,80,197,"[0, 1]",right,1,244,23,f,y,y,2019_Apr_30_1041,2AFC_task,59.99501069241021,
stimuli/rgb_scene000005_render000003.png,stimuli/rgb_scene000005_render000006.png,0,81,81,38,"[1, 0]",left,1,244,23,f,y,y,2019_Apr_30_1041,2AFC_task,59.99501069241021,
stimuli/rgb_scene000095_render000005.png,stimuli/rgb_scene000095_render000006.png,0,82,82,104,"[1, 0]",left,1,244,23,f,y,y,2019_Apr_30_1041,2AFC_task,59.99501069241021,
stimuli/rgb_scene000005_render000002.png,stimuli/rgb_scene000005_render000003.png,0,83,83,32,"[1, 0]",right,0,244,23,f,y,y,2019_Apr_30_1041,2AFC_task,59.99501069241021,
stimuli/rgb_scene000195_render000005.png,stimuli/rgb_scene000195_render000006.png,0,84,84,209,"[1, 0]",right,0,244,23,f,y,y,2019_Apr_30_1041,2AFC_task,59.99501069241021,
stimuli/rgb_scene000095_render000001.png,stimuli/rgb_scene000095_render000005.png,0,85,85,93,"[0, 1]",right,1,244,23,f,y,y,2019_Apr_30_1041,2AFC_task,59.99501069241021,
stimuli/rgb_scene000195_render000002.png,stimuli/rgb_scene000195_render000005.png,0,86,86,202,"[0, 1]",right,1,244,23,f,y,y,2019_Apr_30_1041,2AFC_task,59.99501069241021,
stimuli/rgb_scene000146_render000004.png,stimuli/rgb_scene000146_render000005.png,0,87,87,186,"[0, 1]",right,1,244,23,f,y,y,2019_Apr_30_1041,2AFC_task,59.99501069241021,
stimuli/rgb_scene000090_render000002.png,stimuli/rgb_scene000090_render000006.png,0,88,88,77,"[0, 1]",right,1,244,23,f,y,y,2019_Apr_30_1041,2AFC_task,59.99501069241021,
stimuli/rgb_scene000090_render000002.png,stimuli/rgb_scene000090_render000005.png,0,89,89,76,"[1, 0]",left,1,244,23,f,y,y,2019_Apr_30_1041,2AFC_task,59.99501069241021,
stimuli/rgb_scene000195_render000003.png,stimuli/rgb_scene000195_render000006.png,0,90,90,206,"[1, 0]",left,1,244,23,f,y,y,2019_Apr_30_1041,2AFC_task,59.99501069241021,
stimuli/rgb_scene000146_render000001.png,stimuli/rgb_scene000146_render000005.png,0,91,91,177,"[0, 1]",right,1,244,23,f,y,y,2019_Apr_30_1041,2AFC_task,59.99501069241021,
stimuli/rgb_scene000005_render000004.png,stimuli/rgb_scene000005_render000005.png,0,92,92,39,"[0, 1]",left,0,244,23,f,y,y,2019_Apr_30_1041,2AFC_task,59.99501069241021,
stimuli/rgb_scene000102_render000004.png,stimuli/rgb_scene000102_render000005.png,0,93,93,144,"[0, 1]",right,1,244,23,f,y,y,2019_Apr_30_1041,2AFC_task,59.99501069241021,
stimuli/rgb_scene000113_render000002.png,stimuli/rgb_scene000113_render000006.png,0,94,94,161,"[1, 0]",left,1,244,23,f,y,y,2019_Apr_30_1041,2AFC_task,59.99501069241021,
stimuli/rgb_scene000096_render000004.png,stimuli/rgb_scene000096_render000005.png,0,95,95,123,"[0, 1]",right,1,244,23,f,y,y,2019_Apr_30_1041,2AFC_task,59.99501069241021,
stimuli/rgb_scene000012_render000003.png,stimuli/rgb_scene000012_render000004.png,0,96,96,57,"[1, 0]",left,1,244,23,f,y,y,2019_Apr_30_1041,2AFC_task,59.99501069241021,
stimuli/rgb_scene000113_render000000.png,stimuli/rgb_scene000113_render000005.png,0,97,97,151,"[0, 1]",right,1,244,23,f,y,y,2019_Apr_30_1041,2AFC_task,59.99501069241021,
stimuli/rgb_scene000090_render000002.png,stimuli/rgb_scene000090_render000003.png,0,98,98,74,"[1, 0]",right,0,244,23,f,y,y,2019_Apr_30_1041,2AFC_task,59.99501069241021,
stimuli/rgb_scene000012_render000000.png,stimuli/rgb_scene000012_render000006.png,0,99,99,47,"[0, 1]",right,1,244,23,f,y,y,2019_Apr_30_1041,2AFC_task,59.99501069241021,
stimuli/rgb_scene000102_render000003.png,stimuli/rgb_scene000102_render000004.png,0,100,100,141,"[0, 1]",right,1,244,23,f,y,y,2019_Apr_30_1041,2AFC_task,59.99501069241021,
stimuli/rgb_scene000146_render000005.png,stimuli/rgb_scene000146_render000006.png,0,101,101,188,"[0, 1]",right,1,244,23,f,y,y,2019_Apr_30_1041,2AFC_task,59.99501069241021,
stimuli/rgb_scene000146_render000003.png,stimuli/rgb_scene000146_render000006.png,0,102,102,185,"[1, 0]",left,1,244,23,f,y,y,2019_Apr_30_1041,2AFC_task,59.99501069241021,
stimuli/rgb_scene000113_render000002.png,stimuli/rgb_scene000113_render000003.png,0,103,103,158,"[0, 1]",right,1,244,23,f,y,y,2019_Apr_30_1041,2AFC_task,59.99501069241021,
stimuli/rgb_scene000102_render000002.png,stimuli/rgb_scene000102_render000005.png,0,104,104,139,"[0, 1]",right,1,244,23,f,y,y,2019_Apr_30_1041,2AFC_task,59.99501069241021,
stimuli/rgb_scene000004_render000000.png,stimuli/rgb_scene000004_render000006.png,0,105,105,5,"[0, 1]",right,1,244,23,f,y,y,2019_Apr_30_1041,2AFC_task,59.99501069241021,
stimuli/rgb_scene000146_render000003.png,stimuli/rgb_scene000146_render000005.png,0,106,106,184,"[0, 1]",right,1,244,23,f,y,y,2019_Apr_30_1041,2AFC_task,59.99501069241021,
stimuli/rgb_scene000095_render000001.png,stimuli/rgb_scene000095_render000006.png,0,107,107,94,"[0, 1]",right,1,244,23,f,y,y,2019_Apr_30_1041,2AFC_task,59.99501069241021,
stimuli/rgb_scene000012_render000003.png,stimuli/rgb_scene000012_render000005.png,0,108,108,58,"[1, 0]",left,1,244,23,f,y,y,2019_Apr_30_1041,2AFC_task,59.99501069241021,
stimuli/rgb_scene000090_render000000.png,stimuli/rgb_scene000090_render000005.png,0,109,109,67,"[0, 1]",right,1,244,23,f,y,y,2019_Apr_30_1041,2AFC_task,59.99501069241021,
stimuli/rgb_scene000113_render000002.png,stimuli/rgb_scene000113_render000004.png,0,110,110,159,"[1, 0]",left,1,244,23,f,y,y,2019_Apr_30_1041,2AFC_task,59.99501069241021,
stimuli/rgb_scene000004_render000000.png,stimuli/rgb_scene000004_render000002.png,0,111,111,1,"[1, 0]",left,1,244,23,f,y,y,2019_Apr_30_1041,2AFC_task,59.99501069241021,
stimuli/rgb_scene000113_render000001.png,stimuli/rgb_scene000113_render000005.png,0,112,112,156,"[0, 1]",right,1,244,23,f,y,y,2019_Apr_30_1041,2AFC_task,59.99501069241021,
stimuli/rgb_scene000090_render000003.png,stimuli/rgb_scene000090_render000006.png,0,113,113,80,"[1, 0]",left,1,244,23,f,y,y,2019_Apr_30_1041,2AFC_task,59.99501069241021,
stimuli/rgb_scene000146_render000002.png,stimuli/rgb_scene000146_render000006.png,0,114,114,182,"[1, 0]",left,1,244,23,f,y,y,2019_Apr_30_1041,2AFC_task,59.99501069241021,
stimuli/rgb_scene000146_render000000.png,stimuli/rgb_scene000146_render000001.png,0,115,115,168,"[1, 0]",left,1,244,23,f,y,y,2019_Apr_30_1041,2AFC_task,59.99501069241021,
stimuli/rgb_scene000012_render000004.png,stimuli/rgb_scene000012_render000006.png,0,116,116,61,"[0, 1]",left,0,244,23,f,y,y,2019_Apr_30_1041,2AFC_task,59.99501069241021,
stimuli/rgb_scene000090_render000002.png,stimuli/rgb_scene000090_render000004.png,0,117,117,75,"[1, 0]",right,0,244,23,f,y,y,2019_Apr_30_1041,2AFC_task,59.99501069241021,
stimuli/rgb_scene000146_render000002.png,stimuli/rgb_scene000146_render000005.png,0,118,118,181,"[1, 0]",left,1,244,23,f,y,y,2019_Apr_30_1041,2AFC_task,59.99501069241021,
stimuli/rgb_scene000005_render000000.png,stimuli/rgb_scene000005_render000003.png,0,119,119,23,"[1, 0]",left,1,244,23,f,y,y,2019_Apr_30_1041,2AFC_task,59.99501069241021,
stimuli/rgb_scene000102_render000000.png,stimuli/rgb_scene000102_render000005.png,0,120,120,130,"[0, 1]",right,1,244,23,f,y,y,2019_Apr_30_1041,2AFC_task,59.99501069241021,
stimuli/rgb_scene000090_render000001.png,stimuli/rgb_scene000090_render000004.png,0,121,121,71,"[1, 0]",left,1,244,23,f,y,y,2019_Apr_30_1041,2AFC_task,59.99501069241021,
stimuli/rgb_scene000096_render000002.png,stimuli/rgb_scene000096_render000005.png,0,122,122,118,"[1, 0]",left,1,244,23,f,y,y,2019_Apr_30_1041,2AFC_task,59.99501069241021,
stimuli/rgb_scene000005_render000005.png,stimuli/rgb_scene000005_render000006.png,0,123,123,41,"[0, 1]",right,1,244,23,f,y,y,2019_Apr_30_1041,2AFC_task,59.99501069241021,
stimuli/rgb_scene000090_render000003.png,stimuli/rgb_scene000090_render000004.png,0,124,124,78,"[1, 0]",left,1,244,23,f,y,y,2019_Apr_30_1041,2AFC_task,59.99501069241021,
stimuli/rgb_scene000113_render000000.png,stimuli/rgb_scene000113_render000003.png,0,125,125,149,"[1, 0]",left,1,244,23,f,y,y,2019_Apr_30_1041,2AFC_task,59.99501069241021,
stimuli/rgb_scene000096_render000001.png,stimuli/rgb_scene000096_render000002.png,0,126,126,111,"[1, 0]",right,0,244,23,f,y,y,2019_Apr_30_1041,2AFC_task,59.99501069241021,
stimuli/rgb_scene000004_render000001.png,stimuli/rgb_scene000004_render000003.png,0,127,127,7,"[0, 1]",left,0,244,23,f,y,y,2019_Apr_30_1041,2AFC_task,59.99501069241021,
stimuli/rgb_scene000012_render000000.png,stimuli/rgb_scene000012_render000003.png,0,128,128,44,"[0, 1]",right,1,244,23,f,y,y,2019_Apr_30_1041,2AFC_task,59.99501069241021,
stimuli/rgb_scene000090_render000000.png,stimuli/rgb_scene000090_render000002.png,0,129,129,64,"[1, 0]",left,1,244,23,f,y,y,2019_Apr_30_1041,2AFC_task,59.99501069241021,
stimuli/rgb_scene000095_render000002.png,stimuli/rgb_scene000095_render000004.png,0,130,130,96,"[1, 0]",left,1,244,23,f,y,y,2019_Apr_30_1041,2AFC_task,59.99501069241021,
stimuli/rgb_scene000012_render000003.png,stimuli/rgb_scene000012_render000006.png,0,131,131,59,"[1, 0]",right,0,244,23,f,y,y,2019_Apr_30_1041,2AFC_task,59.99501069241021,
stimuli/rgb_scene000096_render000000.png,stimuli/rgb_scene000096_render000006.png,0,132,132,110,"[1, 0]",left,1,244,23,f,y,y,2019_Apr_30_1041,2AFC_task,59.99501069241021,
stimuli/rgb_scene000096_render000000.png,stimuli/rgb_scene000096_render000005.png,0,133,133,109,"[1, 0]",left,1,244,23,f,y,y,2019_Apr_30_1041,2AFC_task,59.99501069241021,
stimuli/rgb_scene000096_render000004.png,stimuli/rgb_scene000096_render000006.png,0,134,134,124,"[1, 0]",left,1,244,23,f,y,y,2019_Apr_30_1041,2AFC_task,59.99501069241021,
stimuli/rgb_scene000095_render000000.png,stimuli/rgb_scene000095_render000001.png,0,135,135,84,"[1, 0]",left,1,244,23,f,y,y,2019_Apr_30_1041,2AFC_task,59.99501069241021,
stimuli/rgb_scene000096_render000002.png,stimuli/rgb_scene000096_render000006.png,0,136,136,119,"[0, 1]",right,1,244,23,f,y,y,2019_Apr_30_1041,2AFC_task,59.99501069241021,
stimuli/rgb_scene000096_render000003.png,stimuli/rgb_scene000096_render000005.png,0,137,137,121,"[0, 1]",right,1,244,23,f,y,y,2019_Apr_30_1041,2AFC_task,59.99501069241021,
stimuli/rgb_scene000005_render000002.png,stimuli/rgb_scene000005_render000004.png,0,138,138,33,"[1, 0]",left,1,244,23,f,y,y,2019_Apr_30_1041,2AFC_task,59.99501069241021,
stimuli/rgb_scene000095_render000003.png,stimuli/rgb_scene000095_render000006.png,0,139,139,101,"[0, 1]",right,1,244,23,f,y,y,2019_Apr_30_1041,2AFC_task,59.99501069241021,
stimuli/rgb_scene000113_render000003.png,stimuli/rgb_scene000113_render000005.png,0,140,140,163,"[0, 1]",right,1,244,23,f,y,y,2019_Apr_30_1041,2AFC_task,59.99501069241021,
stimuli/rgb_scene000195_render000000.png,stimuli/rgb_scene000195_render000006.png,0,141,141,194,"[0, 1]",right,1,244,23,f,y,y,2019_Apr_30_1041,2AFC_task,59.99501069241021,
stimuli/rgb_scene000195_render000000.png,stimuli/rgb_scene000195_render000002.png,0,142,142,190,"[1, 0]",left,1,244,23,f,y,y,2019_Apr_30_1041,2AFC_task,59.99501069241021,
stimuli/rgb_scene000004_render000000.png,stimuli/rgb_scene000004_render000003.png,0,143,143,2,"[0, 1]",right,1,244,23,f,y,y,2019_Apr_30_1041,2AFC_task,59.99501069241021,
stimuli/rgb_scene000146_render000003.png,stimuli/rgb_scene000146_render000004.png,0,144,144,183,"[1, 0]",left,1,244,23,f,y,y,2019_Apr_30_1041,2AFC_task,59.99501069241021,
stimuli/rgb_scene000012_render000002.png,stimuli/rgb_scene000012_render000004.png,0,145,145,54,"[1, 0]",left,1,244,23,f,y,y,2019_Apr_30_1041,2AFC_task,59.99501069241021,
stimuli/rgb_scene000090_render000001.png,stimuli/rgb_scene000090_render000003.png,0,146,146,70,"[1, 0]",left,1,244,23,f,y,y,2019_Apr_30_1041,2AFC_task,59.99501069241021,
stimuli/rgb_scene000096_render000001.png,stimuli/rgb_scene000096_render000006.png,0,147,147,115,"[1, 0]",left,1,244,23,f,y,y,2019_Apr_30_1041,2AFC_task,59.99501069241021,
stimuli/rgb_scene000090_render000000.png,stimuli/rgb_scene000090_render000004.png,0,148,148,66,"[0, 1]",right,1,244,23,f,y,y,2019_Apr_30_1041,2AFC_task,59.99501069241021,
stimuli/rgb_scene000102_render000000.png,stimuli/rgb_scene000102_render000002.png,0,149,149,127,"[1, 0]",left,1,244,23,f,y,y,2019_Apr_30_1041,2AFC_task,59.99501069241021,
stimuli/rgb_scene000113_render000002.png,stimuli/rgb_scene000113_render000005.png,0,150,150,160,"[1, 0]",left,1,244,23,f,y,y,2019_Apr_30_1041,2AFC_task,59.99501069241021,
stimuli/rgb_scene000090_render000003.png,stimuli/rgb_scene000090_render000005.png,0,151,151,79,"[0, 1]",right,1,244,23,f,y,y,2019_Apr_30_1041,2AFC_task,59.99501069241021,
stimuli/rgb_scene000004_render000000.png,stimuli/rgb_scene000004_render000001.png,0,152,152,0,"[1, 0]",left,1,244,23,f,y,y,2019_Apr_30_1041,2AFC_task,59.99501069241021,
stimuli/rgb_scene000113_render000000.png,stimuli/rgb_scene000113_render000006.png,0,153,153,152,"[0, 1]",right,1,244,23,f,y,y,2019_Apr_30_1041,2AFC_task,59.99501069241021,
stimuli/rgb_scene000195_render000002.png,stimuli/rgb_scene000195_render000006.png,0,154,154,203,"[0, 1]",right,1,244,23,f,y,y,2019_Apr_30_1041,2AFC_task,59.99501069241021,
stimuli/rgb_scene000096_render000000.png,stimuli/rgb_scene000096_render000004.png,0,155,155,108,"[1, 0]",left,1,244,23,f,y,y,2019_Apr_30_1041,2AFC_task,59.99501069241021,
stimuli/rgb_scene000012_render000000.png,stimuli/rgb_scene000012_render000002.png,0,156,156,43,"[1, 0]",left,1,244,23,f,y,y,2019_Apr_30_1041,2AFC_task,59.99501069241021,
stimuli/rgb_scene000095_render000003.png,stimuli/rgb_scene000095_render000004.png,0,157,157,99,"[1, 0]",left,1,244,23,f,y,y,2019_Apr_30_1041,2AFC_task,59.99501069241021,
stimuli/rgb_scene000090_render000000.png,stimuli/rgb_scene000090_render000001.png,0,158,158,63,"[1, 0]",left,1,244,23,f,y,y,2019_Apr_30_1041,2AFC_task,59.99501069241021,
stimuli/rgb_scene000195_render000000.png,stimuli/rgb_scene000195_render000001.png,0,159,159,189,"[0, 1]",right,1,244,23,f,y,y,2019_Apr_30_1041,2AFC_task,59.99501069241021,
stimuli/rgb_scene000102_render000001.png,stimuli/rgb_scene000102_render000003.png,0,160,160,133,"[1, 0]",left,1,244,23,f,y,y,2019_Apr_30_1041,2AFC_task,59.99501069241021,
stimuli/rgb_scene000146_render000001.png,stimuli/rgb_scene000146_render000002.png,0,161,161,174,"[1, 0]",left,1,244,23,f,y,y,2019_Apr_30_1041,2AFC_task,59.99501069241021,
stimuli/rgb_scene000012_render000001.png,stimuli/rgb_scene000012_render000003.png,0,162,162,49,"[1, 0]",left,1,244,23,f,y,y,2019_Apr_30_1041,2AFC_task,59.99501069241021,
stimuli/rgb_scene000090_render000005.png,stimuli/rgb_scene000090_render000006.png,0,163,163,83,"[0, 1]",right,1,244,23,f,y,y,2019_Apr_30_1041,2AFC_task,59.99501069241021,
stimuli/rgb_scene000102_render000000.png,stimuli/rgb_scene000102_render000004.png,0,164,164,129,"[1, 0]",left,1,244,23,f,y,y,2019_Apr_30_1041,2AFC_task,59.99501069241021,
stimuli/rgb_scene000195_render000004.png,stimuli/rgb_scene000195_render000005.png,0,165,165,207,"[0, 1]",right,1,244,23,f,y,y,2019_Apr_30_1041,2AFC_task,59.99501069241021,
stimuli/rgb_scene000004_render000001.png,stimuli/rgb_scene000004_render000002.png,0,166,166,6,"[0, 1]",right,1,244,23,f,y,y,2019_Apr_30_1041,2AFC_task,59.99501069241021,
stimuli/rgb_scene000005_render000004.png,stimuli/rgb_scene000005_render000006.png,0,167,167,40,"[0, 1]",left,0,244,23,f,y,y,2019_Apr_30_1041,2AFC_task,59.99501069241021,
stimuli/rgb_scene000102_render000001.png,stimuli/rgb_scene000102_render000006.png,0,168,168,136,"[1, 0]",left,1,244,23,f,y,y,2019_Apr_30_1041,2AFC_task,59.99501069241021,
stimuli/rgb_scene000113_render000001.png,stimuli/rgb_scene000113_render000004.png,0,169,169,155,"[0, 1]",right,1,244,23,f,y,y,2019_Apr_30_1041,2AFC_task,59.99501069241021,
stimuli/rgb_scene000146_render000000.png,stimuli/rgb_scene000146_render000003.png,0,170,170,170,"[1, 0]",left,1,244,23,f,y,y,2019_Apr_30_1041,2AFC_task,59.99501069241021,
stimuli/rgb_scene000012_render000001.png,stimuli/rgb_scene000012_render000005.png,0,171,171,51,"[0, 1]",right,1,244,23,f,y,y,2019_Apr_30_1041,2AFC_task,59.99501069241021,
stimuli/rgb_scene000096_render000005.png,stimuli/rgb_scene000096_render000006.png,0,172,172,125,"[0, 1]",right,1,244,23,f,y,y,2019_Apr_30_1041,2AFC_task,59.99501069241021,
stimuli/rgb_scene000095_render000001.png,stimuli/rgb_scene000095_render000004.png,0,173,173,92,"[0, 1]",right,1,244,23,f,y,y,2019_Apr_30_1041,2AFC_task,59.99501069241021,
stimuli/rgb_scene000005_render000000.png,stimuli/rgb_scene000005_render000001.png,0,174,174,21,"[0, 1]",right,1,244,23,f,y,y,2019_Apr_30_1041,2AFC_task,59.99501069241021,
stimuli/rgb_scene000195_render000001.png,stimuli/rgb_scene000195_render000002.png,0,175,175,195,"[1, 0]",right,0,244,23,f,y,y,2019_Apr_30_1041,2AFC_task,59.99501069241021,
stimuli/rgb_scene000195_render000003.png,stimuli/rgb_scene000195_render000005.png,0,176,176,205,"[1, 0]",left,1,244,23,f,y,y,2019_Apr_30_1041,2AFC_task,59.99501069241021,
stimuli/rgb_scene000012_render000002.png,stimuli/rgb_scene000012_render000005.png,0,177,177,55,"[1, 0]",left,1,244,23,f,y,y,2019_Apr_30_1041,2AFC_task,59.99501069241021,
stimuli/rgb_scene000090_render000004.png,stimuli/rgb_scene000090_render000006.png,0,178,178,82,"[1, 0]",right,0,244,23,f,y,y,2019_Apr_30_1041,2AFC_task,59.99501069241021,
stimuli/rgb_scene000113_render000003.png,stimuli/rgb_scene000113_render000004.png,0,179,179,162,"[0, 1]",right,1,244,23,f,y,y,2019_Apr_30_1041,2AFC_task,59.99501069241021,
stimuli/rgb_scene000004_render000003.png,stimuli/rgb_scene000004_render000005.png,0,180,180,16,"[0, 1]",right,1,244,23,f,y,y,2019_Apr_30_1041,2AFC_task,59.99501069241021,
stimuli/rgb_scene000146_render000000.png,stimuli/rgb_scene000146_render000002.png,0,181,181,169,"[1, 0]",left,1,244,23,f,y,y,2019_Apr_30_1041,2AFC_task,59.99501069241021,
stimuli/rgb_scene000012_render000000.png,stimuli/rgb_scene000012_render000004.png,0,182,182,45,"[0, 1]",right,1,244,23,f,y,y,2019_Apr_30_1041,2AFC_task,59.99501069241021,
stimuli/rgb_scene000004_render000001.png,stimuli/rgb_scene000004_render000004.png,0,183,183,8,"[0, 1]",right,1,244,23,f,y,y,2019_Apr_30_1041,2AFC_task,59.99501069241021,
stimuli/rgb_scene000095_render000000.png,stimuli/rgb_scene000095_render000003.png,0,184,184,86,"[1, 0]",left,1,244,23,f,y,y,2019_Apr_30_1041,2AFC_task,59.99501069241021,
stimuli/rgb_scene000195_render000002.png,stimuli/rgb_scene000195_render000003.png,0,185,185,200,"[1, 0]",left,1,244,23,f,y,y,2019_Apr_30_1041,2AFC_task,59.99501069241021,
stimuli/rgb_scene000012_render000000.png,stimuli/rgb_scene000012_render000001.png,0,186,186,42,"[1, 0]",right,0,244,23,f,y,y,2019_Apr_30_1041,2AFC_task,59.99501069241021,
stimuli/rgb_scene000096_render000001.png,stimuli/rgb_scene000096_render000004.png,0,187,187,113,"[1, 0]",left,1,244,23,f,y,y,2019_Apr_30_1041,2AFC_task,59.99501069241021,
stimuli/rgb_scene000102_render000001.png,stimuli/rgb_scene000102_render000004.png,0,188,188,134,"[1, 0]",left,1,244,23,f,y,y,2019_Apr_30_1041,2AFC_task,59.99501069241021,
stimuli/rgb_scene000195_render000001.png,stimuli/rgb_scene000195_render000003.png,0,189,189,196,"[0, 1]",right,1,244,23,f,y,y,2019_Apr_30_1041,2AFC_task,59.99501069241021,
stimuli/rgb_scene000012_render000005.png,stimuli/rgb_scene000012_render000006.png,0,190,190,62,"[1, 0]",left,1,244,23,f,y,y,2019_Apr_30_1041,2AFC_task,59.99501069241021,
stimuli/rgb_scene000113_render000004.png,stimuli/rgb_scene000113_render000006.png,0,191,191,166,"[1, 0]",left,1,244,23,f,y,y,2019_Apr_30_1041,2AFC_task,59.99501069241021,
stimuli/rgb_scene000004_render000003.png,stimuli/rgb_scene000004_render000006.png,0,192,192,17,"[0, 1]",right,1,244,23,f,y,y,2019_Apr_30_1041,2AFC_task,59.99501069241021,
stimuli/rgb_scene000102_render000002.png,stimuli/rgb_scene000102_render000006.png,0,193,193,140,"[0, 1]",left,0,244,23,f,y,y,2019_Apr_30_1041,2AFC_task,59.99501069241021,
stimuli/rgb_scene000095_render000000.png,stimuli/rgb_scene000095_render000006.png,0,194,194,89,"[1, 0]",left,1,244,23,f,y,y,2019_Apr_30_1041,2AFC_task,59.99501069241021,
stimuli/rgb_scene000004_render000002.png,stimuli/rgb_scene000004_render000003.png,0,195,195,11,"[0, 1]",right,1,244,23,f,y,y,2019_Apr_30_1041,2AFC_task,59.99501069241021,
stimuli/rgb_scene000102_render000001.png,stimuli/rgb_scene000102_render000002.png,0,196,196,132,"[0, 1]",right,1,244,23,f,y,y,2019_Apr_30_1041,2AFC_task,59.99501069241021,
stimuli/rgb_scene000102_render000002.png,stimuli/rgb_scene000102_render000003.png,0,197,197,137,"[0, 1]",right,1,244,23,f,y,y,2019_Apr_30_1041,2AFC_task,59.99501069241021,
stimuli/rgb_scene000004_render000003.png,stimuli/rgb_scene000004_render000004.png,0,198,198,15,"[0, 1]",right,1,244,23,f,y,y,2019_Apr_30_1041,2AFC_task,59.99501069241021,
stimuli/rgb_scene000195_render000001.png,stimuli/rgb_scene000195_render000006.png,0,199,199,199,"[0, 1]",right,1,244,23,f,y,y,2019_Apr_30_1041,2AFC_task,59.99501069241021,
stimuli/rgb_scene000146_render000000.png,stimuli/rgb_scene000146_render000005.png,0,200,200,172,"[1, 0]",left,1,244,23,f,y,y,2019_Apr_30_1041,2AFC_task,59.99501069241021,
stimuli/rgb_scene000095_render000000.png,stimuli/rgb_scene000095_render000004.png,0,201,201,87,"[1, 0]",left,1,244,23,f,y,y,2019_Apr_30_1041,2AFC_task,59.99501069241021,
stimuli/rgb_scene000102_render000001.png,stimuli/rgb_scene000102_render000005.png,0,202,202,135,"[1, 0]",left,1,244,23,f,y,y,2019_Apr_30_1041,2AFC_task,59.99501069241021,
stimuli/rgb_scene000195_render000003.png,stimuli/rgb_scene000195_render000004.png,0,203,203,204,"[1, 0]",right,0,244,23,f,y,y,2019_Apr_30_1041,2AFC_task,59.99501069241021,
stimuli/rgb_scene000005_render000000.png,stimuli/rgb_scene000005_render000004.png,0,204,204,24,"[0, 1]",right,1,244,23,f,y,y,2019_Apr_30_1041,2AFC_task,59.99501069241021,
stimuli/rgb_scene000195_render000000.png,stimuli/rgb_scene000195_render000005.png,0,205,205,193,"[1, 0]",left,1,244,23,f,y,y,2019_Apr_30_1041,2AFC_task,59.99501069241021,
stimuli/rgb_scene000004_render000002.png,stimuli/rgb_scene000004_render000004.png,0,206,206,12,"[1, 0]",left,1,244,23,f,y,y,2019_Apr_30_1041,2AFC_task,59.99501069241021,
stimuli/rgb_scene000146_render000002.png,stimuli/rgb_scene000146_render000003.png,0,207,207,179,"[0, 1]",right,1,244,23,f,y,y,2019_Apr_30_1041,2AFC_task,59.99501069241021,
stimuli/rgb_scene000095_render000001.png,stimuli/rgb_scene000095_render000003.png,0,208,208,91,"[1, 0]",left,1,244,23,f,y,y,2019_Apr_30_1041,2AFC_task,59.99501069241021,
stimuli/rgb_scene000146_render000001.png,stimuli/rgb_scene000146_render000004.png,0,209,209,176,"[1, 0]",left,1,244,23,f,y,y,2019_Apr_30_1041,2AFC_task,59.99501069241021,
stimuli/rgb_scene000090_render000000.png,stimuli/rgb_scene000090_render000002.png,1,0,210,64,"[0, 1]",right,1,244,23,f,y,y,2019_Apr_30_1041,2AFC_task,59.99501069241021,
stimuli/rgb_scene000113_render000000.png,stimuli/rgb_scene000113_render000006.png,1,1,211,152,"[0, 1]",right,1,244,23,f,y,y,2019_Apr_30_1041,2AFC_task,59.99501069241021,
stimuli/rgb_scene000012_render000004.png,stimuli/rgb_scene000012_render000006.png,1,2,212,61,"[0, 1]",left,0,244,23,f,y,y,2019_Apr_30_1041,2AFC_task,59.99501069241021,
stimuli/rgb_scene000095_render000002.png,stimuli/rgb_scene000095_render000006.png,1,3,213,98,"[0, 1]",right,1,244,23,f,y,y,2019_Apr_30_1041,2AFC_task,59.99501069241021,
stimuli/rgb_scene000005_render000002.png,stimuli/rgb_scene000005_render000006.png,1,4,214,35,"[0, 1]",left,0,244,23,f,y,y,2019_Apr_30_1041,2AFC_task,59.99501069241021,
stimuli/rgb_scene000113_render000004.png,stimuli/rgb_scene000113_render000005.png,1,5,215,165,"[1, 0]",left,1,244,23,f,y,y,2019_Apr_30_1041,2AFC_task,59.99501069241021,
stimuli/rgb_scene000113_render000000.png,stimuli/rgb_scene000113_render000001.png,1,6,216,147,"[0, 1]",left,0,244,23,f,y,y,2019_Apr_30_1041,2AFC_task,59.99501069241021,
stimuli/rgb_scene000095_render000001.png,stimuli/rgb_scene000095_render000003.png,1,7,217,91,"[0, 1]",right,1,244,23,f,y,y,2019_Apr_30_1041,2AFC_task,59.99501069241021,
stimuli/rgb_scene000146_render000002.png,stimuli/rgb_scene000146_render000004.png,1,8,218,180,"[0, 1]",right,1,244,23,f,y,y,2019_Apr_30_1041,2AFC_task,59.99501069241021,
stimuli/rgb_scene000090_render000000.png,stimuli/rgb_scene000090_render000003.png,1,9,219,65,"[1, 0]",left,1,244,23,f,y,y,2019_Apr_30_1041,2AFC_task,59.99501069241021,
stimuli/rgb_scene000096_render000001.png,stimuli/rgb_scene000096_render000006.png,1,10,220,115,"[1, 0]",left,1,244,23,f,y,y,2019_Apr_30_1041,2AFC_task,59.99501069241021,
stimuli/rgb_scene000090_render000002.png,stimuli/rgb_scene000090_render000003.png,1,11,221,74,"[1, 0]",right,0,244,23,f,y,y,2019_Apr_30_1041,2AFC_task,59.99501069241021,
stimuli/rgb_scene000012_render000003.png,stimuli/rgb_scene000012_render000005.png,1,12,222,58,"[0, 1]",left,0,244,23,f,y,y,2019_Apr_30_1041,2AFC_task,59.99501069241021,
stimuli/rgb_scene000102_render000003.png,stimuli/rgb_scene000102_render000006.png,1,13,223,143,"[0, 1]",right,1,244,23,f,y,y,2019_Apr_30_1041,2AFC_task,59.99501069241021,
stimuli/rgb_scene000146_render000000.png,stimuli/rgb_scene000146_render000002.png,1,14,224,169,"[0, 1]",right,1,244,23,f,y,y,2019_Apr_30_1041,2AFC_task,59.99501069241021,
stimuli/rgb_scene000004_render000000.png,stimuli/rgb_scene000004_render000003.png,1,15,225,2,"[0, 1]",right,1,244,23,f,y,y,2019_Apr_30_1041,2AFC_task,59.99501069241021,
stimuli/rgb_scene000012_render000002.png,stimuli/rgb_scene000012_render000005.png,1,16,226,55,"[0, 1]",right,1,244,23,f,y,y,2019_Apr_30_1041,2AFC_task,59.99501069241021,
stimuli/rgb_scene000004_render000001.png,stimuli/rgb_scene000004_render000006.png,1,17,227,10,"[1, 0]",left,1,244,23,f,y,y,2019_Apr_30_1041,2AFC_task,59.99501069241021,
stimuli/rgb_scene000004_render000001.png,stimuli/rgb_scene000004_render000002.png,1,18,228,6,"[0, 1]",right,1,244,23,f,y,y,2019_Apr_30_1041,2AFC_task,59.99501069241021,
stimuli/rgb_scene000090_render000001.png,stimuli/rgb_scene000090_render000005.png,1,19,229,72,"[1, 0]",left,1,244,23,f,y,y,2019_Apr_30_1041,2AFC_task,59.99501069241021,
stimuli/rgb_scene000113_render000002.png,stimuli/rgb_scene000113_render000003.png,1,20,230,158,"[0, 1]",right,1,244,23,f,y,y,2019_Apr_30_1041,2AFC_task,59.99501069241021,
stimuli/rgb_scene000195_render000005.png,stimuli/rgb_scene000195_render000006.png,1,21,231,209,"[0, 1]",left,0,244,23,f,y,y,2019_Apr_30_1041,2AFC_task,59.99501069241021,
stimuli/rgb_scene000005_render000005.png,stimuli/rgb_scene000005_render000006.png,1,22,232,41,"[1, 0]",right,0,244,23,f,y,y,2019_Apr_30_1041,2AFC_task,59.99501069241021,
stimuli/rgb_scene000146_render000003.png,stimuli/rgb_scene000146_render000005.png,1,23,233,184,"[0, 1]",right,1,244,23,f,y,y,2019_Apr_30_1041,2AFC_task,59.99501069241021,
stimuli/rgb_scene000004_render000001.png,stimuli/rgb_scene000004_render000003.png,1,24,234,7,"[0, 1]",right,1,244,23,f,y,y,2019_Apr_30_1041,2AFC_task,59.99501069241021,
stimuli/rgb_scene000096_render000000.png,stimuli/rgb_scene000096_render000003.png,1,25,235,107,"[1, 0]",left,1,244,23,f,y,y,2019_Apr_30_1041,2AFC_task,59.99501069241021,
stimuli/rgb_scene000146_render000002.png,stimuli/rgb_scene000146_render000006.png,1,26,236,182,"[1, 0]",left,1,244,23,f,y,y,2019_Apr_30_1041,2AFC_task,59.99501069241021,
stimuli/rgb_scene000012_render000001.png,stimuli/rgb_scene000012_render000004.png,1,27,237,50,"[1, 0]",left,1,244,23,f,y,y,2019_Apr_30_1041,2AFC_task,59.99501069241021,
stimuli/rgb_scene000005_render000003.png,stimuli/rgb_scene000005_render000005.png,1,28,238,37,"[0, 1]",left,0,244,23,f,y,y,2019_Apr_30_1041,2AFC_task,59.99501069241021,
stimuli/rgb_scene000005_render000002.png,stimuli/rgb_scene000005_render000005.png,1,29,239,34,"[0, 1]",left,0,244,23,f,y,y,2019_Apr_30_1041,2AFC_task,59.99501069241021,
stimuli/rgb_scene000195_render000003.png,stimuli/rgb_scene000195_render000005.png,1,30,240,205,"[0, 1]",left,0,244,23,f,y,y,2019_Apr_30_1041,2AFC_task,59.99501069241021,
stimuli/rgb_scene000146_render000000.png,stimuli/rgb_scene000146_render000001.png,1,31,241,168,"[1, 0]",left,1,244,23,f,y,y,2019_Apr_30_1041,2AFC_task,59.99501069241021,
stimuli/rgb_scene000004_render000003.png,stimuli/rgb_scene000004_render000006.png,1,32,242,17,"[1, 0]",left,1,244,23,f,y,y,2019_Apr_30_1041,2AFC_task,59.99501069241021,
stimuli/rgb_scene000004_render000004.png,stimuli/rgb_scene000004_render000006.png,1,33,243,19,"[1, 0]",left,1,244,23,f,y,y,2019_Apr_30_1041,2AFC_task,59.99501069241021,
stimuli/rgb_scene000195_render000002.png,stimuli/rgb_scene000195_render000005.png,1,34,244,202,"[1, 0]",right,0,244,23,f,y,y,2019_Apr_30_1041,2AFC_task,59.99501069241021,
stimuli/rgb_scene000146_render000001.png,stimuli/rgb_scene000146_render000005.png,1,35,245,177,"[0, 1]",right,1,244,23,f,y,y,2019_Apr_30_1041,2AFC_task,59.99501069241021,
stimuli/rgb_scene000090_render000003.png,stimuli/rgb_scene000090_render000006.png,1,36,246,80,"[0, 1]",left,0,244,23,f,y,y,2019_Apr_30_1041,2AFC_task,59.99501069241021,
stimuli/rgb_scene000113_render000000.png,stimuli/rgb_scene000113_render000005.png,1,37,247,151,"[1, 0]",left,1,244,23,f,y,y,2019_Apr_30_1041,2AFC_task,59.99501069241021,
stimuli/rgb_scene000095_render000000.png,stimuli/rgb_scene000095_render000003.png,1,38,248,86,"[0, 1]",right,1,244,23,f,y,y,2019_Apr_30_1041,2AFC_task,59.99501069241021,
stimuli/rgb_scene000095_render000000.png,stimuli/rgb_scene000095_render000002.png,1,39,249,85,"[1, 0]",left,1,244,23,f,y,y,2019_Apr_30_1041,2AFC_task,59.99501069241021,
stimuli/rgb_scene000195_render000000.png,stimuli/rgb_scene000195_render000004.png,1,40,250,192,"[1, 0]",left,1,244,23,f,y,y,2019_Apr_30_1041,2AFC_task,59.99501069241021,
stimuli/rgb_scene000102_render000001.png,stimuli/rgb_scene000102_render000004.png,1,41,251,134,"[1, 0]",left,1,244,23,f,y,y,2019_Apr_30_1041,2AFC_task,59.99501069241021,
stimuli/rgb_scene000096_render000000.png,stimuli/rgb_scene000096_render000004.png,1,42,252,108,"[0, 1]",right,1,244,23,f,y,y,2019_Apr_30_1041,2AFC_task,59.99501069241021,
stimuli/rgb_scene000005_render000000.png,stimuli/rgb_scene000005_render000002.png,1,43,253,22,"[1, 0]",left,1,244,23,f,y,y,2019_Apr_30_1041,2AFC_task,59.99501069241021,
stimuli/rgb_scene000005_render000001.png,stimuli/rgb_scene000005_render000004.png,1,44,254,29,"[0, 1]",right,1,244,23,f,y,y,2019_Apr_30_1041,2AFC_task,59.99501069241021,
stimuli/rgb_scene000004_render000002.png,stimuli/rgb_scene000004_render000004.png,1,45,255,12,"[1, 0]",left,1,244,23,f,y,y,2019_Apr_30_1041,2AFC_task,59.99501069241021,
stimuli/rgb_scene000090_render000000.png,stimuli/rgb_scene000090_render000004.png,1,46,256,66,"[0, 1]",right,1,244,23,f,y,y,2019_Apr_30_1041,2AFC_task,59.99501069241021,
stimuli/rgb_scene000195_render000003.png,stimuli/rgb_scene000195_render000004.png,1,47,257,204,"[0, 1]",right,1,244,23,f,y,y,2019_Apr_30_1041,2AFC_task,59.99501069241021,
stimuli/rgb_scene000146_render000003.png,stimuli/rgb_scene000146_render000006.png,1,48,258,185,"[1, 0]",left,1,244,23,f,y,y,2019_Apr_30_1041,2AFC_task,59.99501069241021,
stimuli/rgb_scene000005_render000003.png,stimuli/rgb_scene000005_render000004.png,1,49,259,36,"[0, 1]",right,1,244,23,f,y,y,2019_Apr_30_1041,2AFC_task,59.99501069241021,
stimuli/rgb_scene000195_render000000.png,stimuli/rgb_scene000195_render000001.png,1,50,260,189,"[1, 0]",right,0,244,23,f,y,y,2019_Apr_30_1041,2AFC_task,59.99501069241021,
stimuli/rgb_scene000012_render000000.png,stimuli/rgb_scene000012_render000005.png,1,51,261,46,"[0, 1]",right,1,244,23,f,y,y,2019_Apr_30_1041,2AFC_task,59.99501069241021,
stimuli/rgb_scene000090_render000002.png,stimuli/rgb_scene000090_render000004.png,1,52,262,75,"[0, 1]",right,1,244,23,f,y,y,2019_Apr_30_1041,2AFC_task,59.99501069241021,
stimuli/rgb_scene000095_render000000.png,stimuli/rgb_scene000095_render000006.png,1,53,263,89,"[0, 1]",right,1,244,23,f,y,y,2019_Apr_30_1041,2AFC_task,59.99501069241021,
stimuli/rgb_scene000146_render000000.png,stimuli/rgb_scene000146_render000003.png,1,54,264,170,"[1, 0]",right,0,244,23,f,y,y,2019_Apr_30_1041,2AFC_task,59.99501069241021,
stimuli/rgb_scene000195_render000002.png,stimuli/rgb_scene000195_render000006.png,1,55,265,203,"[0, 1]",right,1,244,23,f,y,y,2019_Apr_30_1041,2AFC_task,59.99501069241021,
stimuli/rgb_scene000095_render000002.png,stimuli/rgb_scene000095_render000004.png,1,56,266,96,"[0, 1]",right,1,244,23,f,y,y,2019_Apr_30_1041,2AFC_task,59.99501069241021,
stimuli/rgb_scene000096_render000005.png,stimuli/rgb_scene000096_render000006.png,1,57,267,125,"[0, 1]",right,1,244,23,f,y,y,2019_Apr_30_1041,2AFC_task,59.99501069241021,
stimuli/rgb_scene000005_render000003.png,stimuli/rgb_scene000005_render000006.png,1,58,268,38,"[0, 1]",right,1,244,23,f,y,y,2019_Apr_30_1041,2AFC_task,59.99501069241021,
stimuli/rgb_scene000095_render000001.png,stimuli/rgb_scene000095_render000005.png,1,59,269,93,"[1, 0]",left,1,244,23,f,y,y,2019_Apr_30_1041,2AFC_task,59.99501069241021,
stimuli/rgb_scene000005_render000001.png,stimuli/rgb_scene000005_render000003.png,1,60,270,28,"[0, 1]",right,1,244,23,f,y,y,2019_Apr_30_1041,2AFC_task,59.99501069241021,
stimuli/rgb_scene000095_render000000.png,stimuli/rgb_scene000095_render000005.png,1,61,271,88,"[1, 0]",left,1,244,23,f,y,y,2019_Apr_30_1041,2AFC_task,59.99501069241021,
stimuli/rgb_scene000005_render000002.png,stimuli/rgb_scene000005_render000003.png,1,62,272,32,"[1, 0]",right,0,244,23,f,y,y,2019_Apr_30_1041,2AFC_task,59.99501069241021,
stimuli/rgb_scene000095_render000004.png,stimuli/rgb_scene000095_render000005.png,1,63,273,102,"[1, 0]",left,1,244,23,f,y,y,2019_Apr_30_1041,2AFC_task,59.99501069241021,
stimuli/rgb_scene000146_render000001.png,stimuli/rgb_scene000146_render000006.png,1,64,274,178,"[1, 0]",left,1,244,23,f,y,y,2019_Apr_30_1041,2AFC_task,59.99501069241021,
stimuli/rgb_scene000090_render000001.png,stimuli/rgb_scene000090_render000003.png,1,65,275,70,"[0, 1]",right,1,244,23,f,y,y,2019_Apr_30_1041,2AFC_task,59.99501069241021,
stimuli/rgb_scene000195_render000001.png,stimuli/rgb_scene000195_render000006.png,1,66,276,199,"[1, 0]",left,1,244,23,f,y,y,2019_Apr_30_1041,2AFC_task,59.99501069241021,
stimuli/rgb_scene000095_render000003.png,stimuli/rgb_scene000095_render000004.png,1,67,277,99,"[0, 1]",right,1,244,23,f,y,y,2019_Apr_30_1041,2AFC_task,59.99501069241021,
stimuli/rgb_scene000005_render000000.png,stimuli/rgb_scene000005_render000006.png,1,68,278,26,"[1, 0]",left,1,244,23,f,y,y,2019_Apr_30_1041,2AFC_task,59.99501069241021,
stimuli/rgb_scene000195_render000001.png,stimuli/rgb_scene000195_render000003.png,1,69,279,196,"[1, 0]",left,1,244,23,f,y,y,2019_Apr_30_1041,2AFC_task,59.99501069241021,
stimuli/rgb_scene000012_render000000.png,stimuli/rgb_scene000012_render000003.png,1,70,280,44,"[1, 0]",left,1,244,23,f,y,y,2019_Apr_30_1041,2AFC_task,59.99501069241021,
stimuli/rgb_scene000012_render000000.png,stimuli/rgb_scene000012_render000001.png,1,71,281,42,"[1, 0]",left,1,244,23,f,y,y,2019_Apr_30_1041,2AFC_task,59.99501069241021,
stimuli/rgb_scene000113_render000001.png,stimuli/rgb_scene000113_render000002.png,1,72,282,153,"[1, 0]",left,1,244,23,f,y,y,2019_Apr_30_1041,2AFC_task,59.99501069241021,
stimuli/rgb_scene000146_render000001.png,stimuli/rgb_scene000146_render000003.png,1,73,283,175,"[1, 0]",left,1,244,23,f,y,y,2019_Apr_30_1041,2AFC_task,59.99501069241021,
stimuli/rgb_scene000012_render000005.png,stimuli/rgb_scene000012_render000006.png,1,74,284,62,"[0, 1]",right,1,244,23,f,y,y,2019_Apr_30_1041,2AFC_task,59.99501069241021,
stimuli/rgb_scene000005_render000002.png,stimuli/rgb_scene000005_render000004.png,1,75,285,33,"[1, 0]",left,1,244,23,f,y,y,2019_Apr_30_1041,2AFC_task,59.99501069241021,
stimuli/rgb_scene000102_render000001.png,stimuli/rgb_scene000102_render000005.png,1,76,286,135,"[0, 1]",right,1,244,23,f,y,y,2019_Apr_30_1041,2AFC_task,59.99501069241021,
stimuli/rgb_scene000012_render000003.png,stimuli/rgb_scene000012_render000004.png,1,77,287,57,"[1, 0]",left,1,244,23,f,y,y,2019_Apr_30_1041,2AFC_task,59.99501069241021,
stimuli/rgb_scene000113_render000001.png,stimuli/rgb_scene000113_render000004.png,1,78,288,155,"[0, 1]",right,1,244,23,f,y,y,2019_Apr_30_1041,2AFC_task,59.99501069241021,
stimuli/rgb_scene000113_render000002.png,stimuli/rgb_scene000113_render000005.png,1,79,289,160,"[0, 1]",right,1,244,23,f,y,y,2019_Apr_30_1041,2AFC_task,59.99501069241021,
stimuli/rgb_scene000090_render000004.png,stimuli/rgb_scene000090_render000006.png,1,80,290,82,"[0, 1]",left,0,244,23,f,y,y,2019_Apr_30_1041,2AFC_task,59.99501069241021,
stimuli/rgb_scene000102_render000002.png,stimuli/rgb_scene000102_render000004.png,1,81,291,138,"[0, 1]",right,1,244,23,f,y,y,2019_Apr_30_1041,2AFC_task,59.99501069241021,
stimuli/rgb_scene000004_render000000.png,stimuli/rgb_scene000004_render000005.png,1,82,292,4,"[0, 1]",right,1,244,23,f,y,y,2019_Apr_30_1041,2AFC_task,59.99501069241021,
stimuli/rgb_scene000096_render000001.png,stimuli/rgb_scene000096_render000003.png,1,83,293,112,"[0, 1]",right,1,244,23,f,y,y,2019_Apr_30_1041,2AFC_task,59.99501069241021,
stimuli/rgb_scene000102_render000001.png,stimuli/rgb_scene000102_render000006.png,1,84,294,136,"[1, 0]",left,1,244,23,f,y,y,2019_Apr_30_1041,2AFC_task,59.99501069241021,
stimuli/rgb_scene000004_render000000.png,stimuli/rgb_scene000004_render000004.png,1,85,295,3,"[1, 0]",left,1,244,23,f,y,y,2019_Apr_30_1041,2AFC_task,59.99501069241021,
stimuli/rgb_scene000195_render000000.png,stimuli/rgb_scene000195_render000005.png,1,86,296,193,"[1, 0]",left,1,244,23,f,y,y,2019_Apr_30_1041,2AFC_task,59.99501069241021,
stimuli/rgb_scene000095_render000004.png,stimuli/rgb_scene000095_render000006.png,1,87,297,103,"[1, 0]",left,1,244,23,f,y,y,2019_Apr_30_1041,2AFC_task,59.99501069241021,
stimuli/rgb_scene000195_render000004.png,stimuli/rgb_scene000195_render000006.png,1,88,298,208,"[0, 1]",right,1,244,23,f,y,y,2019_Apr_30_1041,2AFC_task,59.99501069241021,
stimuli/rgb_scene000090_render000004.png,stimuli/rgb_scene000090_render000005.png,1,89,299,81,"[0, 1]",right,1,244,23,f,y,y,2019_Apr_30_1041,2AFC_task,59.99501069241021,
stimuli/rgb_scene000012_render000001.png,stimuli/rgb_scene000012_render000002.png,1,90,300,48,"[0, 1]",right,1,244,23,f,y,y,2019_Apr_30_1041,2AFC_task,59.99501069241021,
stimuli/rgb_scene000095_render000002.png,stimuli/rgb_scene000095_render000003.png,1,91,301,95,"[0, 1]",right,1,244,23,f,y,y,2019_Apr_30_1041,2AFC_task,59.99501069241021,
stimuli/rgb_scene000102_render000000.png,stimuli/rgb_scene000102_render000002.png,1,92,302,127,"[1, 0]",left,1,244,23,f,y,y,2019_Apr_30_1041,2AFC_task,59.99501069241021,
stimuli/rgb_scene000102_render000004.png,stimuli/rgb_scene000102_render000005.png,1,93,303,144,"[0, 1]",right,1,244,23,f,y,y,2019_Apr_30_1041,2AFC_task,59.99501069241021,
stimuli/rgb_scene000146_render000002.png,stimuli/rgb_scene000146_render000005.png,1,94,304,181,"[0, 1]",right,1,244,23,f,y,y,2019_Apr_30_1041,2AFC_task,59.99501069241021,
stimuli/rgb_scene000146_render000004.png,stimuli/rgb_scene000146_render000005.png,1,95,305,186,"[1, 0]",left,1,244,23,f,y,y,2019_Apr_30_1041,2AFC_task,59.99501069241021,
stimuli/rgb_scene000012_render000001.png,stimuli/rgb_scene000012_render000005.png,1,96,306,51,"[0, 1]",right,1,244,23,f,y,y,2019_Apr_30_1041,2AFC_task,59.99501069241021,
stimuli/rgb_scene000005_render000004.png,stimuli/rgb_scene000005_render000005.png,1,97,307,39,"[0, 1]",left,0,244,23,f,y,y,2019_Apr_30_1041,2AFC_task,59.99501069241021,
stimuli/rgb_scene000090_render000000.png,stimuli/rgb_scene000090_render000001.png,1,98,308,63,"[1, 0]",left,1,244,23,f,y,y,2019_Apr_30_1041,2AFC_task,59.99501069241021,
stimuli/rgb_scene000005_render000001.png,stimuli/rgb_scene000005_render000005.png,1,99,309,30,"[1, 0]",left,1,244,23,f,y,y,2019_Apr_30_1041,2AFC_task,59.99501069241021,
stimuli/rgb_scene000004_render000000.png,stimuli/rgb_scene000004_render000002.png,1,100,310,1,"[1, 0]",left,1,244,23,f,y,y,2019_Apr_30_1041,2AFC_task,59.99501069241021,
stimuli/rgb_scene000012_render000000.png,stimuli/rgb_scene000012_render000004.png,1,101,311,45,"[1, 0]",left,1,244,23,f,y,y,2019_Apr_30_1041,2AFC_task,59.99501069241021,
stimuli/rgb_scene000146_render000003.png,stimuli/rgb_scene000146_render000004.png,1,102,312,183,"[1, 0]",left,1,244,23,f,y,y,2019_Apr_30_1041,2AFC_task,59.99501069241021,
stimuli/rgb_scene000102_render000003.png,stimuli/rgb_scene000102_render000004.png,1,103,313,141,"[1, 0]",left,1,244,23,f,y,y,2019_Apr_30_1041,2AFC_task,59.99501069241021,
stimuli/rgb_scene000113_render000000.png,stimuli/rgb_scene000113_render000003.png,1,104,314,149,"[1, 0]",left,1,244,23,f,y,y,2019_Apr_30_1041,2AFC_task,59.99501069241021,
stimuli/rgb_scene000195_render000000.png,stimuli/rgb_scene000195_render000002.png,1,105,315,190,"[0, 1]",right,1,244,23,f,y,y,2019_Apr_30_1041,2AFC_task,59.99501069241021,
stimuli/rgb_scene000096_render000004.png,stimuli/rgb_scene000096_render000006.png,1,106,316,124,"[1, 0]",left,1,244,23,f,y,y,2019_Apr_30_1041,2AFC_task,59.99501069241021,
stimuli/rgb_scene000113_render000002.png,stimuli/rgb_scene000113_render000004.png,1,107,317,159,"[0, 1]",right,1,244,23,f,y,y,2019_Apr_30_1041,2AFC_task,59.99501069241021,
stimuli/rgb_scene000102_render000002.png,stimuli/rgb_scene000102_render000006.png,1,108,318,140,"[1, 0]",left,1,244,23,f,y,y,2019_Apr_30_1041,2AFC_task,59.99501069241021,
stimuli/rgb_scene000195_render000004.png,stimuli/rgb_scene000195_render000005.png,1,109,319,207,"[1, 0]",left,1,244,23,f,y,y,2019_Apr_30_1041,2AFC_task,59.99501069241021,
stimuli/rgb_scene000102_render000000.png,stimuli/rgb_scene000102_render000005.png,1,110,320,130,"[0, 1]",right,1,244,23,f,y,y,2019_Apr_30_1041,2AFC_task,59.99501069241021,
stimuli/rgb_scene000102_render000001.png,stimuli/rgb_scene000102_render000003.png,1,111,321,133,"[0, 1]",right,1,244,23,f,y,y,2019_Apr_30_1041,2AFC_task,59.99501069241021,
stimuli/rgb_scene000012_render000004.png,stimuli/rgb_scene000012_render000005.png,1,112,322,60,"[1, 0]",left,1,244,23,f,y,y,2019_Apr_30_1041,2AFC_task,59.99501069241021,
stimuli/rgb_scene000005_render000000.png,stimuli/rgb_scene000005_render000005.png,1,113,323,25,"[0, 1]",right,1,244,23,f,y,y,2019_Apr_30_1041,2AFC_task,59.99501069241021,
stimuli/rgb_scene000096_render000001.png,stimuli/rgb_scene000096_render000005.png,1,114,324,114,"[1, 0]",left,1,244,23,f,y,y,2019_Apr_30_1041,2AFC_task,59.99501069241021,
stimuli/rgb_scene000090_render000005.png,stimuli/rgb_scene000090_render000006.png,1,115,325,83,"[1, 0]",left,1,244,23,f,y,y,2019_Apr_30_1041,2AFC_task,59.99501069241021,
stimuli/rgb_scene000012_render000002.png,stimuli/rgb_scene000012_render000006.png,1,116,326,56,"[0, 1]",right,1,244,23,f,y,y,2019_Apr_30_1041,2AFC_task,59.99501069241021,
stimuli/rgb_scene000102_render000005.png,stimuli/rgb_scene000102_render000006.png,1,117,327,146,"[1, 0]",left,1,244,23,f,y,y,2019_Apr_30_1041,2AFC_task,59.99501069241021,
stimuli/rgb_scene000195_render000001.png,stimuli/rgb_scene000195_render000002.png,1,118,328,195,"[0, 1]",right,1,244,23,f,y,y,2019_Apr_30_1041,2AFC_task,59.99501069241021,
stimuli/rgb_scene000096_render000002.png,stimuli/rgb_scene000096_render000004.png,1,119,329,117,"[1, 0]",left,1,244,23,f,y,y,2019_Apr_30_1041,2AFC_task,59.99501069241021,
stimuli/rgb_scene000004_render000003.png,stimuli/rgb_scene000004_render000004.png,1,120,330,15,"[0, 1]",right,1,244,23,f,y,y,2019_Apr_30_1041,2AFC_task,59.99501069241021,
stimuli/rgb_scene000102_render000000.png,stimuli/rgb_scene000102_render000006.png,1,121,331,131,"[0, 1]",right,1,244,23,f,y,y,2019_Apr_30_1041,2AFC_task,59.99501069241021,
stimuli/rgb_scene000146_render000002.png,stimuli/rgb_scene000146_render000003.png,1,122,332,179,"[1, 0]",left,1,244,23,f,y,y,2019_Apr_30_1041,2AFC_task,59.99501069241021,
stimuli/rgb_scene000113_render000001.png,stimuli/rgb_scene000113_render000005.png,1,123,333,156,"[0, 1]",right,1,244,23,f,y,y,2019_Apr_30_1041,2AFC_task,59.99501069241021,
stimuli/rgb_scene000004_render000005.png,stimuli/rgb_scene000004_render000006.png,1,124,334,20,"[0, 1]",right,1,244,23,f,y,y,2019_Apr_30_1041,2AFC_task,59.99501069241021,
stimuli/rgb_scene000004_render000002.png,stimuli/rgb_scene000004_render000006.png,1,125,335,14,"[0, 1]",right,1,244,23,f,y,y,2019_Apr_30_1041,2AFC_task,59.99501069241021,
stimuli/rgb_scene000005_render000000.png,stimuli/rgb_scene000005_render000001.png,1,126,336,21,"[1, 0]",left,1,244,23,f,y,y,2019_Apr_30_1041,2AFC_task,59.99501069241021,
stimuli/rgb_scene000096_render000003.png,stimuli/rgb_scene000096_render000006.png,1,127,337,122,"[1, 0]",left,1,244,23,f,y,y,2019_Apr_30_1041,2AFC_task,59.99501069241021,
stimuli/rgb_scene000005_render000000.png,stimuli/rgb_scene000005_render000004.png,1,128,338,24,"[0, 1]",right,1,244,23,f,y,y,2019_Apr_30_1041,2AFC_task,59.99501069241021,
stimuli/rgb_scene000113_render000003.png,stimuli/rgb_scene000113_render000006.png,1,129,339,164,"[1, 0]",left,1,244,23,f,y,y,2019_Apr_30_1041,2AFC_task,59.99501069241021,
stimuli/rgb_scene000095_render000000.png,stimuli/rgb_scene000095_render000004.png,1,130,340,87,"[1, 0]",left,1,244,23,f,y,y,2019_Apr_30_1041,2AFC_task,59.99501069241021,
stimuli/rgb_scene000004_render000003.png,stimuli/rgb_scene000004_render000005.png,1,131,341,16,"[0, 1]",right,1,244,23,f,y,y,2019_Apr_30_1041,2AFC_task,59.99501069241021,
stimuli/rgb_scene000095_render000001.png,stimuli/rgb_scene000095_render000004.png,1,132,342,92,"[0, 1]",right,1,244,23,f,y,y,2019_Apr_30_1041,2AFC_task,59.99501069241021,
stimuli/rgb_scene000012_render000003.png,stimuli/rgb_scene000012_render000006.png,1,133,343,59,"[0, 1]",right,1,244,23,f,y,y,2019_Apr_30_1041,2AFC_task,59.99501069241021,
stimuli/rgb_scene000095_render000003.png,stimuli/rgb_scene000095_render000005.png,1,134,344,100,"[0, 1]",right,1,244,23,f,y,y,2019_Apr_30_1041,2AFC_task,59.99501069241021,
stimuli/rgb_scene000113_render000005.png,stimuli/rgb_scene000113_render000006.png,1,135,345,167,"[1, 0]",left,1,244,23,f,y,y,2019_Apr_30_1041,2AFC_task,59.99501069241021,
stimuli/rgb_scene000004_render000004.png,stimuli/rgb_scene000004_render000005.png,1,136,346,18,"[1, 0]",left,1,244,23,f,y,y,2019_Apr_30_1041,2AFC_task,59.99501069241021,
stimuli/rgb_scene000090_render000001.png,stimuli/rgb_scene000090_render000002.png,1,137,347,69,"[0, 1]",right,1,244,23,f,y,y,2019_Apr_30_1041,2AFC_task,59.99501069241021,
stimuli/rgb_scene000096_render000003.png,stimuli/rgb_scene000096_render000005.png,1,138,348,121,"[0, 1]",right,1,244,23,f,y,y,2019_Apr_30_1041,2AFC_task,59.99501069241021,
stimuli/rgb_scene000004_render000002.png,stimuli/rgb_scene000004_render000003.png,1,139,349,11,"[0, 1]",right,1,244,23,f,y,y,2019_Apr_30_1041,2AFC_task,59.99501069241021,
stimuli/rgb_scene000096_render000001.png,stimuli/rgb_scene000096_render000002.png,1,140,350,111,"[0, 1]",right,1,244,23,f,y,y,2019_Apr_30_1041,2AFC_task,59.99501069241021,
stimuli/rgb_scene000195_render000000.png,stimuli/rgb_scene000195_render000006.png,1,141,351,194,"[0, 1]",right,1,244,23,f,y,y,2019_Apr_30_1041,2AFC_task,59.99501069241021,
stimuli/rgb_scene000102_render000002.png,stimuli/rgb_scene000102_render000005.png,1,142,352,139,"[0, 1]",right,1,244,23,f,y,y,2019_Apr_30_1041,2AFC_task,59.99501069241021,
stimuli/rgb_scene000102_render000004.png,stimuli/rgb_scene000102_render000006.png,1,143,353,145,"[1, 0]",left,1,244,23,f,y,y,2019_Apr_30_1041,2AFC_task,59.99501069241021,
stimuli/rgb_scene000004_render000002.png,stimuli/rgb_scene000004_render000005.png,1,144,354,13,"[0, 1]",right,1,244,23,f,y,y,2019_Apr_30_1041,2AFC_task,59.99501069241021,
stimuli/rgb_scene000012_render000000.png,stimuli/rgb_scene000012_render000006.png,1,145,355,47,"[1, 0]",left,1,244,23,f,y,y,2019_Apr_30_1041,2AFC_task,59.99501069241021,
stimuli/rgb_scene000096_render000004.png,stimuli/rgb_scene000096_render000005.png,1,146,356,123,"[1, 0]",right,0,244,23,f,y,y,2019_Apr_30_1041,2AFC_task,59.99501069241021,
stimuli/rgb_scene000004_render000001.png,stimuli/rgb_scene000004_render000004.png,1,147,357,8,"[1, 0]",left,1,244,23,f,y,y,2019_Apr_30_1041,2AFC_task,59.99501069241021,
stimuli/rgb_scene000146_render000001.png,stimuli/rgb_scene000146_render000004.png,1,148,358,176,"[1, 0]",left,1,244,23,f,y,y,2019_Apr_30_1041,2AFC_task,59.99501069241021,
stimuli/rgb_scene000102_render000001.png,stimuli/rgb_scene000102_render000002.png,1,149,359,132,"[1, 0]",left,1,244,23,f,y,y,2019_Apr_30_1041,2AFC_task,59.99501069241021,
stimuli/rgb_scene000096_render000001.png,stimuli/rgb_scene000096_render000004.png,1,150,360,113,"[0, 1]",right,1,244,23,f,y,y,2019_Apr_30_1041,2AFC_task,59.99501069241021,
stimuli/rgb_scene000113_render000004.png,stimuli/rgb_scene000113_render000006.png,1,151,361,166,"[0, 1]",right,1,244,23,f,y,y,2019_Apr_30_1041,2AFC_task,59.99501069241021,
stimuli/rgb_scene000113_render000003.png,stimuli/rgb_scene000113_render000004.png,1,152,362,162,"[0, 1]",right,1,244,23,f,y,y,2019_Apr_30_1041,2AFC_task,59.99501069241021,
stimuli/rgb_scene000146_render000000.png,stimuli/rgb_scene000146_render000004.png,1,153,363,171,"[1, 0]",left,1,244,23,f,y,y,2019_Apr_30_1041,2AFC_task,59.99501069241021,
stimuli/rgb_scene000090_render000001.png,stimuli/rgb_scene000090_render000004.png,1,154,364,71,"[1, 0]",left,1,244,23,f,y,y,2019_Apr_30_1041,2AFC_task,59.99501069241021,
stimuli/rgb_scene000012_render000001.png,stimuli/rgb_scene000012_render000006.png,1,155,365,52,"[1, 0]",left,1,244,23,f,y,y,2019_Apr_30_1041,2AFC_task,59.99501069241021,
stimuli/rgb_scene000095_render000002.png,stimuli/rgb_scene000095_render000005.png,1,156,366,97,"[1, 0]",left,1,244,23,f,y,y,2019_Apr_30_1041,2AFC_task,59.99501069241021,
stimuli/rgb_scene000113_render000001.png,stimuli/rgb_scene000113_render000006.png,1,157,367,157,"[0, 1]",right,1,244,23,f,y,y,2019_Apr_30_1041,2AFC_task,59.99501069241021,
stimuli/rgb_scene000113_render000000.png,stimuli/rgb_scene000113_render000004.png,1,158,368,150,"[0, 1]",left,0,244,23,f,y,y,2019_Apr_30_1041,2AFC_task,59.99501069241021,
stimuli/rgb_scene000005_render000001.png,stimuli/rgb_scene000005_render000006.png,1,159,369,31,"[0, 1]",left,0,244,23,f,y,y,2019_Apr_30_1041,2AFC_task,59.99501069241021,
stimuli/rgb_scene000004_render000000.png,stimuli/rgb_scene000004_render000001.png,1,160,370,0,"[0, 1]",right,1,244,23,f,y,y,2019_Apr_30_1041,2AFC_task,59.99501069241021,
stimuli/rgb_scene000005_render000001.png,stimuli/rgb_scene000005_render000002.png,1,161,371,27,"[0, 1]",right,1,244,23,f,y,y,2019_Apr_30_1041,2AFC_task,59.99501069241021,
stimuli/rgb_scene000102_render000000.png,stimuli/rgb_scene000102_render000001.png,1,162,372,126,"[0, 1]",right,1,244,23,f,y,y,2019_Apr_30_1041,2AFC_task,59.99501069241021,
stimuli/rgb_scene000012_render000002.png,stimuli/rgb_scene000012_render000004.png,1,163,373,54,"[1, 0]",left,1,244,23,f,y,y,2019_Apr_30_1041,2AFC_task,59.99501069241021,
stimuli/rgb_scene000146_render000001.png,stimuli/rgb_scene000146_render000002.png,1,164,374,174,"[1, 0]",left,1,244,23,f,y,y,2019_Apr_30_1041,2AFC_task,59.99501069241021,
stimuli/rgb_scene000146_render000000.png,stimuli/rgb_scene000146_render000006.png,1,165,375,173,"[1, 0]",left,1,244,23,f,y,y,2019_Apr_30_1041,2AFC_task,59.99501069241021,
stimuli/rgb_scene000005_render000000.png,stimuli/rgb_scene000005_render000003.png,1,166,376,23,"[1, 0]",right,0,244,23,f,y,y,2019_Apr_30_1041,2AFC_task,59.99501069241021,
stimuli/rgb_scene000146_render000004.png,stimuli/rgb_scene000146_render000006.png,1,167,377,187,"[0, 1]",right,1,244,23,f,y,y,2019_Apr_30_1041,2AFC_task,59.99501069241021,
stimuli/rgb_scene000096_render000003.png,stimuli/rgb_scene000096_render000004.png,1,168,378,120,"[0, 1]",left,0,244,23,f,y,y,2019_Apr_30_1041,2AFC_task,59.99501069241021,
stimuli/rgb_scene000096_render000002.png,stimuli/rgb_scene000096_render000006.png,1,169,379,119,"[0, 1]",right,1,244,23,f,y,y,2019_Apr_30_1041,2AFC_task,59.99501069241021,
stimuli/rgb_scene000012_render000001.png,stimuli/rgb_scene000012_render000003.png,1,170,380,49,"[1, 0]",left,1,244,23,f,y,y,2019_Apr_30_1041,2AFC_task,59.99501069241021,
stimuli/rgb_scene000102_render000000.png,stimuli/rgb_scene000102_render000003.png,1,171,381,128,"[1, 0]",left,1,244,23,f,y,y,2019_Apr_30_1041,2AFC_task,59.99501069241021,
stimuli/rgb_scene000095_render000000.png,stimuli/rgb_scene000095_render000001.png,1,172,382,84,"[1, 0]",left,1,244,23,f,y,y,2019_Apr_30_1041,2AFC_task,59.99501069241021,
stimuli/rgb_scene000195_render000001.png,stimuli/rgb_scene000195_render000004.png,1,173,383,197,"[0, 1]",right,1,244,23,f,y,y,2019_Apr_30_1041,2AFC_task,59.99501069241021,
stimuli/rgb_scene000095_render000001.png,stimuli/rgb_scene000095_render000006.png,1,174,384,94,"[1, 0]",left,1,244,23,f,y,y,2019_Apr_30_1041,2AFC_task,59.99501069241021,
stimuli/rgb_scene000195_render000001.png,stimuli/rgb_scene000195_render000005.png,1,175,385,198,"[1, 0]",left,1,244,23,f,y,y,2019_Apr_30_1041,2AFC_task,59.99501069241021,
stimuli/rgb_scene000113_render000000.png,stimuli/rgb_scene000113_render000002.png,1,176,386,148,"[0, 1]",left,0,244,23,f,y,y,2019_Apr_30_1041,2AFC_task,59.99501069241021,
stimuli/rgb_scene000096_render000002.png,stimuli/rgb_scene000096_render000003.png,1,177,387,116,"[0, 1]",right,1,244,23,f,y,y,2019_Apr_30_1041,2AFC_task,59.99501069241021,
stimuli/rgb_scene000096_render000002.png,stimuli/rgb_scene000096_render000005.png,1,178,388,118,"[0, 1]",right,1,244,23,f,y,y,2019_Apr_30_1041,2AFC_task,59.99501069241021,
stimuli/rgb_scene000090_render000000.png,stimuli/rgb_scene000090_render000005.png,1,179,389,67,"[0, 1]",right,1,244,23,f,y,y,2019_Apr_30_1041,2AFC_task,59.99501069241021,
stimuli/rgb_scene000095_render000001.png,stimuli/rgb_scene000095_render000002.png,1,180,390,90,"[1, 0]",left,1,244,23,f,y,y,2019_Apr_30_1041,2AFC_task,59.99501069241021,
stimuli/rgb_scene000090_render000001.png,stimuli/rgb_scene000090_render000006.png,1,181,391,73,"[1, 0]",left,1,244,23,f,y,y,2019_Apr_30_1041,2AFC_task,59.99501069241021,
stimuli/rgb_scene000102_render000002.png,stimuli/rgb_scene000102_render000003.png,1,182,392,137,"[1, 0]",left,1,244,23,f,y,y,2019_Apr_30_1041,2AFC_task,59.99501069241021,
stimuli/rgb_scene000095_render000003.png,stimuli/rgb_scene000095_render000006.png,1,183,393,101,"[1, 0]",left,1,244,23,f,y,y,2019_Apr_30_1041,2AFC_task,59.99501069241021,
stimuli/rgb_scene000146_render000000.png,stimuli/rgb_scene000146_render000005.png,1,184,394,172,"[0, 1]",right,1,244,23,f,y,y,2019_Apr_30_1041,2AFC_task,59.99501069241021,
stimuli/rgb_scene000012_render000000.png,stimuli/rgb_scene000012_render000002.png,1,185,395,43,"[0, 1]",right,1,244,23,f,y,y,2019_Apr_30_1041,2AFC_task,59.99501069241021,
stimuli/rgb_scene000004_render000000.png,stimuli/rgb_scene000004_render000006.png,1,186,396,5,"[1, 0]",left,1,244,23,f,y,y,2019_Apr_30_1041,2AFC_task,59.99501069241021,
stimuli/rgb_scene000195_render000002.png,stimuli/rgb_scene000195_render000003.png,1,187,397,200,"[1, 0]",left,1,244,23,f,y,y,2019_Apr_30_1041,2AFC_task,59.99501069241021,
stimuli/rgb_scene000005_render000004.png,stimuli/rgb_scene000005_render000006.png,1,188,398,40,"[1, 0]",left,1,244,23,f,y,y,2019_Apr_30_1041,2AFC_task,59.99501069241021,
stimuli/rgb_scene000195_render000000.png,stimuli/rgb_scene000195_render000003.png,1,189,399,191,"[0, 1]",right,1,244,23,f,y,y,2019_Apr_30_1041,2AFC_task,59.99501069241021,
stimuli/rgb_scene000102_render000000.png,stimuli/rgb_scene000102_render000004.png,1,190,400,129,"[0, 1]",right,1,244,23,f,y,y,2019_Apr_30_1041,2AFC_task,59.99501069241021,
stimuli/rgb_scene000102_render000003.png,stimuli/rgb_scene000102_render000005.png,1,191,401,142,"[1, 0]",right,0,244,23,f,y,y,2019_Apr_30_1041,2AFC_task,59.99501069241021,
stimuli/rgb_scene000090_render000002.png,stimuli/rgb_scene000090_render000005.png,1,192,402,76,"[0, 1]",right,1,244,23,f,y,y,2019_Apr_30_1041,2AFC_task,59.99501069241021,
stimuli/rgb_scene000096_render000000.png,stimuli/rgb_scene000096_render000002.png,1,193,403,106,"[1, 0]",left,1,244,23,f,y,y,2019_Apr_30_1041,2AFC_task,59.99501069241021,
stimuli/rgb_scene000090_render000002.png,stimuli/rgb_scene000090_render000006.png,1,194,404,77,"[0, 1]",right,1,244,23,f,y,y,2019_Apr_30_1041,2AFC_task,59.99501069241021,
stimuli/rgb_scene000090_render000003.png,stimuli/rgb_scene000090_render000005.png,1,195,405,79,"[1, 0]",right,0,244,23,f,y,y,2019_Apr_30_1041,2AFC_task,59.99501069241021,
stimuli/rgb_scene000095_render000005.png,stimuli/rgb_scene000095_render000006.png,1,196,406,104,"[0, 1]",left,0,244,23,f,y,y,2019_Apr_30_1041,2AFC_task,59.99501069241021,
stimuli/rgb_scene000146_render000005.png,stimuli/rgb_scene000146_render000006.png,1,197,407,188,"[0, 1]",left,0,244,23,f,y,y,2019_Apr_30_1041,2AFC_task,59.99501069241021,
stimuli/rgb_scene000090_render000000.png,stimuli/rgb_scene000090_render000006.png,1,198,408,68,"[1, 0]",left,1,244,23,f,y,y,2019_Apr_30_1041,2AFC_task,59.99501069241021,
stimuli/rgb_scene000113_render000003.png,stimuli/rgb_scene000113_render000005.png,1,199,409,163,"[0, 1]",right,1,244,23,f,y,y,2019_Apr_30_1041,2AFC_task,59.99501069241021,
stimuli/rgb_scene000096_render000000.png,stimuli/rgb_scene000096_render000006.png,1,200,410,110,"[0, 1]",right,1,244,23,f,y,y,2019_Apr_30_1041,2AFC_task,59.99501069241021,
stimuli/rgb_scene000012_render000002.png,stimuli/rgb_scene000012_render000003.png,1,201,411,53,"[1, 0]",left,1,244,23,f,y,y,2019_Apr_30_1041,2AFC_task,59.99501069241021,
stimuli/rgb_scene000004_render000001.png,stimuli/rgb_scene000004_render000005.png,1,202,412,9,"[1, 0]",left,1,244,23,f,y,y,2019_Apr_30_1041,2AFC_task,59.99501069241021,
stimuli/rgb_scene000096_render000000.png,stimuli/rgb_scene000096_render000001.png,1,203,413,105,"[0, 1]",right,1,244,23,f,y,y,2019_Apr_30_1041,2AFC_task,59.99501069241021,
stimuli/rgb_scene000113_render000002.png,stimuli/rgb_scene000113_render000006.png,1,204,414,161,"[1, 0]",left,1,244,23,f,y,y,2019_Apr_30_1041,2AFC_task,59.99501069241021,
stimuli/rgb_scene000195_render000002.png,stimuli/rgb_scene000195_render000004.png,1,205,415,201,"[1, 0]",right,0,244,23,f,y,y,2019_Apr_30_1041,2AFC_task,59.99501069241021,
stimuli/rgb_scene000090_render000003.png,stimuli/rgb_scene000090_render000004.png,1,206,416,78,"[1, 0]",left,1,244,23,f,y,y,2019_Apr_30_1041,2AFC_task,59.99501069241021,
stimuli/rgb_scene000096_render000000.png,stimuli/rgb_scene000096_render000005.png,1,207,417,109,"[0, 1]",right,1,244,23,f,y,y,2019_Apr_30_1041,2AFC_task,59.99501069241021,
stimuli/rgb_scene000195_render000003.png,stimuli/rgb_scene000195_render000006.png,1,208,418,206,"[1, 0]",left,1,244,23,f,y,y,2019_Apr_30_1041,2AFC_task,59.99501069241021,
stimuli/rgb_scene000113_render000001.png,stimuli/rgb_scene000113_render000003.png,1,209,419,154,"[0, 1]",right,1,244,23,f,y,y,2019_Apr_30_1041,2AFC_task,59.99501069241021,
