stimOne,stimTwo,trials_1.thisRepN,trials_1.thisTrialN,trials_1.thisN,trials_1.thisIndex,presentation_positions,resp_key,corresponding_image,participant ID (two digits, e.g. 01),age,gender (m/f/-),normal or corrected-to-normal vision (y/n),normal colour vision (y/n),date,expName,frameRate,
stimuli/rgb_scene000005_render000002.png,stimuli/rgb_scene000005_render000003.png,0,0,0,32,"[0, 1]",left,0,253,25,f,y,y,2019_Apr_29_1302,2AFC_task,59.955323691246534,
stimuli/rgb_scene000095_render000002.png,stimuli/rgb_scene000095_render000003.png,0,1,1,95,"[0, 1]",right,1,253,25,f,y,y,2019_Apr_29_1302,2AFC_task,59.955323691246534,
stimuli/rgb_scene000102_render000001.png,stimuli/rgb_scene000102_render000003.png,0,2,2,133,"[0, 1]",right,1,253,25,f,y,y,2019_Apr_29_1302,2AFC_task,59.955323691246534,
stimuli/rgb_scene000096_render000004.png,stimuli/rgb_scene000096_render000006.png,0,3,3,124,"[1, 0]",left,1,253,25,f,y,y,2019_Apr_29_1302,2AFC_task,59.955323691246534,
stimuli/rgb_scene000102_render000001.png,stimuli/rgb_scene000102_render000002.png,0,4,4,132,"[1, 0]",left,1,253,25,f,y,y,2019_Apr_29_1302,2AFC_task,59.955323691246534,
stimuli/rgb_scene000195_render000001.png,stimuli/rgb_scene000195_render000005.png,0,5,5,198,"[1, 0]",left,1,253,25,f,y,y,2019_Apr_29_1302,2AFC_task,59.955323691246534,
stimuli/rgb_scene000096_render000002.png,stimuli/rgb_scene000096_render000005.png,0,6,6,118,"[1, 0]",left,1,253,25,f,y,y,2019_Apr_29_1302,2AFC_task,59.955323691246534,
stimuli/rgb_scene000004_render000002.png,stimuli/rgb_scene000004_render000003.png,0,7,7,11,"[1, 0]",left,1,253,25,f,y,y,2019_Apr_29_1302,2AFC_task,59.955323691246534,
stimuli/rgb_scene000102_render000000.png,stimuli/rgb_scene000102_render000006.png,0,8,8,131,"[0, 1]",right,1,253,25,f,y,y,2019_Apr_29_1302,2AFC_task,59.955323691246534,
stimuli/rgb_scene000005_render000000.png,stimuli/rgb_scene000005_render000001.png,0,9,9,21,"[0, 1]",right,1,253,25,f,y,y,2019_Apr_29_1302,2AFC_task,59.955323691246534,
stimuli/rgb_scene000095_render000001.png,stimuli/rgb_scene000095_render000002.png,0,10,10,90,"[0, 1]",right,1,253,25,f,y,y,2019_Apr_29_1302,2AFC_task,59.955323691246534,
stimuli/rgb_scene000096_render000003.png,stimuli/rgb_scene000096_render000004.png,0,11,11,120,"[0, 1]",right,1,253,25,f,y,y,2019_Apr_29_1302,2AFC_task,59.955323691246534,
stimuli/rgb_scene000095_render000000.png,stimuli/rgb_scene000095_render000003.png,0,12,12,86,"[1, 0]",left,1,253,25,f,y,y,2019_Apr_29_1302,2AFC_task,59.955323691246534,
stimuli/rgb_scene000146_render000001.png,stimuli/rgb_scene000146_render000002.png,0,13,13,174,"[1, 0]",left,1,253,25,f,y,y,2019_Apr_29_1302,2AFC_task,59.955323691246534,
stimuli/rgb_scene000102_render000003.png,stimuli/rgb_scene000102_render000004.png,0,14,14,141,"[1, 0]",left,1,253,25,f,y,y,2019_Apr_29_1302,2AFC_task,59.955323691246534,
stimuli/rgb_scene000096_render000000.png,stimuli/rgb_scene000096_render000004.png,0,15,15,108,"[1, 0]",left,1,253,25,f,y,y,2019_Apr_29_1302,2AFC_task,59.955323691246534,
stimuli/rgb_scene000012_render000000.png,stimuli/rgb_scene000012_render000004.png,0,16,16,45,"[1, 0]",left,1,253,25,f,y,y,2019_Apr_29_1302,2AFC_task,59.955323691246534,
stimuli/rgb_scene000195_render000000.png,stimuli/rgb_scene000195_render000002.png,0,17,17,190,"[1, 0]",left,1,253,25,f,y,y,2019_Apr_29_1302,2AFC_task,59.955323691246534,
stimuli/rgb_scene000195_render000000.png,stimuli/rgb_scene000195_render000003.png,0,18,18,191,"[1, 0]",left,1,253,25,f,y,y,2019_Apr_29_1302,2AFC_task,59.955323691246534,
stimuli/rgb_scene000004_render000005.png,stimuli/rgb_scene000004_render000006.png,0,19,19,20,"[1, 0]",left,1,253,25,f,y,y,2019_Apr_29_1302,2AFC_task,59.955323691246534,
stimuli/rgb_scene000005_render000000.png,stimuli/rgb_scene000005_render000005.png,0,20,20,25,"[1, 0]",left,1,253,25,f,y,y,2019_Apr_29_1302,2AFC_task,59.955323691246534,
stimuli/rgb_scene000113_render000002.png,stimuli/rgb_scene000113_render000005.png,0,21,21,160,"[1, 0]",left,1,253,25,f,y,y,2019_Apr_29_1302,2AFC_task,59.955323691246534,
stimuli/rgb_scene000090_render000003.png,stimuli/rgb_scene000090_render000004.png,0,22,22,78,"[0, 1]",right,1,253,25,f,y,y,2019_Apr_29_1302,2AFC_task,59.955323691246534,
stimuli/rgb_scene000102_render000003.png,stimuli/rgb_scene000102_render000006.png,0,23,23,143,"[0, 1]",right,1,253,25,f,y,y,2019_Apr_29_1302,2AFC_task,59.955323691246534,
stimuli/rgb_scene000004_render000001.png,stimuli/rgb_scene000004_render000004.png,0,24,24,8,"[0, 1]",right,1,253,25,f,y,y,2019_Apr_29_1302,2AFC_task,59.955323691246534,
stimuli/rgb_scene000005_render000004.png,stimuli/rgb_scene000005_render000005.png,0,25,25,39,"[1, 0]",right,0,253,25,f,y,y,2019_Apr_29_1302,2AFC_task,59.955323691246534,
stimuli/rgb_scene000005_render000000.png,stimuli/rgb_scene000005_render000006.png,0,26,26,26,"[0, 1]",right,1,253,25,f,y,y,2019_Apr_29_1302,2AFC_task,59.955323691246534,
stimuli/rgb_scene000095_render000000.png,stimuli/rgb_scene000095_render000006.png,0,27,27,89,"[0, 1]",right,1,253,25,f,y,y,2019_Apr_29_1302,2AFC_task,59.955323691246534,
stimuli/rgb_scene000113_render000004.png,stimuli/rgb_scene000113_render000006.png,0,28,28,166,"[1, 0]",left,1,253,25,f,y,y,2019_Apr_29_1302,2AFC_task,59.955323691246534,
stimuli/rgb_scene000195_render000002.png,stimuli/rgb_scene000195_render000004.png,0,29,29,201,"[1, 0]",left,1,253,25,f,y,y,2019_Apr_29_1302,2AFC_task,59.955323691246534,
stimuli/rgb_scene000090_render000001.png,stimuli/rgb_scene000090_render000005.png,0,30,30,72,"[1, 0]",left,1,253,25,f,y,y,2019_Apr_29_1302,2AFC_task,59.955323691246534,
stimuli/rgb_scene000090_render000002.png,stimuli/rgb_scene000090_render000004.png,0,31,31,75,"[0, 1]",right,1,253,25,f,y,y,2019_Apr_29_1302,2AFC_task,59.955323691246534,
stimuli/rgb_scene000004_render000001.png,stimuli/rgb_scene000004_render000005.png,0,32,32,9,"[0, 1]",right,1,253,25,f,y,y,2019_Apr_29_1302,2AFC_task,59.955323691246534,
stimuli/rgb_scene000195_render000000.png,stimuli/rgb_scene000195_render000006.png,0,33,33,194,"[0, 1]",right,1,253,25,f,y,y,2019_Apr_29_1302,2AFC_task,59.955323691246534,
stimuli/rgb_scene000095_render000000.png,stimuli/rgb_scene000095_render000005.png,0,34,34,88,"[1, 0]",left,1,253,25,f,y,y,2019_Apr_29_1302,2AFC_task,59.955323691246534,
stimuli/rgb_scene000090_render000000.png,stimuli/rgb_scene000090_render000005.png,0,35,35,67,"[1, 0]",left,1,253,25,f,y,y,2019_Apr_29_1302,2AFC_task,59.955323691246534,
stimuli/rgb_scene000090_render000003.png,stimuli/rgb_scene000090_render000006.png,0,36,36,80,"[1, 0]",right,0,253,25,f,y,y,2019_Apr_29_1302,2AFC_task,59.955323691246534,
stimuli/rgb_scene000090_render000000.png,stimuli/rgb_scene000090_render000001.png,0,37,37,63,"[0, 1]",right,1,253,25,f,y,y,2019_Apr_29_1302,2AFC_task,59.955323691246534,
stimuli/rgb_scene000005_render000002.png,stimuli/rgb_scene000005_render000005.png,0,38,38,34,"[1, 0]",left,1,253,25,f,y,y,2019_Apr_29_1302,2AFC_task,59.955323691246534,
stimuli/rgb_scene000012_render000003.png,stimuli/rgb_scene000012_render000004.png,0,39,39,57,"[1, 0]",left,1,253,25,f,y,y,2019_Apr_29_1302,2AFC_task,59.955323691246534,
stimuli/rgb_scene000095_render000002.png,stimuli/rgb_scene000095_render000006.png,0,40,40,98,"[0, 1]",right,1,253,25,f,y,y,2019_Apr_29_1302,2AFC_task,59.955323691246534,
stimuli/rgb_scene000113_render000001.png,stimuli/rgb_scene000113_render000002.png,0,41,41,153,"[0, 1]",right,1,253,25,f,y,y,2019_Apr_29_1302,2AFC_task,59.955323691246534,
stimuli/rgb_scene000102_render000000.png,stimuli/rgb_scene000102_render000003.png,0,42,42,128,"[1, 0]",left,1,253,25,f,y,y,2019_Apr_29_1302,2AFC_task,59.955323691246534,
stimuli/rgb_scene000005_render000002.png,stimuli/rgb_scene000005_render000006.png,0,43,43,35,"[0, 1]",right,1,253,25,f,y,y,2019_Apr_29_1302,2AFC_task,59.955323691246534,
stimuli/rgb_scene000012_render000001.png,stimuli/rgb_scene000012_render000006.png,0,44,44,52,"[0, 1]",right,1,253,25,f,y,y,2019_Apr_29_1302,2AFC_task,59.955323691246534,
stimuli/rgb_scene000096_render000001.png,stimuli/rgb_scene000096_render000003.png,0,45,45,112,"[0, 1]",right,1,253,25,f,y,y,2019_Apr_29_1302,2AFC_task,59.955323691246534,
stimuli/rgb_scene000195_render000002.png,stimuli/rgb_scene000195_render000006.png,0,46,46,203,"[1, 0]",left,1,253,25,f,y,y,2019_Apr_29_1302,2AFC_task,59.955323691246534,
stimuli/rgb_scene000146_render000001.png,stimuli/rgb_scene000146_render000005.png,0,47,47,177,"[1, 0]",left,1,253,25,f,y,y,2019_Apr_29_1302,2AFC_task,59.955323691246534,
stimuli/rgb_scene000146_render000002.png,stimuli/rgb_scene000146_render000006.png,0,48,48,182,"[0, 1]",right,1,253,25,f,y,y,2019_Apr_29_1302,2AFC_task,59.955323691246534,
stimuli/rgb_scene000096_render000001.png,stimuli/rgb_scene000096_render000005.png,0,49,49,114,"[0, 1]",right,1,253,25,f,y,y,2019_Apr_29_1302,2AFC_task,59.955323691246534,
stimuli/rgb_scene000012_render000004.png,stimuli/rgb_scene000012_render000005.png,0,50,50,60,"[1, 0]",left,1,253,25,f,y,y,2019_Apr_29_1302,2AFC_task,59.955323691246534,
stimuli/rgb_scene000090_render000000.png,stimuli/rgb_scene000090_render000003.png,0,51,51,65,"[0, 1]",right,1,253,25,f,y,y,2019_Apr_29_1302,2AFC_task,59.955323691246534,
stimuli/rgb_scene000113_render000003.png,stimuli/rgb_scene000113_render000006.png,0,52,52,164,"[1, 0]",left,1,253,25,f,y,y,2019_Apr_29_1302,2AFC_task,59.955323691246534,
stimuli/rgb_scene000004_render000000.png,stimuli/rgb_scene000004_render000006.png,0,53,53,5,"[0, 1]",right,1,253,25,f,y,y,2019_Apr_29_1302,2AFC_task,59.955323691246534,
stimuli/rgb_scene000005_render000001.png,stimuli/rgb_scene000005_render000004.png,0,54,54,29,"[1, 0]",left,1,253,25,f,y,y,2019_Apr_29_1302,2AFC_task,59.955323691246534,
stimuli/rgb_scene000102_render000001.png,stimuli/rgb_scene000102_render000005.png,0,55,55,135,"[0, 1]",right,1,253,25,f,y,y,2019_Apr_29_1302,2AFC_task,59.955323691246534,
stimuli/rgb_scene000012_render000001.png,stimuli/rgb_scene000012_render000002.png,0,56,56,48,"[0, 1]",right,1,253,25,f,y,y,2019_Apr_29_1302,2AFC_task,59.955323691246534,
stimuli/rgb_scene000195_render000001.png,stimuli/rgb_scene000195_render000002.png,0,57,57,195,"[1, 0]",left,1,253,25,f,y,y,2019_Apr_29_1302,2AFC_task,59.955323691246534,
stimuli/rgb_scene000004_render000004.png,stimuli/rgb_scene000004_render000006.png,0,58,58,19,"[0, 1]",right,1,253,25,f,y,y,2019_Apr_29_1302,2AFC_task,59.955323691246534,
stimuli/rgb_scene000146_render000003.png,stimuli/rgb_scene000146_render000005.png,0,59,59,184,"[1, 0]",left,1,253,25,f,y,y,2019_Apr_29_1302,2AFC_task,59.955323691246534,
stimuli/rgb_scene000012_render000000.png,stimuli/rgb_scene000012_render000002.png,0,60,60,43,"[0, 1]",right,1,253,25,f,y,y,2019_Apr_29_1302,2AFC_task,59.955323691246534,
stimuli/rgb_scene000005_render000000.png,stimuli/rgb_scene000005_render000002.png,0,61,61,22,"[1, 0]",left,1,253,25,f,y,y,2019_Apr_29_1302,2AFC_task,59.955323691246534,
stimuli/rgb_scene000102_render000005.png,stimuli/rgb_scene000102_render000006.png,0,62,62,146,"[0, 1]",right,1,253,25,f,y,y,2019_Apr_29_1302,2AFC_task,59.955323691246534,
stimuli/rgb_scene000090_render000002.png,stimuli/rgb_scene000090_render000005.png,0,63,63,76,"[1, 0]",left,1,253,25,f,y,y,2019_Apr_29_1302,2AFC_task,59.955323691246534,
stimuli/rgb_scene000012_render000002.png,stimuli/rgb_scene000012_render000004.png,0,64,64,54,"[0, 1]",right,1,253,25,f,y,y,2019_Apr_29_1302,2AFC_task,59.955323691246534,
stimuli/rgb_scene000146_render000002.png,stimuli/rgb_scene000146_render000003.png,0,65,65,179,"[0, 1]",right,1,253,25,f,y,y,2019_Apr_29_1302,2AFC_task,59.955323691246534,
stimuli/rgb_scene000113_render000004.png,stimuli/rgb_scene000113_render000005.png,0,66,66,165,"[0, 1]",right,1,253,25,f,y,y,2019_Apr_29_1302,2AFC_task,59.955323691246534,
stimuli/rgb_scene000113_render000003.png,stimuli/rgb_scene000113_render000005.png,0,67,67,163,"[0, 1]",right,1,253,25,f,y,y,2019_Apr_29_1302,2AFC_task,59.955323691246534,
stimuli/rgb_scene000095_render000004.png,stimuli/rgb_scene000095_render000005.png,0,68,68,102,"[0, 1]",right,1,253,25,f,y,y,2019_Apr_29_1302,2AFC_task,59.955323691246534,
stimuli/rgb_scene000146_render000000.png,stimuli/rgb_scene000146_render000006.png,0,69,69,173,"[1, 0]",left,1,253,25,f,y,y,2019_Apr_29_1302,2AFC_task,59.955323691246534,
stimuli/rgb_scene000096_render000003.png,stimuli/rgb_scene000096_render000006.png,0,70,70,122,"[1, 0]",left,1,253,25,f,y,y,2019_Apr_29_1302,2AFC_task,59.955323691246534,
stimuli/rgb_scene000146_render000001.png,stimuli/rgb_scene000146_render000006.png,0,71,71,178,"[0, 1]",right,1,253,25,f,y,y,2019_Apr_29_1302,2AFC_task,59.955323691246534,
stimuli/rgb_scene000004_render000000.png,stimuli/rgb_scene000004_render000005.png,0,72,72,4,"[0, 1]",right,1,253,25,f,y,y,2019_Apr_29_1302,2AFC_task,59.955323691246534,
stimuli/rgb_scene000095_render000003.png,stimuli/rgb_scene000095_render000005.png,0,73,73,100,"[0, 1]",right,1,253,25,f,y,y,2019_Apr_29_1302,2AFC_task,59.955323691246534,
stimuli/rgb_scene000102_render000002.png,stimuli/rgb_scene000102_render000004.png,0,74,74,138,"[0, 1]",right,1,253,25,f,y,y,2019_Apr_29_1302,2AFC_task,59.955323691246534,
stimuli/rgb_scene000113_render000000.png,stimuli/rgb_scene000113_render000002.png,0,75,75,148,"[1, 0]",left,1,253,25,f,y,y,2019_Apr_29_1302,2AFC_task,59.955323691246534,
stimuli/rgb_scene000095_render000001.png,stimuli/rgb_scene000095_render000003.png,0,76,76,91,"[1, 0]",left,1,253,25,f,y,y,2019_Apr_29_1302,2AFC_task,59.955323691246534,
stimuli/rgb_scene000096_render000004.png,stimuli/rgb_scene000096_render000005.png,0,77,77,123,"[0, 1]",right,1,253,25,f,y,y,2019_Apr_29_1302,2AFC_task,59.955323691246534,
stimuli/rgb_scene000113_render000000.png,stimuli/rgb_scene000113_render000006.png,0,78,78,152,"[1, 0]",left,1,253,25,f,y,y,2019_Apr_29_1302,2AFC_task,59.955323691246534,
stimuli/rgb_scene000012_render000001.png,stimuli/rgb_scene000012_render000004.png,0,79,79,50,"[0, 1]",right,1,253,25,f,y,y,2019_Apr_29_1302,2AFC_task,59.955323691246534,
stimuli/rgb_scene000090_render000001.png,stimuli/rgb_scene000090_render000004.png,0,80,80,71,"[0, 1]",right,1,253,25,f,y,y,2019_Apr_29_1302,2AFC_task,59.955323691246534,
stimuli/rgb_scene000146_render000001.png,stimuli/rgb_scene000146_render000004.png,0,81,81,176,"[0, 1]",right,1,253,25,f,y,y,2019_Apr_29_1302,2AFC_task,59.955323691246534,
stimuli/rgb_scene000195_render000000.png,stimuli/rgb_scene000195_render000004.png,0,82,82,192,"[0, 1]",right,1,253,25,f,y,y,2019_Apr_29_1302,2AFC_task,59.955323691246534,
stimuli/rgb_scene000004_render000004.png,stimuli/rgb_scene000004_render000005.png,0,83,83,18,"[0, 1]",right,1,253,25,f,y,y,2019_Apr_29_1302,2AFC_task,59.955323691246534,
stimuli/rgb_scene000005_render000003.png,stimuli/rgb_scene000005_render000004.png,0,84,84,36,"[1, 0]",left,1,253,25,f,y,y,2019_Apr_29_1302,2AFC_task,59.955323691246534,
stimuli/rgb_scene000146_render000000.png,stimuli/rgb_scene000146_render000002.png,0,85,85,169,"[0, 1]",right,1,253,25,f,y,y,2019_Apr_29_1302,2AFC_task,59.955323691246534,
stimuli/rgb_scene000195_render000004.png,stimuli/rgb_scene000195_render000006.png,0,86,86,208,"[1, 0]",left,1,253,25,f,y,y,2019_Apr_29_1302,2AFC_task,59.955323691246534,
stimuli/rgb_scene000012_render000001.png,stimuli/rgb_scene000012_render000005.png,0,87,87,51,"[1, 0]",left,1,253,25,f,y,y,2019_Apr_29_1302,2AFC_task,59.955323691246534,
stimuli/rgb_scene000004_render000000.png,stimuli/rgb_scene000004_render000004.png,0,88,88,3,"[1, 0]",left,1,253,25,f,y,y,2019_Apr_29_1302,2AFC_task,59.955323691246534,
stimuli/rgb_scene000195_render000005.png,stimuli/rgb_scene000195_render000006.png,0,89,89,209,"[1, 0]",right,0,253,25,f,y,y,2019_Apr_29_1302,2AFC_task,59.955323691246534,
stimuli/rgb_scene000090_render000001.png,stimuli/rgb_scene000090_render000003.png,0,90,90,70,"[0, 1]",right,1,253,25,f,y,y,2019_Apr_29_1302,2AFC_task,59.955323691246534,
stimuli/rgb_scene000012_render000000.png,stimuli/rgb_scene000012_render000006.png,0,91,91,47,"[1, 0]",left,1,253,25,f,y,y,2019_Apr_29_1302,2AFC_task,59.955323691246534,
stimuli/rgb_scene000146_render000000.png,stimuli/rgb_scene000146_render000001.png,0,92,92,168,"[0, 1]",right,1,253,25,f,y,y,2019_Apr_29_1302,2AFC_task,59.955323691246534,
stimuli/rgb_scene000195_render000000.png,stimuli/rgb_scene000195_render000005.png,0,93,93,193,"[1, 0]",left,1,253,25,f,y,y,2019_Apr_29_1302,2AFC_task,59.955323691246534,
stimuli/rgb_scene000012_render000001.png,stimuli/rgb_scene000012_render000003.png,0,94,94,49,"[1, 0]",left,1,253,25,f,y,y,2019_Apr_29_1302,2AFC_task,59.955323691246534,
stimuli/rgb_scene000102_render000004.png,stimuli/rgb_scene000102_render000006.png,0,95,95,145,"[0, 1]",right,1,253,25,f,y,y,2019_Apr_29_1302,2AFC_task,59.955323691246534,
stimuli/rgb_scene000096_render000001.png,stimuli/rgb_scene000096_render000006.png,0,96,96,115,"[0, 1]",right,1,253,25,f,y,y,2019_Apr_29_1302,2AFC_task,59.955323691246534,
stimuli/rgb_scene000004_render000001.png,stimuli/rgb_scene000004_render000002.png,0,97,97,6,"[1, 0]",left,1,253,25,f,y,y,2019_Apr_29_1302,2AFC_task,59.955323691246534,
stimuli/rgb_scene000012_render000003.png,stimuli/rgb_scene000012_render000006.png,0,98,98,59,"[1, 0]",right,0,253,25,f,y,y,2019_Apr_29_1302,2AFC_task,59.955323691246534,
stimuli/rgb_scene000012_render000000.png,stimuli/rgb_scene000012_render000003.png,0,99,99,44,"[1, 0]",left,1,253,25,f,y,y,2019_Apr_29_1302,2AFC_task,59.955323691246534,
stimuli/rgb_scene000004_render000003.png,stimuli/rgb_scene000004_render000005.png,0,100,100,16,"[0, 1]",right,1,253,25,f,y,y,2019_Apr_29_1302,2AFC_task,59.955323691246534,
stimuli/rgb_scene000113_render000000.png,stimuli/rgb_scene000113_render000004.png,0,101,101,150,"[1, 0]",left,1,253,25,f,y,y,2019_Apr_29_1302,2AFC_task,59.955323691246534,
stimuli/rgb_scene000004_render000003.png,stimuli/rgb_scene000004_render000006.png,0,102,102,17,"[1, 0]",left,1,253,25,f,y,y,2019_Apr_29_1302,2AFC_task,59.955323691246534,
stimuli/rgb_scene000090_render000001.png,stimuli/rgb_scene000090_render000002.png,0,103,103,69,"[0, 1]",left,0,253,25,f,y,y,2019_Apr_29_1302,2AFC_task,59.955323691246534,
stimuli/rgb_scene000146_render000003.png,stimuli/rgb_scene000146_render000004.png,0,104,104,183,"[0, 1]",right,1,253,25,f,y,y,2019_Apr_29_1302,2AFC_task,59.955323691246534,
stimuli/rgb_scene000102_render000004.png,stimuli/rgb_scene000102_render000005.png,0,105,105,144,"[1, 0]",left,1,253,25,f,y,y,2019_Apr_29_1302,2AFC_task,59.955323691246534,
stimuli/rgb_scene000096_render000001.png,stimuli/rgb_scene000096_render000002.png,0,106,106,111,"[1, 0]",left,1,253,25,f,y,y,2019_Apr_29_1302,2AFC_task,59.955323691246534,
stimuli/rgb_scene000102_render000000.png,stimuli/rgb_scene000102_render000004.png,0,107,107,129,"[1, 0]",left,1,253,25,f,y,y,2019_Apr_29_1302,2AFC_task,59.955323691246534,
stimuli/rgb_scene000146_render000004.png,stimuli/rgb_scene000146_render000006.png,0,108,108,187,"[0, 1]",right,1,253,25,f,y,y,2019_Apr_29_1302,2AFC_task,59.955323691246534,
stimuli/rgb_scene000102_render000000.png,stimuli/rgb_scene000102_render000001.png,0,109,109,126,"[1, 0]",left,1,253,25,f,y,y,2019_Apr_29_1302,2AFC_task,59.955323691246534,
stimuli/rgb_scene000146_render000000.png,stimuli/rgb_scene000146_render000005.png,0,110,110,172,"[1, 0]",left,1,253,25,f,y,y,2019_Apr_29_1302,2AFC_task,59.955323691246534,
stimuli/rgb_scene000113_render000000.png,stimuli/rgb_scene000113_render000003.png,0,111,111,149,"[0, 1]",right,1,253,25,f,y,y,2019_Apr_29_1302,2AFC_task,59.955323691246534,
stimuli/rgb_scene000113_render000001.png,stimuli/rgb_scene000113_render000004.png,0,112,112,155,"[1, 0]",left,1,253,25,f,y,y,2019_Apr_29_1302,2AFC_task,59.955323691246534,
stimuli/rgb_scene000004_render000001.png,stimuli/rgb_scene000004_render000006.png,0,113,113,10,"[0, 1]",right,1,253,25,f,y,y,2019_Apr_29_1302,2AFC_task,59.955323691246534,
stimuli/rgb_scene000090_render000001.png,stimuli/rgb_scene000090_render000006.png,0,114,114,73,"[0, 1]",right,1,253,25,f,y,y,2019_Apr_29_1302,2AFC_task,59.955323691246534,
stimuli/rgb_scene000005_render000003.png,stimuli/rgb_scene000005_render000006.png,0,115,115,38,"[1, 0]",right,0,253,25,f,y,y,2019_Apr_29_1302,2AFC_task,59.955323691246534,
stimuli/rgb_scene000113_render000000.png,stimuli/rgb_scene000113_render000005.png,0,116,116,151,"[1, 0]",left,1,253,25,f,y,y,2019_Apr_29_1302,2AFC_task,59.955323691246534,
stimuli/rgb_scene000195_render000001.png,stimuli/rgb_scene000195_render000004.png,0,117,117,197,"[0, 1]",right,1,253,25,f,y,y,2019_Apr_29_1302,2AFC_task,59.955323691246534,
stimuli/rgb_scene000004_render000000.png,stimuli/rgb_scene000004_render000003.png,0,118,118,2,"[1, 0]",left,1,253,25,f,y,y,2019_Apr_29_1302,2AFC_task,59.955323691246534,
stimuli/rgb_scene000096_render000003.png,stimuli/rgb_scene000096_render000005.png,0,119,119,121,"[1, 0]",left,1,253,25,f,y,y,2019_Apr_29_1302,2AFC_task,59.955323691246534,
stimuli/rgb_scene000095_render000005.png,stimuli/rgb_scene000095_render000006.png,0,120,120,104,"[1, 0]",left,1,253,25,f,y,y,2019_Apr_29_1302,2AFC_task,59.955323691246534,
stimuli/rgb_scene000012_render000000.png,stimuli/rgb_scene000012_render000001.png,0,121,121,42,"[1, 0]",left,1,253,25,f,y,y,2019_Apr_29_1302,2AFC_task,59.955323691246534,
stimuli/rgb_scene000012_render000002.png,stimuli/rgb_scene000012_render000005.png,0,122,122,55,"[1, 0]",left,1,253,25,f,y,y,2019_Apr_29_1302,2AFC_task,59.955323691246534,
stimuli/rgb_scene000096_render000002.png,stimuli/rgb_scene000096_render000006.png,0,123,123,119,"[0, 1]",right,1,253,25,f,y,y,2019_Apr_29_1302,2AFC_task,59.955323691246534,
stimuli/rgb_scene000012_render000004.png,stimuli/rgb_scene000012_render000006.png,0,124,124,61,"[1, 0]",left,1,253,25,f,y,y,2019_Apr_29_1302,2AFC_task,59.955323691246534,
stimuli/rgb_scene000102_render000001.png,stimuli/rgb_scene000102_render000004.png,0,125,125,134,"[0, 1]",right,1,253,25,f,y,y,2019_Apr_29_1302,2AFC_task,59.955323691246534,
stimuli/rgb_scene000095_render000002.png,stimuli/rgb_scene000095_render000005.png,0,126,126,97,"[0, 1]",right,1,253,25,f,y,y,2019_Apr_29_1302,2AFC_task,59.955323691246534,
stimuli/rgb_scene000004_render000002.png,stimuli/rgb_scene000004_render000005.png,0,127,127,13,"[1, 0]",left,1,253,25,f,y,y,2019_Apr_29_1302,2AFC_task,59.955323691246534,
stimuli/rgb_scene000195_render000003.png,stimuli/rgb_scene000195_render000006.png,0,128,128,206,"[0, 1]",left,0,253,25,f,y,y,2019_Apr_29_1302,2AFC_task,59.955323691246534,
stimuli/rgb_scene000096_render000000.png,stimuli/rgb_scene000096_render000005.png,0,129,129,109,"[1, 0]",left,1,253,25,f,y,y,2019_Apr_29_1302,2AFC_task,59.955323691246534,
stimuli/rgb_scene000096_render000000.png,stimuli/rgb_scene000096_render000006.png,0,130,130,110,"[1, 0]",left,1,253,25,f,y,y,2019_Apr_29_1302,2AFC_task,59.955323691246534,
stimuli/rgb_scene000012_render000003.png,stimuli/rgb_scene000012_render000005.png,0,131,131,58,"[1, 0]",left,1,253,25,f,y,y,2019_Apr_29_1302,2AFC_task,59.955323691246534,
stimuli/rgb_scene000090_render000000.png,stimuli/rgb_scene000090_render000004.png,0,132,132,66,"[1, 0]",right,0,253,25,f,y,y,2019_Apr_29_1302,2AFC_task,59.955323691246534,
stimuli/rgb_scene000005_render000002.png,stimuli/rgb_scene000005_render000004.png,0,133,133,33,"[1, 0]",right,0,253,25,f,y,y,2019_Apr_29_1302,2AFC_task,59.955323691246534,
stimuli/rgb_scene000090_render000002.png,stimuli/rgb_scene000090_render000006.png,0,134,134,77,"[1, 0]",right,0,253,25,f,y,y,2019_Apr_29_1302,2AFC_task,59.955323691246534,
stimuli/rgb_scene000012_render000005.png,stimuli/rgb_scene000012_render000006.png,0,135,135,62,"[1, 0]",left,1,253,25,f,y,y,2019_Apr_29_1302,2AFC_task,59.955323691246534,
stimuli/rgb_scene000096_render000000.png,stimuli/rgb_scene000096_render000003.png,0,136,136,107,"[1, 0]",left,1,253,25,f,y,y,2019_Apr_29_1302,2AFC_task,59.955323691246534,
stimuli/rgb_scene000090_render000003.png,stimuli/rgb_scene000090_render000005.png,0,137,137,79,"[0, 1]",left,0,253,25,f,y,y,2019_Apr_29_1302,2AFC_task,59.955323691246534,
stimuli/rgb_scene000090_render000004.png,stimuli/rgb_scene000090_render000006.png,0,138,138,82,"[0, 1]",left,0,253,25,f,y,y,2019_Apr_29_1302,2AFC_task,59.955323691246534,
stimuli/rgb_scene000146_render000002.png,stimuli/rgb_scene000146_render000004.png,0,139,139,180,"[1, 0]",left,1,253,25,f,y,y,2019_Apr_29_1302,2AFC_task,59.955323691246534,
stimuli/rgb_scene000113_render000001.png,stimuli/rgb_scene000113_render000005.png,0,140,140,156,"[1, 0]",left,1,253,25,f,y,y,2019_Apr_29_1302,2AFC_task,59.955323691246534,
stimuli/rgb_scene000004_render000002.png,stimuli/rgb_scene000004_render000004.png,0,141,141,12,"[0, 1]",right,1,253,25,f,y,y,2019_Apr_29_1302,2AFC_task,59.955323691246534,
stimuli/rgb_scene000102_render000000.png,stimuli/rgb_scene000102_render000002.png,0,142,142,127,"[1, 0]",left,1,253,25,f,y,y,2019_Apr_29_1302,2AFC_task,59.955323691246534,
stimuli/rgb_scene000113_render000003.png,stimuli/rgb_scene000113_render000004.png,0,143,143,162,"[0, 1]",right,1,253,25,f,y,y,2019_Apr_29_1302,2AFC_task,59.955323691246534,
stimuli/rgb_scene000096_render000002.png,stimuli/rgb_scene000096_render000004.png,0,144,144,117,"[0, 1]",right,1,253,25,f,y,y,2019_Apr_29_1302,2AFC_task,59.955323691246534,
stimuli/rgb_scene000095_render000002.png,stimuli/rgb_scene000095_render000004.png,0,145,145,96,"[0, 1]",right,1,253,25,f,y,y,2019_Apr_29_1302,2AFC_task,59.955323691246534,
stimuli/rgb_scene000146_render000002.png,stimuli/rgb_scene000146_render000005.png,0,146,146,181,"[1, 0]",left,1,253,25,f,y,y,2019_Apr_29_1302,2AFC_task,59.955323691246534,
stimuli/rgb_scene000102_render000002.png,stimuli/rgb_scene000102_render000003.png,0,147,147,137,"[1, 0]",left,1,253,25,f,y,y,2019_Apr_29_1302,2AFC_task,59.955323691246534,
stimuli/rgb_scene000090_render000000.png,stimuli/rgb_scene000090_render000002.png,0,148,148,64,"[1, 0]",right,0,253,25,f,y,y,2019_Apr_29_1302,2AFC_task,59.955323691246534,
stimuli/rgb_scene000096_render000002.png,stimuli/rgb_scene000096_render000003.png,0,149,149,116,"[1, 0]",left,1,253,25,f,y,y,2019_Apr_29_1302,2AFC_task,59.955323691246534,
stimuli/rgb_scene000004_render000003.png,stimuli/rgb_scene000004_render000004.png,0,150,150,15,"[1, 0]",left,1,253,25,f,y,y,2019_Apr_29_1302,2AFC_task,59.955323691246534,
stimuli/rgb_scene000012_render000002.png,stimuli/rgb_scene000012_render000003.png,0,151,151,53,"[1, 0]",left,1,253,25,f,y,y,2019_Apr_29_1302,2AFC_task,59.955323691246534,
stimuli/rgb_scene000195_render000002.png,stimuli/rgb_scene000195_render000005.png,0,152,152,202,"[1, 0]",right,0,253,25,f,y,y,2019_Apr_29_1302,2AFC_task,59.955323691246534,
stimuli/rgb_scene000195_render000000.png,stimuli/rgb_scene000195_render000001.png,0,153,153,189,"[1, 0]",left,1,253,25,f,y,y,2019_Apr_29_1302,2AFC_task,59.955323691246534,
stimuli/rgb_scene000113_render000001.png,stimuli/rgb_scene000113_render000006.png,0,154,154,157,"[1, 0]",left,1,253,25,f,y,y,2019_Apr_29_1302,2AFC_task,59.955323691246534,
stimuli/rgb_scene000012_render000002.png,stimuli/rgb_scene000012_render000006.png,0,155,155,56,"[1, 0]",left,1,253,25,f,y,y,2019_Apr_29_1302,2AFC_task,59.955323691246534,
stimuli/rgb_scene000005_render000005.png,stimuli/rgb_scene000005_render000006.png,0,156,156,41,"[0, 1]",right,1,253,25,f,y,y,2019_Apr_29_1302,2AFC_task,59.955323691246534,
stimuli/rgb_scene000096_render000000.png,stimuli/rgb_scene000096_render000001.png,0,157,157,105,"[1, 0]",left,1,253,25,f,y,y,2019_Apr_29_1302,2AFC_task,59.955323691246534,
stimuli/rgb_scene000146_render000000.png,stimuli/rgb_scene000146_render000003.png,0,158,158,170,"[0, 1]",right,1,253,25,f,y,y,2019_Apr_29_1302,2AFC_task,59.955323691246534,
stimuli/rgb_scene000113_render000005.png,stimuli/rgb_scene000113_render000006.png,0,159,159,167,"[1, 0]",right,0,253,25,f,y,y,2019_Apr_29_1302,2AFC_task,59.955323691246534,
stimuli/rgb_scene000102_render000000.png,stimuli/rgb_scene000102_render000005.png,0,160,160,130,"[1, 0]",left,1,253,25,f,y,y,2019_Apr_29_1302,2AFC_task,59.955323691246534,
stimuli/rgb_scene000095_render000003.png,stimuli/rgb_scene000095_render000004.png,0,161,161,99,"[0, 1]",right,1,253,25,f,y,y,2019_Apr_29_1302,2AFC_task,59.955323691246534,
stimuli/rgb_scene000090_render000000.png,stimuli/rgb_scene000090_render000006.png,0,162,162,68,"[1, 0]",right,0,253,25,f,y,y,2019_Apr_29_1302,2AFC_task,59.955323691246534,
stimuli/rgb_scene000146_render000000.png,stimuli/rgb_scene000146_render000004.png,0,163,163,171,"[0, 1]",right,1,253,25,f,y,y,2019_Apr_29_1302,2AFC_task,59.955323691246534,
stimuli/rgb_scene000113_render000002.png,stimuli/rgb_scene000113_render000004.png,0,164,164,159,"[0, 1]",right,1,253,25,f,y,y,2019_Apr_29_1302,2AFC_task,59.955323691246534,
stimuli/rgb_scene000102_render000002.png,stimuli/rgb_scene000102_render000005.png,0,165,165,139,"[1, 0]",left,1,253,25,f,y,y,2019_Apr_29_1302,2AFC_task,59.955323691246534,
stimuli/rgb_scene000102_render000001.png,stimuli/rgb_scene000102_render000006.png,0,166,166,136,"[1, 0]",left,1,253,25,f,y,y,2019_Apr_29_1302,2AFC_task,59.955323691246534,
stimuli/rgb_scene000146_render000005.png,stimuli/rgb_scene000146_render000006.png,0,167,167,188,"[0, 1]",right,1,253,25,f,y,y,2019_Apr_29_1302,2AFC_task,59.955323691246534,
stimuli/rgb_scene000102_render000002.png,stimuli/rgb_scene000102_render000006.png,0,168,168,140,"[0, 1]",right,1,253,25,f,y,y,2019_Apr_29_1302,2AFC_task,59.955323691246534,
stimuli/rgb_scene000095_render000001.png,stimuli/rgb_scene000095_render000004.png,0,169,169,92,"[0, 1]",right,1,253,25,f,y,y,2019_Apr_29_1302,2AFC_task,59.955323691246534,
stimuli/rgb_scene000096_render000005.png,stimuli/rgb_scene000096_render000006.png,0,170,170,125,"[0, 1]",right,1,253,25,f,y,y,2019_Apr_29_1302,2AFC_task,59.955323691246534,
stimuli/rgb_scene000095_render000001.png,stimuli/rgb_scene000095_render000005.png,0,171,171,93,"[1, 0]",left,1,253,25,f,y,y,2019_Apr_29_1302,2AFC_task,59.955323691246534,
stimuli/rgb_scene000095_render000000.png,stimuli/rgb_scene000095_render000002.png,0,172,172,85,"[0, 1]",right,1,253,25,f,y,y,2019_Apr_29_1302,2AFC_task,59.955323691246534,
stimuli/rgb_scene000113_render000002.png,stimuli/rgb_scene000113_render000003.png,0,173,173,158,"[0, 1]",right,1,253,25,f,y,y,2019_Apr_29_1302,2AFC_task,59.955323691246534,
stimuli/rgb_scene000090_render000002.png,stimuli/rgb_scene000090_render000003.png,0,174,174,74,"[1, 0]",right,0,253,25,f,y,y,2019_Apr_29_1302,2AFC_task,59.955323691246534,
stimuli/rgb_scene000012_render000000.png,stimuli/rgb_scene000012_render000005.png,0,175,175,46,"[1, 0]",left,1,253,25,f,y,y,2019_Apr_29_1302,2AFC_task,59.955323691246534,
stimuli/rgb_scene000005_render000001.png,stimuli/rgb_scene000005_render000005.png,0,176,176,30,"[1, 0]",right,0,253,25,f,y,y,2019_Apr_29_1302,2AFC_task,59.955323691246534,
stimuli/rgb_scene000146_render000004.png,stimuli/rgb_scene000146_render000005.png,0,177,177,186,"[1, 0]",left,1,253,25,f,y,y,2019_Apr_29_1302,2AFC_task,59.955323691246534,
stimuli/rgb_scene000102_render000003.png,stimuli/rgb_scene000102_render000005.png,0,178,178,142,"[1, 0]",left,1,253,25,f,y,y,2019_Apr_29_1302,2AFC_task,59.955323691246534,
stimuli/rgb_scene000195_render000003.png,stimuli/rgb_scene000195_render000005.png,0,179,179,205,"[0, 1]",right,1,253,25,f,y,y,2019_Apr_29_1302,2AFC_task,59.955323691246534,
stimuli/rgb_scene000005_render000000.png,stimuli/rgb_scene000005_render000003.png,0,180,180,23,"[1, 0]",right,0,253,25,f,y,y,2019_Apr_29_1302,2AFC_task,59.955323691246534,
stimuli/rgb_scene000096_render000000.png,stimuli/rgb_scene000096_render000002.png,0,181,181,106,"[0, 1]",right,1,253,25,f,y,y,2019_Apr_29_1302,2AFC_task,59.955323691246534,
stimuli/rgb_scene000005_render000004.png,stimuli/rgb_scene000005_render000006.png,0,182,182,40,"[0, 1]",left,0,253,25,f,y,y,2019_Apr_29_1302,2AFC_task,59.955323691246534,
stimuli/rgb_scene000095_render000001.png,stimuli/rgb_scene000095_render000006.png,0,183,183,94,"[1, 0]",left,1,253,25,f,y,y,2019_Apr_29_1302,2AFC_task,59.955323691246534,
stimuli/rgb_scene000195_render000002.png,stimuli/rgb_scene000195_render000003.png,0,184,184,200,"[1, 0]",left,1,253,25,f,y,y,2019_Apr_29_1302,2AFC_task,59.955323691246534,
stimuli/rgb_scene000005_render000003.png,stimuli/rgb_scene000005_render000005.png,0,185,185,37,"[0, 1]",left,0,253,25,f,y,y,2019_Apr_29_1302,2AFC_task,59.955323691246534,
stimuli/rgb_scene000095_render000004.png,stimuli/rgb_scene000095_render000006.png,0,186,186,103,"[1, 0]",left,1,253,25,f,y,y,2019_Apr_29_1302,2AFC_task,59.955323691246534,
stimuli/rgb_scene000005_render000001.png,stimuli/rgb_scene000005_render000006.png,0,187,187,31,"[1, 0]",right,0,253,25,f,y,y,2019_Apr_29_1302,2AFC_task,59.955323691246534,
stimuli/rgb_scene000113_render000001.png,stimuli/rgb_scene000113_render000003.png,0,188,188,154,"[1, 0]",left,1,253,25,f,y,y,2019_Apr_29_1302,2AFC_task,59.955323691246534,
stimuli/rgb_scene000113_render000000.png,stimuli/rgb_scene000113_render000001.png,0,189,189,147,"[1, 0]",left,1,253,25,f,y,y,2019_Apr_29_1302,2AFC_task,59.955323691246534,
stimuli/rgb_scene000095_render000000.png,stimuli/rgb_scene000095_render000004.png,0,190,190,87,"[0, 1]",right,1,253,25,f,y,y,2019_Apr_29_1302,2AFC_task,59.955323691246534,
stimuli/rgb_scene000004_render000000.png,stimuli/rgb_scene000004_render000001.png,0,191,191,0,"[0, 1]",right,1,253,25,f,y,y,2019_Apr_29_1302,2AFC_task,59.955323691246534,
stimuli/rgb_scene000113_render000002.png,stimuli/rgb_scene000113_render000006.png,0,192,192,161,"[0, 1]",right,1,253,25,f,y,y,2019_Apr_29_1302,2AFC_task,59.955323691246534,
stimuli/rgb_scene000195_render000003.png,stimuli/rgb_scene000195_render000004.png,0,193,193,204,"[0, 1]",right,1,253,25,f,y,y,2019_Apr_29_1302,2AFC_task,59.955323691246534,
stimuli/rgb_scene000146_render000003.png,stimuli/rgb_scene000146_render000006.png,0,194,194,185,"[1, 0]",left,1,253,25,f,y,y,2019_Apr_29_1302,2AFC_task,59.955323691246534,
stimuli/rgb_scene000096_render000001.png,stimuli/rgb_scene000096_render000004.png,0,195,195,113,"[0, 1]",right,1,253,25,f,y,y,2019_Apr_29_1302,2AFC_task,59.955323691246534,
stimuli/rgb_scene000005_render000000.png,stimuli/rgb_scene000005_render000004.png,0,196,196,24,"[1, 0]",right,0,253,25,f,y,y,2019_Apr_29_1302,2AFC_task,59.955323691246534,
stimuli/rgb_scene000004_render000000.png,stimuli/rgb_scene000004_render000002.png,0,197,197,1,"[0, 1]",right,1,253,25,f,y,y,2019_Apr_29_1302,2AFC_task,59.955323691246534,
stimuli/rgb_scene000195_render000001.png,stimuli/rgb_scene000195_render000003.png,0,198,198,196,"[0, 1]",left,0,253,25,f,y,y,2019_Apr_29_1302,2AFC_task,59.955323691246534,
stimuli/rgb_scene000195_render000001.png,stimuli/rgb_scene000195_render000006.png,0,199,199,199,"[1, 0]",right,0,253,25,f,y,y,2019_Apr_29_1302,2AFC_task,59.955323691246534,
stimuli/rgb_scene000090_render000004.png,stimuli/rgb_scene000090_render000005.png,0,200,200,81,"[1, 0]",right,0,253,25,f,y,y,2019_Apr_29_1302,2AFC_task,59.955323691246534,
stimuli/rgb_scene000146_render000001.png,stimuli/rgb_scene000146_render000003.png,0,201,201,175,"[1, 0]",right,0,253,25,f,y,y,2019_Apr_29_1302,2AFC_task,59.955323691246534,
stimuli/rgb_scene000005_render000001.png,stimuli/rgb_scene000005_render000003.png,0,202,202,28,"[0, 1]",left,0,253,25,f,y,y,2019_Apr_29_1302,2AFC_task,59.955323691246534,
stimuli/rgb_scene000095_render000003.png,stimuli/rgb_scene000095_render000006.png,0,203,203,101,"[1, 0]",left,1,253,25,f,y,y,2019_Apr_29_1302,2AFC_task,59.955323691246534,
stimuli/rgb_scene000004_render000002.png,stimuli/rgb_scene000004_render000006.png,0,204,204,14,"[1, 0]",left,1,253,25,f,y,y,2019_Apr_29_1302,2AFC_task,59.955323691246534,
stimuli/rgb_scene000095_render000000.png,stimuli/rgb_scene000095_render000001.png,0,205,205,84,"[1, 0]",left,1,253,25,f,y,y,2019_Apr_29_1302,2AFC_task,59.955323691246534,
stimuli/rgb_scene000195_render000004.png,stimuli/rgb_scene000195_render000005.png,0,206,206,207,"[1, 0]",right,0,253,25,f,y,y,2019_Apr_29_1302,2AFC_task,59.955323691246534,
stimuli/rgb_scene000090_render000005.png,stimuli/rgb_scene000090_render000006.png,0,207,207,83,"[0, 1]",left,0,253,25,f,y,y,2019_Apr_29_1302,2AFC_task,59.955323691246534,
stimuli/rgb_scene000004_render000001.png,stimuli/rgb_scene000004_render000003.png,0,208,208,7,"[1, 0]",left,1,253,25,f,y,y,2019_Apr_29_1302,2AFC_task,59.955323691246534,
stimuli/rgb_scene000005_render000001.png,stimuli/rgb_scene000005_render000002.png,0,209,209,27,"[1, 0]",left,1,253,25,f,y,y,2019_Apr_29_1302,2AFC_task,59.955323691246534,
stimuli/rgb_scene000113_render000004.png,stimuli/rgb_scene000113_render000005.png,1,0,210,165,"[1, 0]",left,1,253,25,f,y,y,2019_Apr_29_1302,2AFC_task,59.955323691246534,
stimuli/rgb_scene000004_render000001.png,stimuli/rgb_scene000004_render000006.png,1,1,211,10,"[1, 0]",left,1,253,25,f,y,y,2019_Apr_29_1302,2AFC_task,59.955323691246534,
stimuli/rgb_scene000005_render000002.png,stimuli/rgb_scene000005_render000004.png,1,2,212,33,"[1, 0]",right,0,253,25,f,y,y,2019_Apr_29_1302,2AFC_task,59.955323691246534,
stimuli/rgb_scene000090_render000000.png,stimuli/rgb_scene000090_render000004.png,1,3,213,66,"[0, 1]",right,1,253,25,f,y,y,2019_Apr_29_1302,2AFC_task,59.955323691246534,
stimuli/rgb_scene000012_render000004.png,stimuli/rgb_scene000012_render000006.png,1,4,214,61,"[0, 1]",right,1,253,25,f,y,y,2019_Apr_29_1302,2AFC_task,59.955323691246534,
stimuli/rgb_scene000090_render000002.png,stimuli/rgb_scene000090_render000006.png,1,5,215,77,"[0, 1]",left,0,253,25,f,y,y,2019_Apr_29_1302,2AFC_task,59.955323691246534,
stimuli/rgb_scene000113_render000000.png,stimuli/rgb_scene000113_render000005.png,1,6,216,151,"[1, 0]",left,1,253,25,f,y,y,2019_Apr_29_1302,2AFC_task,59.955323691246534,
stimuli/rgb_scene000004_render000004.png,stimuli/rgb_scene000004_render000005.png,1,7,217,18,"[1, 0]",left,1,253,25,f,y,y,2019_Apr_29_1302,2AFC_task,59.955323691246534,
stimuli/rgb_scene000095_render000003.png,stimuli/rgb_scene000095_render000005.png,1,8,218,100,"[0, 1]",right,1,253,25,f,y,y,2019_Apr_29_1302,2AFC_task,59.955323691246534,
stimuli/rgb_scene000090_render000005.png,stimuli/rgb_scene000090_render000006.png,1,9,219,83,"[0, 1]",right,1,253,25,f,y,y,2019_Apr_29_1302,2AFC_task,59.955323691246534,
stimuli/rgb_scene000005_render000003.png,stimuli/rgb_scene000005_render000004.png,1,10,220,36,"[0, 1]",left,0,253,25,f,y,y,2019_Apr_29_1302,2AFC_task,59.955323691246534,
stimuli/rgb_scene000096_render000001.png,stimuli/rgb_scene000096_render000003.png,1,11,221,112,"[0, 1]",right,1,253,25,f,y,y,2019_Apr_29_1302,2AFC_task,59.955323691246534,
stimuli/rgb_scene000095_render000003.png,stimuli/rgb_scene000095_render000006.png,1,12,222,101,"[1, 0]",left,1,253,25,f,y,y,2019_Apr_29_1302,2AFC_task,59.955323691246534,
stimuli/rgb_scene000095_render000004.png,stimuli/rgb_scene000095_render000005.png,1,13,223,102,"[1, 0]",left,1,253,25,f,y,y,2019_Apr_29_1302,2AFC_task,59.955323691246534,
stimuli/rgb_scene000096_render000004.png,stimuli/rgb_scene000096_render000005.png,1,14,224,123,"[0, 1]",right,1,253,25,f,y,y,2019_Apr_29_1302,2AFC_task,59.955323691246534,
stimuli/rgb_scene000095_render000001.png,stimuli/rgb_scene000095_render000006.png,1,15,225,94,"[1, 0]",left,1,253,25,f,y,y,2019_Apr_29_1302,2AFC_task,59.955323691246534,
stimuli/rgb_scene000012_render000003.png,stimuli/rgb_scene000012_render000004.png,1,16,226,57,"[1, 0]",left,1,253,25,f,y,y,2019_Apr_29_1302,2AFC_task,59.955323691246534,
stimuli/rgb_scene000195_render000000.png,stimuli/rgb_scene000195_render000005.png,1,17,227,193,"[0, 1]",right,1,253,25,f,y,y,2019_Apr_29_1302,2AFC_task,59.955323691246534,
stimuli/rgb_scene000005_render000002.png,stimuli/rgb_scene000005_render000006.png,1,18,228,35,"[1, 0]",right,0,253,25,f,y,y,2019_Apr_29_1302,2AFC_task,59.955323691246534,
stimuli/rgb_scene000012_render000002.png,stimuli/rgb_scene000012_render000004.png,1,19,229,54,"[1, 0]",left,1,253,25,f,y,y,2019_Apr_29_1302,2AFC_task,59.955323691246534,
stimuli/rgb_scene000095_render000000.png,stimuli/rgb_scene000095_render000003.png,1,20,230,86,"[0, 1]",right,1,253,25,f,y,y,2019_Apr_29_1302,2AFC_task,59.955323691246534,
stimuli/rgb_scene000004_render000000.png,stimuli/rgb_scene000004_render000006.png,1,21,231,5,"[1, 0]",left,1,253,25,f,y,y,2019_Apr_29_1302,2AFC_task,59.955323691246534,
stimuli/rgb_scene000113_render000000.png,stimuli/rgb_scene000113_render000002.png,1,22,232,148,"[1, 0]",left,1,253,25,f,y,y,2019_Apr_29_1302,2AFC_task,59.955323691246534,
stimuli/rgb_scene000012_render000001.png,stimuli/rgb_scene000012_render000002.png,1,23,233,48,"[1, 0]",left,1,253,25,f,y,y,2019_Apr_29_1302,2AFC_task,59.955323691246534,
stimuli/rgb_scene000005_render000001.png,stimuli/rgb_scene000005_render000002.png,1,24,234,27,"[0, 1]",right,1,253,25,f,y,y,2019_Apr_29_1302,2AFC_task,59.955323691246534,
stimuli/rgb_scene000095_render000002.png,stimuli/rgb_scene000095_render000005.png,1,25,235,97,"[1, 0]",left,1,253,25,f,y,y,2019_Apr_29_1302,2AFC_task,59.955323691246534,
stimuli/rgb_scene000113_render000003.png,stimuli/rgb_scene000113_render000006.png,1,26,236,164,"[1, 0]",left,1,253,25,f,y,y,2019_Apr_29_1302,2AFC_task,59.955323691246534,
stimuli/rgb_scene000146_render000001.png,stimuli/rgb_scene000146_render000002.png,1,27,237,174,"[0, 1]",right,1,253,25,f,y,y,2019_Apr_29_1302,2AFC_task,59.955323691246534,
stimuli/rgb_scene000113_render000002.png,stimuli/rgb_scene000113_render000003.png,1,28,238,158,"[1, 0]",left,1,253,25,f,y,y,2019_Apr_29_1302,2AFC_task,59.955323691246534,
stimuli/rgb_scene000012_render000005.png,stimuli/rgb_scene000012_render000006.png,1,29,239,62,"[0, 1]",right,1,253,25,f,y,y,2019_Apr_29_1302,2AFC_task,59.955323691246534,
stimuli/rgb_scene000113_render000004.png,stimuli/rgb_scene000113_render000006.png,1,30,240,166,"[0, 1]",right,1,253,25,f,y,y,2019_Apr_29_1302,2AFC_task,59.955323691246534,
stimuli/rgb_scene000146_render000003.png,stimuli/rgb_scene000146_render000004.png,1,31,241,183,"[0, 1]",right,1,253,25,f,y,y,2019_Apr_29_1302,2AFC_task,59.955323691246534,
stimuli/rgb_scene000096_render000004.png,stimuli/rgb_scene000096_render000006.png,1,32,242,124,"[1, 0]",left,1,253,25,f,y,y,2019_Apr_29_1302,2AFC_task,59.955323691246534,
stimuli/rgb_scene000005_render000004.png,stimuli/rgb_scene000005_render000005.png,1,33,243,39,"[1, 0]",left,1,253,25,f,y,y,2019_Apr_29_1302,2AFC_task,59.955323691246534,
stimuli/rgb_scene000004_render000003.png,stimuli/rgb_scene000004_render000005.png,1,34,244,16,"[0, 1]",right,1,253,25,f,y,y,2019_Apr_29_1302,2AFC_task,59.955323691246534,
stimuli/rgb_scene000146_render000002.png,stimuli/rgb_scene000146_render000006.png,1,35,245,182,"[0, 1]",right,1,253,25,f,y,y,2019_Apr_29_1302,2AFC_task,59.955323691246534,
stimuli/rgb_scene000195_render000000.png,stimuli/rgb_scene000195_render000003.png,1,36,246,191,"[1, 0]",right,0,253,25,f,y,y,2019_Apr_29_1302,2AFC_task,59.955323691246534,
stimuli/rgb_scene000195_render000002.png,stimuli/rgb_scene000195_render000003.png,1,37,247,200,"[1, 0]",right,0,253,25,f,y,y,2019_Apr_29_1302,2AFC_task,59.955323691246534,
stimuli/rgb_scene000146_render000001.png,stimuli/rgb_scene000146_render000003.png,1,38,248,175,"[0, 1]",right,1,253,25,f,y,y,2019_Apr_29_1302,2AFC_task,59.955323691246534,
stimuli/rgb_scene000102_render000000.png,stimuli/rgb_scene000102_render000006.png,1,39,249,131,"[1, 0]",left,1,253,25,f,y,y,2019_Apr_29_1302,2AFC_task,59.955323691246534,
stimuli/rgb_scene000012_render000002.png,stimuli/rgb_scene000012_render000006.png,1,40,250,56,"[0, 1]",right,1,253,25,f,y,y,2019_Apr_29_1302,2AFC_task,59.955323691246534,
stimuli/rgb_scene000005_render000000.png,stimuli/rgb_scene000005_render000006.png,1,41,251,26,"[1, 0]",left,1,253,25,f,y,y,2019_Apr_29_1302,2AFC_task,59.955323691246534,
stimuli/rgb_scene000004_render000002.png,stimuli/rgb_scene000004_render000006.png,1,42,252,14,"[1, 0]",left,1,253,25,f,y,y,2019_Apr_29_1302,2AFC_task,59.955323691246534,
stimuli/rgb_scene000004_render000002.png,stimuli/rgb_scene000004_render000004.png,1,43,253,12,"[1, 0]",left,1,253,25,f,y,y,2019_Apr_29_1302,2AFC_task,59.955323691246534,
stimuli/rgb_scene000096_render000003.png,stimuli/rgb_scene000096_render000004.png,1,44,254,120,"[0, 1]",right,1,253,25,f,y,y,2019_Apr_29_1302,2AFC_task,59.955323691246534,
stimuli/rgb_scene000005_render000001.png,stimuli/rgb_scene000005_render000006.png,1,45,255,31,"[1, 0]",right,0,253,25,f,y,y,2019_Apr_29_1302,2AFC_task,59.955323691246534,
stimuli/rgb_scene000004_render000001.png,stimuli/rgb_scene000004_render000005.png,1,46,256,9,"[1, 0]",left,1,253,25,f,y,y,2019_Apr_29_1302,2AFC_task,59.955323691246534,
stimuli/rgb_scene000095_render000000.png,stimuli/rgb_scene000095_render000006.png,1,47,257,89,"[1, 0]",left,1,253,25,f,y,y,2019_Apr_29_1302,2AFC_task,59.955323691246534,
stimuli/rgb_scene000113_render000005.png,stimuli/rgb_scene000113_render000006.png,1,48,258,167,"[1, 0]",left,1,253,25,f,y,y,2019_Apr_29_1302,2AFC_task,59.955323691246534,
stimuli/rgb_scene000004_render000002.png,stimuli/rgb_scene000004_render000003.png,1,49,259,11,"[1, 0]",left,1,253,25,f,y,y,2019_Apr_29_1302,2AFC_task,59.955323691246534,
stimuli/rgb_scene000146_render000000.png,stimuli/rgb_scene000146_render000005.png,1,50,260,172,"[1, 0]",left,1,253,25,f,y,y,2019_Apr_29_1302,2AFC_task,59.955323691246534,
stimuli/rgb_scene000195_render000002.png,stimuli/rgb_scene000195_render000005.png,1,51,261,202,"[1, 0]",left,1,253,25,f,y,y,2019_Apr_29_1302,2AFC_task,59.955323691246534,
stimuli/rgb_scene000096_render000002.png,stimuli/rgb_scene000096_render000004.png,1,52,262,117,"[1, 0]",left,1,253,25,f,y,y,2019_Apr_29_1302,2AFC_task,59.955323691246534,
stimuli/rgb_scene000146_render000002.png,stimuli/rgb_scene000146_render000005.png,1,53,263,181,"[1, 0]",left,1,253,25,f,y,y,2019_Apr_29_1302,2AFC_task,59.955323691246534,
stimuli/rgb_scene000146_render000003.png,stimuli/rgb_scene000146_render000006.png,1,54,264,185,"[1, 0]",left,1,253,25,f,y,y,2019_Apr_29_1302,2AFC_task,59.955323691246534,
stimuli/rgb_scene000005_render000000.png,stimuli/rgb_scene000005_render000001.png,1,55,265,21,"[1, 0]",right,0,253,25,f,y,y,2019_Apr_29_1302,2AFC_task,59.955323691246534,
stimuli/rgb_scene000005_render000000.png,stimuli/rgb_scene000005_render000004.png,1,56,266,24,"[0, 1]",right,1,253,25,f,y,y,2019_Apr_29_1302,2AFC_task,59.955323691246534,
stimuli/rgb_scene000102_render000004.png,stimuli/rgb_scene000102_render000005.png,1,57,267,144,"[1, 0]",left,1,253,25,f,y,y,2019_Apr_29_1302,2AFC_task,59.955323691246534,
stimuli/rgb_scene000004_render000000.png,stimuli/rgb_scene000004_render000003.png,1,58,268,2,"[0, 1]",right,1,253,25,f,y,y,2019_Apr_29_1302,2AFC_task,59.955323691246534,
stimuli/rgb_scene000195_render000003.png,stimuli/rgb_scene000195_render000005.png,1,59,269,205,"[0, 1]",right,1,253,25,f,y,y,2019_Apr_29_1302,2AFC_task,59.955323691246534,
stimuli/rgb_scene000113_render000002.png,stimuli/rgb_scene000113_render000005.png,1,60,270,160,"[1, 0]",left,1,253,25,f,y,y,2019_Apr_29_1302,2AFC_task,59.955323691246534,
stimuli/rgb_scene000146_render000000.png,stimuli/rgb_scene000146_render000001.png,1,61,271,168,"[0, 1]",right,1,253,25,f,y,y,2019_Apr_29_1302,2AFC_task,59.955323691246534,
stimuli/rgb_scene000102_render000000.png,stimuli/rgb_scene000102_render000004.png,1,62,272,129,"[1, 0]",left,1,253,25,f,y,y,2019_Apr_29_1302,2AFC_task,59.955323691246534,
stimuli/rgb_scene000102_render000003.png,stimuli/rgb_scene000102_render000006.png,1,63,273,143,"[1, 0]",left,1,253,25,f,y,y,2019_Apr_29_1302,2AFC_task,59.955323691246534,
stimuli/rgb_scene000004_render000000.png,stimuli/rgb_scene000004_render000001.png,1,64,274,0,"[0, 1]",right,1,253,25,f,y,y,2019_Apr_29_1302,2AFC_task,59.955323691246534,
stimuli/rgb_scene000090_render000003.png,stimuli/rgb_scene000090_render000005.png,1,65,275,79,"[0, 1]",right,1,253,25,f,y,y,2019_Apr_29_1302,2AFC_task,59.955323691246534,
stimuli/rgb_scene000004_render000001.png,stimuli/rgb_scene000004_render000003.png,1,66,276,7,"[1, 0]",left,1,253,25,f,y,y,2019_Apr_29_1302,2AFC_task,59.955323691246534,
stimuli/rgb_scene000146_render000004.png,stimuli/rgb_scene000146_render000005.png,1,67,277,186,"[0, 1]",right,1,253,25,f,y,y,2019_Apr_29_1302,2AFC_task,59.955323691246534,
stimuli/rgb_scene000113_render000000.png,stimuli/rgb_scene000113_render000006.png,1,68,278,152,"[1, 0]",left,1,253,25,f,y,y,2019_Apr_29_1302,2AFC_task,59.955323691246534,
stimuli/rgb_scene000090_render000000.png,stimuli/rgb_scene000090_render000005.png,1,69,279,67,"[0, 1]",right,1,253,25,f,y,y,2019_Apr_29_1302,2AFC_task,59.955323691246534,
stimuli/rgb_scene000102_render000000.png,stimuli/rgb_scene000102_render000005.png,1,70,280,130,"[1, 0]",left,1,253,25,f,y,y,2019_Apr_29_1302,2AFC_task,59.955323691246534,
stimuli/rgb_scene000095_render000000.png,stimuli/rgb_scene000095_render000001.png,1,71,281,84,"[0, 1]",right,1,253,25,f,y,y,2019_Apr_29_1302,2AFC_task,59.955323691246534,
stimuli/rgb_scene000095_render000003.png,stimuli/rgb_scene000095_render000004.png,1,72,282,99,"[1, 0]",left,1,253,25,f,y,y,2019_Apr_29_1302,2AFC_task,59.955323691246534,
stimuli/rgb_scene000095_render000001.png,stimuli/rgb_scene000095_render000003.png,1,73,283,91,"[1, 0]",left,1,253,25,f,y,y,2019_Apr_29_1302,2AFC_task,59.955323691246534,
stimuli/rgb_scene000096_render000002.png,stimuli/rgb_scene000096_render000006.png,1,74,284,119,"[0, 1]",right,1,253,25,f,y,y,2019_Apr_29_1302,2AFC_task,59.955323691246534,
stimuli/rgb_scene000195_render000000.png,stimuli/rgb_scene000195_render000006.png,1,75,285,194,"[0, 1]",right,1,253,25,f,y,y,2019_Apr_29_1302,2AFC_task,59.955323691246534,
stimuli/rgb_scene000113_render000001.png,stimuli/rgb_scene000113_render000003.png,1,76,286,154,"[1, 0]",left,1,253,25,f,y,y,2019_Apr_29_1302,2AFC_task,59.955323691246534,
stimuli/rgb_scene000195_render000004.png,stimuli/rgb_scene000195_render000006.png,1,77,287,208,"[1, 0]",left,1,253,25,f,y,y,2019_Apr_29_1302,2AFC_task,59.955323691246534,
stimuli/rgb_scene000090_render000001.png,stimuli/rgb_scene000090_render000004.png,1,78,288,71,"[0, 1]",right,1,253,25,f,y,y,2019_Apr_29_1302,2AFC_task,59.955323691246534,
stimuli/rgb_scene000146_render000001.png,stimuli/rgb_scene000146_render000006.png,1,79,289,178,"[0, 1]",right,1,253,25,f,y,y,2019_Apr_29_1302,2AFC_task,59.955323691246534,
stimuli/rgb_scene000004_render000000.png,stimuli/rgb_scene000004_render000004.png,1,80,290,3,"[1, 0]",left,1,253,25,f,y,y,2019_Apr_29_1302,2AFC_task,59.955323691246534,
stimuli/rgb_scene000195_render000003.png,stimuli/rgb_scene000195_render000006.png,1,81,291,206,"[0, 1]",right,1,253,25,f,y,y,2019_Apr_29_1302,2AFC_task,59.955323691246534,
stimuli/rgb_scene000005_render000000.png,stimuli/rgb_scene000005_render000002.png,1,82,292,22,"[1, 0]",right,0,253,25,f,y,y,2019_Apr_29_1302,2AFC_task,59.955323691246534,
stimuli/rgb_scene000012_render000002.png,stimuli/rgb_scene000012_render000005.png,1,83,293,55,"[1, 0]",left,1,253,25,f,y,y,2019_Apr_29_1302,2AFC_task,59.955323691246534,
stimuli/rgb_scene000195_render000001.png,stimuli/rgb_scene000195_render000004.png,1,84,294,197,"[0, 1]",right,1,253,25,f,y,y,2019_Apr_29_1302,2AFC_task,59.955323691246534,
stimuli/rgb_scene000004_render000002.png,stimuli/rgb_scene000004_render000005.png,1,85,295,13,"[1, 0]",left,1,253,25,f,y,y,2019_Apr_29_1302,2AFC_task,59.955323691246534,
stimuli/rgb_scene000004_render000001.png,stimuli/rgb_scene000004_render000002.png,1,86,296,6,"[0, 1]",right,1,253,25,f,y,y,2019_Apr_29_1302,2AFC_task,59.955323691246534,
stimuli/rgb_scene000096_render000003.png,stimuli/rgb_scene000096_render000005.png,1,87,297,121,"[0, 1]",right,1,253,25,f,y,y,2019_Apr_29_1302,2AFC_task,59.955323691246534,
stimuli/rgb_scene000195_render000001.png,stimuli/rgb_scene000195_render000003.png,1,88,298,196,"[0, 1]",right,1,253,25,f,y,y,2019_Apr_29_1302,2AFC_task,59.955323691246534,
stimuli/rgb_scene000012_render000000.png,stimuli/rgb_scene000012_render000004.png,1,89,299,45,"[0, 1]",right,1,253,25,f,y,y,2019_Apr_29_1302,2AFC_task,59.955323691246534,
stimuli/rgb_scene000090_render000000.png,stimuli/rgb_scene000090_render000006.png,1,90,300,68,"[0, 1]",right,1,253,25,f,y,y,2019_Apr_29_1302,2AFC_task,59.955323691246534,
stimuli/rgb_scene000090_render000003.png,stimuli/rgb_scene000090_render000004.png,1,91,301,78,"[1, 0]",right,0,253,25,f,y,y,2019_Apr_29_1302,2AFC_task,59.955323691246534,
stimuli/rgb_scene000090_render000001.png,stimuli/rgb_scene000090_render000003.png,1,92,302,70,"[1, 0]",left,1,253,25,f,y,y,2019_Apr_29_1302,2AFC_task,59.955323691246534,
stimuli/rgb_scene000012_render000000.png,stimuli/rgb_scene000012_render000006.png,1,93,303,47,"[1, 0]",left,1,253,25,f,y,y,2019_Apr_29_1302,2AFC_task,59.955323691246534,
stimuli/rgb_scene000005_render000000.png,stimuli/rgb_scene000005_render000005.png,1,94,304,25,"[1, 0]",left,1,253,25,f,y,y,2019_Apr_29_1302,2AFC_task,59.955323691246534,
stimuli/rgb_scene000096_render000000.png,stimuli/rgb_scene000096_render000003.png,1,95,305,107,"[1, 0]",left,1,253,25,f,y,y,2019_Apr_29_1302,2AFC_task,59.955323691246534,
stimuli/rgb_scene000005_render000005.png,stimuli/rgb_scene000005_render000006.png,1,96,306,41,"[1, 0]",left,1,253,25,f,y,y,2019_Apr_29_1302,2AFC_task,59.955323691246534,
stimuli/rgb_scene000095_render000002.png,stimuli/rgb_scene000095_render000004.png,1,97,307,96,"[0, 1]",right,1,253,25,f,y,y,2019_Apr_29_1302,2AFC_task,59.955323691246534,
stimuli/rgb_scene000095_render000005.png,stimuli/rgb_scene000095_render000006.png,1,98,308,104,"[1, 0]",left,1,253,25,f,y,y,2019_Apr_29_1302,2AFC_task,59.955323691246534,
stimuli/rgb_scene000090_render000001.png,stimuli/rgb_scene000090_render000002.png,1,99,309,69,"[0, 1]",left,0,253,25,f,y,y,2019_Apr_29_1302,2AFC_task,59.955323691246534,
stimuli/rgb_scene000102_render000003.png,stimuli/rgb_scene000102_render000004.png,1,100,310,141,"[1, 0]",left,1,253,25,f,y,y,2019_Apr_29_1302,2AFC_task,59.955323691246534,
stimuli/rgb_scene000096_render000000.png,stimuli/rgb_scene000096_render000004.png,1,101,311,108,"[0, 1]",right,1,253,25,f,y,y,2019_Apr_29_1302,2AFC_task,59.955323691246534,
stimuli/rgb_scene000113_render000001.png,stimuli/rgb_scene000113_render000006.png,1,102,312,157,"[1, 0]",left,1,253,25,f,y,y,2019_Apr_29_1302,2AFC_task,59.955323691246534,
stimuli/rgb_scene000113_render000003.png,stimuli/rgb_scene000113_render000005.png,1,103,313,163,"[0, 1]",right,1,253,25,f,y,y,2019_Apr_29_1302,2AFC_task,59.955323691246534,
stimuli/rgb_scene000146_render000000.png,stimuli/rgb_scene000146_render000004.png,1,104,314,171,"[0, 1]",right,1,253,25,f,y,y,2019_Apr_29_1302,2AFC_task,59.955323691246534,
stimuli/rgb_scene000195_render000001.png,stimuli/rgb_scene000195_render000002.png,1,105,315,195,"[0, 1]",right,1,253,25,f,y,y,2019_Apr_29_1302,2AFC_task,59.955323691246534,
stimuli/rgb_scene000146_render000002.png,stimuli/rgb_scene000146_render000003.png,1,106,316,179,"[0, 1]",right,1,253,25,f,y,y,2019_Apr_29_1302,2AFC_task,59.955323691246534,
stimuli/rgb_scene000095_render000001.png,stimuli/rgb_scene000095_render000002.png,1,107,317,90,"[0, 1]",right,1,253,25,f,y,y,2019_Apr_29_1302,2AFC_task,59.955323691246534,
stimuli/rgb_scene000090_render000001.png,stimuli/rgb_scene000090_render000006.png,1,108,318,73,"[1, 0]",left,1,253,25,f,y,y,2019_Apr_29_1302,2AFC_task,59.955323691246534,
stimuli/rgb_scene000004_render000000.png,stimuli/rgb_scene000004_render000005.png,1,109,319,4,"[1, 0]",left,1,253,25,f,y,y,2019_Apr_29_1302,2AFC_task,59.955323691246534,
stimuli/rgb_scene000090_render000004.png,stimuli/rgb_scene000090_render000006.png,1,110,320,82,"[1, 0]",right,0,253,25,f,y,y,2019_Apr_29_1302,2AFC_task,59.955323691246534,
stimuli/rgb_scene000096_render000001.png,stimuli/rgb_scene000096_render000005.png,1,111,321,114,"[1, 0]",left,1,253,25,f,y,y,2019_Apr_29_1302,2AFC_task,59.955323691246534,
stimuli/rgb_scene000195_render000000.png,stimuli/rgb_scene000195_render000001.png,1,112,322,189,"[0, 1]",right,1,253,25,f,y,y,2019_Apr_29_1302,2AFC_task,59.955323691246534,
stimuli/rgb_scene000096_render000000.png,stimuli/rgb_scene000096_render000005.png,1,113,323,109,"[0, 1]",right,1,253,25,f,y,y,2019_Apr_29_1302,2AFC_task,59.955323691246534,
stimuli/rgb_scene000012_render000000.png,stimuli/rgb_scene000012_render000003.png,1,114,324,44,"[0, 1]",right,1,253,25,f,y,y,2019_Apr_29_1302,2AFC_task,59.955323691246534,
stimuli/rgb_scene000095_render000001.png,stimuli/rgb_scene000095_render000005.png,1,115,325,93,"[0, 1]",right,1,253,25,f,y,y,2019_Apr_29_1302,2AFC_task,59.955323691246534,
stimuli/rgb_scene000090_render000000.png,stimuli/rgb_scene000090_render000002.png,1,116,326,64,"[1, 0]",right,0,253,25,f,y,y,2019_Apr_29_1302,2AFC_task,59.955323691246534,
stimuli/rgb_scene000004_render000005.png,stimuli/rgb_scene000004_render000006.png,1,117,327,20,"[1, 0]",right,0,253,25,f,y,y,2019_Apr_29_1302,2AFC_task,59.955323691246534,
stimuli/rgb_scene000146_render000001.png,stimuli/rgb_scene000146_render000005.png,1,118,328,177,"[0, 1]",right,1,253,25,f,y,y,2019_Apr_29_1302,2AFC_task,59.955323691246534,
stimuli/rgb_scene000012_render000004.png,stimuli/rgb_scene000012_render000005.png,1,119,329,60,"[1, 0]",left,1,253,25,f,y,y,2019_Apr_29_1302,2AFC_task,59.955323691246534,
stimuli/rgb_scene000005_render000001.png,stimuli/rgb_scene000005_render000003.png,1,120,330,28,"[1, 0]",left,1,253,25,f,y,y,2019_Apr_29_1302,2AFC_task,59.955323691246534,
stimuli/rgb_scene000005_render000001.png,stimuli/rgb_scene000005_render000004.png,1,121,331,29,"[0, 1]",right,1,253,25,f,y,y,2019_Apr_29_1302,2AFC_task,59.955323691246534,
stimuli/rgb_scene000102_render000001.png,stimuli/rgb_scene000102_render000003.png,1,122,332,133,"[1, 0]",left,1,253,25,f,y,y,2019_Apr_29_1302,2AFC_task,59.955323691246534,
stimuli/rgb_scene000096_render000001.png,stimuli/rgb_scene000096_render000006.png,1,123,333,115,"[0, 1]",right,1,253,25,f,y,y,2019_Apr_29_1302,2AFC_task,59.955323691246534,
stimuli/rgb_scene000005_render000002.png,stimuli/rgb_scene000005_render000003.png,1,124,334,32,"[1, 0]",left,1,253,25,f,y,y,2019_Apr_29_1302,2AFC_task,59.955323691246534,
stimuli/rgb_scene000102_render000004.png,stimuli/rgb_scene000102_render000006.png,1,125,335,145,"[1, 0]",left,1,253,25,f,y,y,2019_Apr_29_1302,2AFC_task,59.955323691246534,
stimuli/rgb_scene000090_render000000.png,stimuli/rgb_scene000090_render000003.png,1,126,336,65,"[0, 1]",right,1,253,25,f,y,y,2019_Apr_29_1302,2AFC_task,59.955323691246534,
stimuli/rgb_scene000195_render000003.png,stimuli/rgb_scene000195_render000004.png,1,127,337,204,"[0, 1]",right,1,253,25,f,y,y,2019_Apr_29_1302,2AFC_task,59.955323691246534,
stimuli/rgb_scene000146_render000000.png,stimuli/rgb_scene000146_render000002.png,1,128,338,169,"[1, 0]",left,1,253,25,f,y,y,2019_Apr_29_1302,2AFC_task,59.955323691246534,
stimuli/rgb_scene000095_render000002.png,stimuli/rgb_scene000095_render000003.png,1,129,339,95,"[1, 0]",left,1,253,25,f,y,y,2019_Apr_29_1302,2AFC_task,59.955323691246534,
stimuli/rgb_scene000012_render000001.png,stimuli/rgb_scene000012_render000006.png,1,130,340,52,"[1, 0]",left,1,253,25,f,y,y,2019_Apr_29_1302,2AFC_task,59.955323691246534,
stimuli/rgb_scene000096_render000005.png,stimuli/rgb_scene000096_render000006.png,1,131,341,125,"[0, 1]",right,1,253,25,f,y,y,2019_Apr_29_1302,2AFC_task,59.955323691246534,
stimuli/rgb_scene000012_render000003.png,stimuli/rgb_scene000012_render000005.png,1,132,342,58,"[0, 1]",right,1,253,25,f,y,y,2019_Apr_29_1302,2AFC_task,59.955323691246534,
stimuli/rgb_scene000096_render000002.png,stimuli/rgb_scene000096_render000005.png,1,133,343,118,"[0, 1]",right,1,253,25,f,y,y,2019_Apr_29_1302,2AFC_task,59.955323691246534,
stimuli/rgb_scene000004_render000004.png,stimuli/rgb_scene000004_render000006.png,1,134,344,19,"[0, 1]",right,1,253,25,f,y,y,2019_Apr_29_1302,2AFC_task,59.955323691246534,
stimuli/rgb_scene000102_render000001.png,stimuli/rgb_scene000102_render000002.png,1,135,345,132,"[0, 1]",right,1,253,25,f,y,y,2019_Apr_29_1302,2AFC_task,59.955323691246534,
stimuli/rgb_scene000113_render000001.png,stimuli/rgb_scene000113_render000004.png,1,136,346,155,"[0, 1]",right,1,253,25,f,y,y,2019_Apr_29_1302,2AFC_task,59.955323691246534,
stimuli/rgb_scene000102_render000002.png,stimuli/rgb_scene000102_render000004.png,1,137,347,138,"[1, 0]",left,1,253,25,f,y,y,2019_Apr_29_1302,2AFC_task,59.955323691246534,
stimuli/rgb_scene000146_render000005.png,stimuli/rgb_scene000146_render000006.png,1,138,348,188,"[1, 0]",right,0,253,25,f,y,y,2019_Apr_29_1302,2AFC_task,59.955323691246534,
stimuli/rgb_scene000195_render000001.png,stimuli/rgb_scene000195_render000005.png,1,139,349,198,"[0, 1]",right,1,253,25,f,y,y,2019_Apr_29_1302,2AFC_task,59.955323691246534,
stimuli/rgb_scene000096_render000001.png,stimuli/rgb_scene000096_render000004.png,1,140,350,113,"[1, 0]",left,1,253,25,f,y,y,2019_Apr_29_1302,2AFC_task,59.955323691246534,
stimuli/rgb_scene000102_render000005.png,stimuli/rgb_scene000102_render000006.png,1,141,351,146,"[1, 0]",left,1,253,25,f,y,y,2019_Apr_29_1302,2AFC_task,59.955323691246534,
stimuli/rgb_scene000102_render000002.png,stimuli/rgb_scene000102_render000006.png,1,142,352,140,"[1, 0]",left,1,253,25,f,y,y,2019_Apr_29_1302,2AFC_task,59.955323691246534,
stimuli/rgb_scene000096_render000000.png,stimuli/rgb_scene000096_render000001.png,1,143,353,105,"[0, 1]",right,1,253,25,f,y,y,2019_Apr_29_1302,2AFC_task,59.955323691246534,
stimuli/rgb_scene000090_render000001.png,stimuli/rgb_scene000090_render000005.png,1,144,354,72,"[0, 1]",right,1,253,25,f,y,y,2019_Apr_29_1302,2AFC_task,59.955323691246534,
stimuli/rgb_scene000195_render000000.png,stimuli/rgb_scene000195_render000004.png,1,145,355,192,"[0, 1]",right,1,253,25,f,y,y,2019_Apr_29_1302,2AFC_task,59.955323691246534,
stimuli/rgb_scene000090_render000002.png,stimuli/rgb_scene000090_render000004.png,1,146,356,75,"[0, 1]",right,1,253,25,f,y,y,2019_Apr_29_1302,2AFC_task,59.955323691246534,
stimuli/rgb_scene000004_render000003.png,stimuli/rgb_scene000004_render000004.png,1,147,357,15,"[1, 0]",left,1,253,25,f,y,y,2019_Apr_29_1302,2AFC_task,59.955323691246534,
stimuli/rgb_scene000005_render000003.png,stimuli/rgb_scene000005_render000005.png,1,148,358,37,"[1, 0]",right,0,253,25,f,y,y,2019_Apr_29_1302,2AFC_task,59.955323691246534,
stimuli/rgb_scene000102_render000002.png,stimuli/rgb_scene000102_render000005.png,1,149,359,139,"[1, 0]",left,1,253,25,f,y,y,2019_Apr_29_1302,2AFC_task,59.955323691246534,
stimuli/rgb_scene000146_render000002.png,stimuli/rgb_scene000146_render000004.png,1,150,360,180,"[0, 1]",right,1,253,25,f,y,y,2019_Apr_29_1302,2AFC_task,59.955323691246534,
stimuli/rgb_scene000095_render000000.png,stimuli/rgb_scene000095_render000002.png,1,151,361,85,"[0, 1]",right,1,253,25,f,y,y,2019_Apr_29_1302,2AFC_task,59.955323691246534,
stimuli/rgb_scene000012_render000001.png,stimuli/rgb_scene000012_render000005.png,1,152,362,51,"[0, 1]",right,1,253,25,f,y,y,2019_Apr_29_1302,2AFC_task,59.955323691246534,
stimuli/rgb_scene000195_render000001.png,stimuli/rgb_scene000195_render000006.png,1,153,363,199,"[0, 1]",left,0,253,25,f,y,y,2019_Apr_29_1302,2AFC_task,59.955323691246534,
stimuli/rgb_scene000095_render000001.png,stimuli/rgb_scene000095_render000004.png,1,154,364,92,"[1, 0]",left,1,253,25,f,y,y,2019_Apr_29_1302,2AFC_task,59.955323691246534,
stimuli/rgb_scene000113_render000001.png,stimuli/rgb_scene000113_render000002.png,1,155,365,153,"[0, 1]",right,1,253,25,f,y,y,2019_Apr_29_1302,2AFC_task,59.955323691246534,
stimuli/rgb_scene000090_render000004.png,stimuli/rgb_scene000090_render000005.png,1,156,366,81,"[1, 0]",right,0,253,25,f,y,y,2019_Apr_29_1302,2AFC_task,59.955323691246534,
stimuli/rgb_scene000195_render000002.png,stimuli/rgb_scene000195_render000004.png,1,157,367,201,"[0, 1]",right,1,253,25,f,y,y,2019_Apr_29_1302,2AFC_task,59.955323691246534,
stimuli/rgb_scene000113_render000000.png,stimuli/rgb_scene000113_render000003.png,1,158,368,149,"[1, 0]",left,1,253,25,f,y,y,2019_Apr_29_1302,2AFC_task,59.955323691246534,
stimuli/rgb_scene000096_render000003.png,stimuli/rgb_scene000096_render000006.png,1,159,369,122,"[1, 0]",left,1,253,25,f,y,y,2019_Apr_29_1302,2AFC_task,59.955323691246534,
stimuli/rgb_scene000012_render000001.png,stimuli/rgb_scene000012_render000004.png,1,160,370,50,"[0, 1]",right,1,253,25,f,y,y,2019_Apr_29_1302,2AFC_task,59.955323691246534,
stimuli/rgb_scene000113_render000001.png,stimuli/rgb_scene000113_render000005.png,1,161,371,156,"[1, 0]",left,1,253,25,f,y,y,2019_Apr_29_1302,2AFC_task,59.955323691246534,
stimuli/rgb_scene000004_render000003.png,stimuli/rgb_scene000004_render000006.png,1,162,372,17,"[0, 1]",right,1,253,25,f,y,y,2019_Apr_29_1302,2AFC_task,59.955323691246534,
stimuli/rgb_scene000195_render000005.png,stimuli/rgb_scene000195_render000006.png,1,163,373,209,"[0, 1]",right,1,253,25,f,y,y,2019_Apr_29_1302,2AFC_task,59.955323691246534,
stimuli/rgb_scene000095_render000000.png,stimuli/rgb_scene000095_render000005.png,1,164,374,88,"[1, 0]",left,1,253,25,f,y,y,2019_Apr_29_1302,2AFC_task,59.955323691246534,
stimuli/rgb_scene000102_render000003.png,stimuli/rgb_scene000102_render000005.png,1,165,375,142,"[1, 0]",left,1,253,25,f,y,y,2019_Apr_29_1302,2AFC_task,59.955323691246534,
stimuli/rgb_scene000095_render000004.png,stimuli/rgb_scene000095_render000006.png,1,166,376,103,"[1, 0]",left,1,253,25,f,y,y,2019_Apr_29_1302,2AFC_task,59.955323691246534,
stimuli/rgb_scene000102_render000001.png,stimuli/rgb_scene000102_render000004.png,1,167,377,134,"[1, 0]",left,1,253,25,f,y,y,2019_Apr_29_1302,2AFC_task,59.955323691246534,
stimuli/rgb_scene000005_render000004.png,stimuli/rgb_scene000005_render000006.png,1,168,378,40,"[1, 0]",left,1,253,25,f,y,y,2019_Apr_29_1302,2AFC_task,59.955323691246534,
stimuli/rgb_scene000102_render000001.png,stimuli/rgb_scene000102_render000005.png,1,169,379,135,"[1, 0]",left,1,253,25,f,y,y,2019_Apr_29_1302,2AFC_task,59.955323691246534,
stimuli/rgb_scene000090_render000003.png,stimuli/rgb_scene000090_render000006.png,1,170,380,80,"[0, 1]",left,0,253,25,f,y,y,2019_Apr_29_1302,2AFC_task,59.955323691246534,
stimuli/rgb_scene000012_render000000.png,stimuli/rgb_scene000012_render000001.png,1,171,381,42,"[0, 1]",right,1,253,25,f,y,y,2019_Apr_29_1302,2AFC_task,59.955323691246534,
stimuli/rgb_scene000096_render000002.png,stimuli/rgb_scene000096_render000003.png,1,172,382,116,"[1, 0]",left,1,253,25,f,y,y,2019_Apr_29_1302,2AFC_task,59.955323691246534,
stimuli/rgb_scene000113_render000000.png,stimuli/rgb_scene000113_render000004.png,1,173,383,150,"[0, 1]",right,1,253,25,f,y,y,2019_Apr_29_1302,2AFC_task,59.955323691246534,
stimuli/rgb_scene000102_render000000.png,stimuli/rgb_scene000102_render000003.png,1,174,384,128,"[0, 1]",right,1,253,25,f,y,y,2019_Apr_29_1302,2AFC_task,59.955323691246534,
stimuli/rgb_scene000102_render000000.png,stimuli/rgb_scene000102_render000002.png,1,175,385,127,"[0, 1]",right,1,253,25,f,y,y,2019_Apr_29_1302,2AFC_task,59.955323691246534,
stimuli/rgb_scene000102_render000002.png,stimuli/rgb_scene000102_render000003.png,1,176,386,137,"[0, 1]",right,1,253,25,f,y,y,2019_Apr_29_1302,2AFC_task,59.955323691246534,
stimuli/rgb_scene000012_render000000.png,stimuli/rgb_scene000012_render000002.png,1,177,387,43,"[1, 0]",left,1,253,25,f,y,y,2019_Apr_29_1302,2AFC_task,59.955323691246534,
stimuli/rgb_scene000095_render000000.png,stimuli/rgb_scene000095_render000004.png,1,178,388,87,"[1, 0]",left,1,253,25,f,y,y,2019_Apr_29_1302,2AFC_task,59.955323691246534,
stimuli/rgb_scene000102_render000000.png,stimuli/rgb_scene000102_render000001.png,1,179,389,126,"[1, 0]",left,1,253,25,f,y,y,2019_Apr_29_1302,2AFC_task,59.955323691246534,
stimuli/rgb_scene000102_render000001.png,stimuli/rgb_scene000102_render000006.png,1,180,390,136,"[1, 0]",left,1,253,25,f,y,y,2019_Apr_29_1302,2AFC_task,59.955323691246534,
stimuli/rgb_scene000005_render000003.png,stimuli/rgb_scene000005_render000006.png,1,181,391,38,"[1, 0]",right,0,253,25,f,y,y,2019_Apr_29_1302,2AFC_task,59.955323691246534,
stimuli/rgb_scene000195_render000002.png,stimuli/rgb_scene000195_render000006.png,1,182,392,203,"[1, 0]",right,0,253,25,f,y,y,2019_Apr_29_1302,2AFC_task,59.955323691246534,
stimuli/rgb_scene000012_render000002.png,stimuli/rgb_scene000012_render000003.png,1,183,393,53,"[0, 1]",right,1,253,25,f,y,y,2019_Apr_29_1302,2AFC_task,59.955323691246534,
stimuli/rgb_scene000005_render000000.png,stimuli/rgb_scene000005_render000003.png,1,184,394,23,"[0, 1]",right,1,253,25,f,y,y,2019_Apr_29_1302,2AFC_task,59.955323691246534,
stimuli/rgb_scene000113_render000000.png,stimuli/rgb_scene000113_render000001.png,1,185,395,147,"[1, 0]",left,1,253,25,f,y,y,2019_Apr_29_1302,2AFC_task,59.955323691246534,
stimuli/rgb_scene000005_render000002.png,stimuli/rgb_scene000005_render000005.png,1,186,396,34,"[1, 0]",right,0,253,25,f,y,y,2019_Apr_29_1302,2AFC_task,59.955323691246534,
stimuli/rgb_scene000090_render000000.png,stimuli/rgb_scene000090_render000001.png,1,187,397,63,"[0, 1]",left,0,253,25,f,y,y,2019_Apr_29_1302,2AFC_task,59.955323691246534,
stimuli/rgb_scene000090_render000002.png,stimuli/rgb_scene000090_render000003.png,1,188,398,74,"[1, 0]",right,0,253,25,f,y,y,2019_Apr_29_1302,2AFC_task,59.955323691246534,
stimuli/rgb_scene000096_render000000.png,stimuli/rgb_scene000096_render000006.png,1,189,399,110,"[1, 0]",left,1,253,25,f,y,y,2019_Apr_29_1302,2AFC_task,59.955323691246534,
stimuli/rgb_scene000146_render000000.png,stimuli/rgb_scene000146_render000006.png,1,190,400,173,"[1, 0]",left,1,253,25,f,y,y,2019_Apr_29_1302,2AFC_task,59.955323691246534,
stimuli/rgb_scene000005_render000001.png,stimuli/rgb_scene000005_render000005.png,1,191,401,30,"[0, 1]",left,0,253,25,f,y,y,2019_Apr_29_1302,2AFC_task,59.955323691246534,
stimuli/rgb_scene000113_render000002.png,stimuli/rgb_scene000113_render000004.png,1,192,402,159,"[1, 0]",left,1,253,25,f,y,y,2019_Apr_29_1302,2AFC_task,59.955323691246534,
stimuli/rgb_scene000146_render000001.png,stimuli/rgb_scene000146_render000004.png,1,193,403,176,"[0, 1]",right,1,253,25,f,y,y,2019_Apr_29_1302,2AFC_task,59.955323691246534,
stimuli/rgb_scene000012_render000003.png,stimuli/rgb_scene000012_render000006.png,1,194,404,59,"[0, 1]",right,1,253,25,f,y,y,2019_Apr_29_1302,2AFC_task,59.955323691246534,
stimuli/rgb_scene000096_render000001.png,stimuli/rgb_scene000096_render000002.png,1,195,405,111,"[1, 0]",left,1,253,25,f,y,y,2019_Apr_29_1302,2AFC_task,59.955323691246534,
stimuli/rgb_scene000146_render000000.png,stimuli/rgb_scene000146_render000003.png,1,196,406,170,"[1, 0]",left,1,253,25,f,y,y,2019_Apr_29_1302,2AFC_task,59.955323691246534,
stimuli/rgb_scene000113_render000003.png,stimuli/rgb_scene000113_render000004.png,1,197,407,162,"[0, 1]",right,1,253,25,f,y,y,2019_Apr_29_1302,2AFC_task,59.955323691246534,
stimuli/rgb_scene000113_render000002.png,stimuli/rgb_scene000113_render000006.png,1,198,408,161,"[1, 0]",left,1,253,25,f,y,y,2019_Apr_29_1302,2AFC_task,59.955323691246534,
stimuli/rgb_scene000096_render000000.png,stimuli/rgb_scene000096_render000002.png,1,199,409,106,"[0, 1]",right,1,253,25,f,y,y,2019_Apr_29_1302,2AFC_task,59.955323691246534,
stimuli/rgb_scene000004_render000000.png,stimuli/rgb_scene000004_render000002.png,1,200,410,1,"[0, 1]",right,1,253,25,f,y,y,2019_Apr_29_1302,2AFC_task,59.955323691246534,
stimuli/rgb_scene000146_render000004.png,stimuli/rgb_scene000146_render000006.png,1,201,411,187,"[1, 0]",left,1,253,25,f,y,y,2019_Apr_29_1302,2AFC_task,59.955323691246534,
stimuli/rgb_scene000146_render000003.png,stimuli/rgb_scene000146_render000005.png,1,202,412,184,"[1, 0]",left,1,253,25,f,y,y,2019_Apr_29_1302,2AFC_task,59.955323691246534,
stimuli/rgb_scene000004_render000001.png,stimuli/rgb_scene000004_render000004.png,1,203,413,8,"[1, 0]",left,1,253,25,f,y,y,2019_Apr_29_1302,2AFC_task,59.955323691246534,
stimuli/rgb_scene000195_render000000.png,stimuli/rgb_scene000195_render000002.png,1,204,414,190,"[1, 0]",left,1,253,25,f,y,y,2019_Apr_29_1302,2AFC_task,59.955323691246534,
stimuli/rgb_scene000012_render000001.png,stimuli/rgb_scene000012_render000003.png,1,205,415,49,"[0, 1]",right,1,253,25,f,y,y,2019_Apr_29_1302,2AFC_task,59.955323691246534,
stimuli/rgb_scene000195_render000004.png,stimuli/rgb_scene000195_render000005.png,1,206,416,207,"[0, 1]",left,0,253,25,f,y,y,2019_Apr_29_1302,2AFC_task,59.955323691246534,
stimuli/rgb_scene000012_render000000.png,stimuli/rgb_scene000012_render000005.png,1,207,417,46,"[0, 1]",right,1,253,25,f,y,y,2019_Apr_29_1302,2AFC_task,59.955323691246534,
stimuli/rgb_scene000095_render000002.png,stimuli/rgb_scene000095_render000006.png,1,208,418,98,"[0, 1]",right,1,253,25,f,y,y,2019_Apr_29_1302,2AFC_task,59.955323691246534,
stimuli/rgb_scene000090_render000002.png,stimuli/rgb_scene000090_render000005.png,1,209,419,76,"[1, 0]",right,0,253,25,f,y,y,2019_Apr_29_1302,2AFC_task,59.955323691246534,
