stimOne,stimTwo,trials_1.thisRepN,trials_1.thisTrialN,trials_1.thisN,trials_1.thisIndex,presentation_positions,resp_key,corresponding_image,participant ID (two digits, e.g. 01),age,gender (m/f/-),normal or corrected-to-normal vision (y/n),normal colour vision (y/n),date,expName,frameRate,
stimuli/rgb_scene000012_render000001.png,stimuli/rgb_scene000012_render000003.png,0,0,0,49,"[0, 1]",right,1,333,25,f,y,y,2019_Apr_25_1500,2AFC_task,59.95060069179612,
stimuli/rgb_scene000195_render000002.png,stimuli/rgb_scene000195_render000003.png,0,1,1,200,"[1, 0]",left,1,333,25,f,y,y,2019_Apr_25_1500,2AFC_task,59.95060069179612,
stimuli/rgb_scene000090_render000004.png,stimuli/rgb_scene000090_render000006.png,0,2,2,82,"[0, 1]",left,0,333,25,f,y,y,2019_Apr_25_1500,2AFC_task,59.95060069179612,
stimuli/rgb_scene000012_render000004.png,stimuli/rgb_scene000012_render000005.png,0,3,3,60,"[1, 0]",left,1,333,25,f,y,y,2019_Apr_25_1500,2AFC_task,59.95060069179612,
stimuli/rgb_scene000004_render000004.png,stimuli/rgb_scene000004_render000006.png,0,4,4,19,"[0, 1]",right,1,333,25,f,y,y,2019_Apr_25_1500,2AFC_task,59.95060069179612,
stimuli/rgb_scene000113_render000002.png,stimuli/rgb_scene000113_render000005.png,0,5,5,160,"[1, 0]",left,1,333,25,f,y,y,2019_Apr_25_1500,2AFC_task,59.95060069179612,
stimuli/rgb_scene000012_render000000.png,stimuli/rgb_scene000012_render000004.png,0,6,6,45,"[1, 0]",left,1,333,25,f,y,y,2019_Apr_25_1500,2AFC_task,59.95060069179612,
stimuli/rgb_scene000095_render000000.png,stimuli/rgb_scene000095_render000002.png,0,7,7,85,"[0, 1]",right,1,333,25,f,y,y,2019_Apr_25_1500,2AFC_task,59.95060069179612,
stimuli/rgb_scene000113_render000004.png,stimuli/rgb_scene000113_render000005.png,0,8,8,165,"[0, 1]",right,1,333,25,f,y,y,2019_Apr_25_1500,2AFC_task,59.95060069179612,
stimuli/rgb_scene000095_render000002.png,stimuli/rgb_scene000095_render000003.png,0,9,9,95,"[0, 1]",right,1,333,25,f,y,y,2019_Apr_25_1500,2AFC_task,59.95060069179612,
stimuli/rgb_scene000005_render000001.png,stimuli/rgb_scene000005_render000004.png,0,10,10,29,"[0, 1]",right,1,333,25,f,y,y,2019_Apr_25_1500,2AFC_task,59.95060069179612,
stimuli/rgb_scene000095_render000002.png,stimuli/rgb_scene000095_render000004.png,0,11,11,96,"[1, 0]",left,1,333,25,f,y,y,2019_Apr_25_1500,2AFC_task,59.95060069179612,
stimuli/rgb_scene000090_render000000.png,stimuli/rgb_scene000090_render000003.png,0,12,12,65,"[1, 0]",left,1,333,25,f,y,y,2019_Apr_25_1500,2AFC_task,59.95060069179612,
stimuli/rgb_scene000113_render000000.png,stimuli/rgb_scene000113_render000006.png,0,13,13,152,"[1, 0]",left,1,333,25,f,y,y,2019_Apr_25_1500,2AFC_task,59.95060069179612,
stimuli/rgb_scene000096_render000001.png,stimuli/rgb_scene000096_render000003.png,0,14,14,112,"[1, 0]",left,1,333,25,f,y,y,2019_Apr_25_1500,2AFC_task,59.95060069179612,
stimuli/rgb_scene000195_render000000.png,stimuli/rgb_scene000195_render000006.png,0,15,15,194,"[0, 1]",right,1,333,25,f,y,y,2019_Apr_25_1500,2AFC_task,59.95060069179612,
stimuli/rgb_scene000096_render000001.png,stimuli/rgb_scene000096_render000002.png,0,16,16,111,"[1, 0]",left,1,333,25,f,y,y,2019_Apr_25_1500,2AFC_task,59.95060069179612,
stimuli/rgb_scene000102_render000003.png,stimuli/rgb_scene000102_render000005.png,0,17,17,142,"[1, 0]",left,1,333,25,f,y,y,2019_Apr_25_1500,2AFC_task,59.95060069179612,
stimuli/rgb_scene000005_render000000.png,stimuli/rgb_scene000005_render000003.png,0,18,18,23,"[0, 1]",right,1,333,25,f,y,y,2019_Apr_25_1500,2AFC_task,59.95060069179612,
stimuli/rgb_scene000113_render000000.png,stimuli/rgb_scene000113_render000002.png,0,19,19,148,"[0, 1]",right,1,333,25,f,y,y,2019_Apr_25_1500,2AFC_task,59.95060069179612,
stimuli/rgb_scene000005_render000004.png,stimuli/rgb_scene000005_render000005.png,0,20,20,39,"[0, 1]",left,0,333,25,f,y,y,2019_Apr_25_1500,2AFC_task,59.95060069179612,
stimuli/rgb_scene000195_render000002.png,stimuli/rgb_scene000195_render000004.png,0,21,21,201,"[0, 1]",right,1,333,25,f,y,y,2019_Apr_25_1500,2AFC_task,59.95060069179612,
stimuli/rgb_scene000195_render000004.png,stimuli/rgb_scene000195_render000005.png,0,22,22,207,"[1, 0]",left,1,333,25,f,y,y,2019_Apr_25_1500,2AFC_task,59.95060069179612,
stimuli/rgb_scene000146_render000003.png,stimuli/rgb_scene000146_render000006.png,0,23,23,185,"[0, 1]",right,1,333,25,f,y,y,2019_Apr_25_1500,2AFC_task,59.95060069179612,
stimuli/rgb_scene000090_render000000.png,stimuli/rgb_scene000090_render000005.png,0,24,24,67,"[1, 0]",left,1,333,25,f,y,y,2019_Apr_25_1500,2AFC_task,59.95060069179612,
stimuli/rgb_scene000113_render000002.png,stimuli/rgb_scene000113_render000003.png,0,25,25,158,"[1, 0]",left,1,333,25,f,y,y,2019_Apr_25_1500,2AFC_task,59.95060069179612,
stimuli/rgb_scene000113_render000000.png,stimuli/rgb_scene000113_render000003.png,0,26,26,149,"[1, 0]",left,1,333,25,f,y,y,2019_Apr_25_1500,2AFC_task,59.95060069179612,
stimuli/rgb_scene000096_render000000.png,stimuli/rgb_scene000096_render000006.png,0,27,27,110,"[0, 1]",right,1,333,25,f,y,y,2019_Apr_25_1500,2AFC_task,59.95060069179612,
stimuli/rgb_scene000090_render000002.png,stimuli/rgb_scene000090_render000004.png,0,28,28,75,"[1, 0]",left,1,333,25,f,y,y,2019_Apr_25_1500,2AFC_task,59.95060069179612,
stimuli/rgb_scene000005_render000005.png,stimuli/rgb_scene000005_render000006.png,0,29,29,41,"[0, 1]",left,0,333,25,f,y,y,2019_Apr_25_1500,2AFC_task,59.95060069179612,
stimuli/rgb_scene000113_render000001.png,stimuli/rgb_scene000113_render000004.png,0,30,30,155,"[0, 1]",right,1,333,25,f,y,y,2019_Apr_25_1500,2AFC_task,59.95060069179612,
stimuli/rgb_scene000012_render000000.png,stimuli/rgb_scene000012_render000006.png,0,31,31,47,"[0, 1]",right,1,333,25,f,y,y,2019_Apr_25_1500,2AFC_task,59.95060069179612,
stimuli/rgb_scene000095_render000001.png,stimuli/rgb_scene000095_render000004.png,0,32,32,92,"[1, 0]",left,1,333,25,f,y,y,2019_Apr_25_1500,2AFC_task,59.95060069179612,
stimuli/rgb_scene000095_render000004.png,stimuli/rgb_scene000095_render000005.png,0,33,33,102,"[0, 1]",right,1,333,25,f,y,y,2019_Apr_25_1500,2AFC_task,59.95060069179612,
stimuli/rgb_scene000096_render000004.png,stimuli/rgb_scene000096_render000006.png,0,34,34,124,"[1, 0]",left,1,333,25,f,y,y,2019_Apr_25_1500,2AFC_task,59.95060069179612,
stimuli/rgb_scene000012_render000004.png,stimuli/rgb_scene000012_render000006.png,0,35,35,61,"[1, 0]",left,1,333,25,f,y,y,2019_Apr_25_1500,2AFC_task,59.95060069179612,
stimuli/rgb_scene000102_render000003.png,stimuli/rgb_scene000102_render000004.png,0,36,36,141,"[1, 0]",left,1,333,25,f,y,y,2019_Apr_25_1500,2AFC_task,59.95060069179612,
stimuli/rgb_scene000090_render000003.png,stimuli/rgb_scene000090_render000005.png,0,37,37,79,"[0, 1]",left,0,333,25,f,y,y,2019_Apr_25_1500,2AFC_task,59.95060069179612,
stimuli/rgb_scene000102_render000002.png,stimuli/rgb_scene000102_render000004.png,0,38,38,138,"[1, 0]",left,1,333,25,f,y,y,2019_Apr_25_1500,2AFC_task,59.95060069179612,
stimuli/rgb_scene000095_render000000.png,stimuli/rgb_scene000095_render000001.png,0,39,39,84,"[0, 1]",right,1,333,25,f,y,y,2019_Apr_25_1500,2AFC_task,59.95060069179612,
stimuli/rgb_scene000005_render000000.png,stimuli/rgb_scene000005_render000002.png,0,40,40,22,"[0, 1]",right,1,333,25,f,y,y,2019_Apr_25_1500,2AFC_task,59.95060069179612,
stimuli/rgb_scene000005_render000001.png,stimuli/rgb_scene000005_render000005.png,0,41,41,30,"[0, 1]",right,1,333,25,f,y,y,2019_Apr_25_1500,2AFC_task,59.95060069179612,
stimuli/rgb_scene000005_render000001.png,stimuli/rgb_scene000005_render000002.png,0,42,42,27,"[0, 1]",right,1,333,25,f,y,y,2019_Apr_25_1500,2AFC_task,59.95060069179612,
stimuli/rgb_scene000095_render000004.png,stimuli/rgb_scene000095_render000006.png,0,43,43,103,"[1, 0]",left,1,333,25,f,y,y,2019_Apr_25_1500,2AFC_task,59.95060069179612,
stimuli/rgb_scene000005_render000000.png,stimuli/rgb_scene000005_render000004.png,0,44,44,24,"[1, 0]",left,1,333,25,f,y,y,2019_Apr_25_1500,2AFC_task,59.95060069179612,
stimuli/rgb_scene000095_render000002.png,stimuli/rgb_scene000095_render000005.png,0,45,45,97,"[0, 1]",right,1,333,25,f,y,y,2019_Apr_25_1500,2AFC_task,59.95060069179612,
stimuli/rgb_scene000195_render000000.png,stimuli/rgb_scene000195_render000003.png,0,46,46,191,"[1, 0]",left,1,333,25,f,y,y,2019_Apr_25_1500,2AFC_task,59.95060069179612,
stimuli/rgb_scene000004_render000000.png,stimuli/rgb_scene000004_render000004.png,0,47,47,3,"[0, 1]",right,1,333,25,f,y,y,2019_Apr_25_1500,2AFC_task,59.95060069179612,
stimuli/rgb_scene000102_render000001.png,stimuli/rgb_scene000102_render000006.png,0,48,48,136,"[1, 0]",left,1,333,25,f,y,y,2019_Apr_25_1500,2AFC_task,59.95060069179612,
stimuli/rgb_scene000146_render000000.png,stimuli/rgb_scene000146_render000003.png,0,49,49,170,"[1, 0]",left,1,333,25,f,y,y,2019_Apr_25_1500,2AFC_task,59.95060069179612,
stimuli/rgb_scene000096_render000002.png,stimuli/rgb_scene000096_render000005.png,0,50,50,118,"[1, 0]",left,1,333,25,f,y,y,2019_Apr_25_1500,2AFC_task,59.95060069179612,
stimuli/rgb_scene000102_render000004.png,stimuli/rgb_scene000102_render000005.png,0,51,51,144,"[0, 1]",right,1,333,25,f,y,y,2019_Apr_25_1500,2AFC_task,59.95060069179612,
stimuli/rgb_scene000004_render000003.png,stimuli/rgb_scene000004_render000006.png,0,52,52,17,"[1, 0]",left,1,333,25,f,y,y,2019_Apr_25_1500,2AFC_task,59.95060069179612,
stimuli/rgb_scene000146_render000000.png,stimuli/rgb_scene000146_render000002.png,0,53,53,169,"[0, 1]",right,1,333,25,f,y,y,2019_Apr_25_1500,2AFC_task,59.95060069179612,
stimuli/rgb_scene000096_render000000.png,stimuli/rgb_scene000096_render000003.png,0,54,54,107,"[1, 0]",left,1,333,25,f,y,y,2019_Apr_25_1500,2AFC_task,59.95060069179612,
stimuli/rgb_scene000096_render000002.png,stimuli/rgb_scene000096_render000003.png,0,55,55,116,"[0, 1]",right,1,333,25,f,y,y,2019_Apr_25_1500,2AFC_task,59.95060069179612,
stimuli/rgb_scene000102_render000003.png,stimuli/rgb_scene000102_render000006.png,0,56,56,143,"[0, 1]",right,1,333,25,f,y,y,2019_Apr_25_1500,2AFC_task,59.95060069179612,
stimuli/rgb_scene000195_render000003.png,stimuli/rgb_scene000195_render000005.png,0,57,57,205,"[1, 0]",left,1,333,25,f,y,y,2019_Apr_25_1500,2AFC_task,59.95060069179612,
stimuli/rgb_scene000090_render000001.png,stimuli/rgb_scene000090_render000004.png,0,58,58,71,"[0, 1]",right,1,333,25,f,y,y,2019_Apr_25_1500,2AFC_task,59.95060069179612,
stimuli/rgb_scene000113_render000004.png,stimuli/rgb_scene000113_render000006.png,0,59,59,166,"[0, 1]",right,1,333,25,f,y,y,2019_Apr_25_1500,2AFC_task,59.95060069179612,
stimuli/rgb_scene000195_render000001.png,stimuli/rgb_scene000195_render000002.png,0,60,60,195,"[0, 1]",right,1,333,25,f,y,y,2019_Apr_25_1500,2AFC_task,59.95060069179612,
stimuli/rgb_scene000113_render000003.png,stimuli/rgb_scene000113_render000005.png,0,61,61,163,"[1, 0]",left,1,333,25,f,y,y,2019_Apr_25_1500,2AFC_task,59.95060069179612,
stimuli/rgb_scene000195_render000005.png,stimuli/rgb_scene000195_render000006.png,0,62,62,209,"[0, 1]",left,0,333,25,f,y,y,2019_Apr_25_1500,2AFC_task,59.95060069179612,
stimuli/rgb_scene000146_render000000.png,stimuli/rgb_scene000146_render000001.png,0,63,63,168,"[1, 0]",left,1,333,25,f,y,y,2019_Apr_25_1500,2AFC_task,59.95060069179612,
stimuli/rgb_scene000113_render000003.png,stimuli/rgb_scene000113_render000006.png,0,64,64,164,"[1, 0]",left,1,333,25,f,y,y,2019_Apr_25_1500,2AFC_task,59.95060069179612,
stimuli/rgb_scene000090_render000002.png,stimuli/rgb_scene000090_render000003.png,0,65,65,74,"[0, 1]",right,1,333,25,f,y,y,2019_Apr_25_1500,2AFC_task,59.95060069179612,
stimuli/rgb_scene000005_render000000.png,stimuli/rgb_scene000005_render000001.png,0,66,66,21,"[1, 0]",left,1,333,25,f,y,y,2019_Apr_25_1500,2AFC_task,59.95060069179612,
stimuli/rgb_scene000195_render000000.png,stimuli/rgb_scene000195_render000005.png,0,67,67,193,"[1, 0]",left,1,333,25,f,y,y,2019_Apr_25_1500,2AFC_task,59.95060069179612,
stimuli/rgb_scene000146_render000003.png,stimuli/rgb_scene000146_render000004.png,0,68,68,183,"[0, 1]",right,1,333,25,f,y,y,2019_Apr_25_1500,2AFC_task,59.95060069179612,
stimuli/rgb_scene000012_render000002.png,stimuli/rgb_scene000012_render000004.png,0,69,69,54,"[0, 1]",right,1,333,25,f,y,y,2019_Apr_25_1500,2AFC_task,59.95060069179612,
stimuli/rgb_scene000113_render000001.png,stimuli/rgb_scene000113_render000005.png,0,70,70,156,"[1, 0]",left,1,333,25,f,y,y,2019_Apr_25_1500,2AFC_task,59.95060069179612,
stimuli/rgb_scene000095_render000001.png,stimuli/rgb_scene000095_render000005.png,0,71,71,93,"[0, 1]",right,1,333,25,f,y,y,2019_Apr_25_1500,2AFC_task,59.95060069179612,
stimuli/rgb_scene000004_render000000.png,stimuli/rgb_scene000004_render000002.png,0,72,72,1,"[0, 1]",right,1,333,25,f,y,y,2019_Apr_25_1500,2AFC_task,59.95060069179612,
stimuli/rgb_scene000102_render000000.png,stimuli/rgb_scene000102_render000005.png,0,73,73,130,"[0, 1]",right,1,333,25,f,y,y,2019_Apr_25_1500,2AFC_task,59.95060069179612,
stimuli/rgb_scene000005_render000002.png,stimuli/rgb_scene000005_render000003.png,0,74,74,32,"[1, 0]",left,1,333,25,f,y,y,2019_Apr_25_1500,2AFC_task,59.95060069179612,
stimuli/rgb_scene000102_render000002.png,stimuli/rgb_scene000102_render000006.png,0,75,75,140,"[1, 0]",left,1,333,25,f,y,y,2019_Apr_25_1500,2AFC_task,59.95060069179612,
stimuli/rgb_scene000146_render000001.png,stimuli/rgb_scene000146_render000006.png,0,76,76,178,"[1, 0]",left,1,333,25,f,y,y,2019_Apr_25_1500,2AFC_task,59.95060069179612,
stimuli/rgb_scene000012_render000000.png,stimuli/rgb_scene000012_render000002.png,0,77,77,43,"[1, 0]",left,1,333,25,f,y,y,2019_Apr_25_1500,2AFC_task,59.95060069179612,
stimuli/rgb_scene000004_render000000.png,stimuli/rgb_scene000004_render000005.png,0,78,78,4,"[0, 1]",right,1,333,25,f,y,y,2019_Apr_25_1500,2AFC_task,59.95060069179612,
stimuli/rgb_scene000146_render000002.png,stimuli/rgb_scene000146_render000003.png,0,79,79,179,"[0, 1]",right,1,333,25,f,y,y,2019_Apr_25_1500,2AFC_task,59.95060069179612,
stimuli/rgb_scene000012_render000003.png,stimuli/rgb_scene000012_render000005.png,0,80,80,58,"[0, 1]",right,1,333,25,f,y,y,2019_Apr_25_1500,2AFC_task,59.95060069179612,
stimuli/rgb_scene000096_render000002.png,stimuli/rgb_scene000096_render000004.png,0,81,81,117,"[0, 1]",right,1,333,25,f,y,y,2019_Apr_25_1500,2AFC_task,59.95060069179612,
stimuli/rgb_scene000090_render000000.png,stimuli/rgb_scene000090_render000001.png,0,82,82,63,"[0, 1]",left,0,333,25,f,y,y,2019_Apr_25_1500,2AFC_task,59.95060069179612,
stimuli/rgb_scene000012_render000002.png,stimuli/rgb_scene000012_render000006.png,0,83,83,56,"[0, 1]",right,1,333,25,f,y,y,2019_Apr_25_1500,2AFC_task,59.95060069179612,
stimuli/rgb_scene000012_render000000.png,stimuli/rgb_scene000012_render000003.png,0,84,84,44,"[1, 0]",left,1,333,25,f,y,y,2019_Apr_25_1500,2AFC_task,59.95060069179612,
stimuli/rgb_scene000102_render000001.png,stimuli/rgb_scene000102_render000002.png,0,85,85,132,"[1, 0]",left,1,333,25,f,y,y,2019_Apr_25_1500,2AFC_task,59.95060069179612,
stimuli/rgb_scene000004_render000002.png,stimuli/rgb_scene000004_render000005.png,0,86,86,13,"[0, 1]",right,1,333,25,f,y,y,2019_Apr_25_1500,2AFC_task,59.95060069179612,
stimuli/rgb_scene000096_render000004.png,stimuli/rgb_scene000096_render000005.png,0,87,87,123,"[1, 0]",left,1,333,25,f,y,y,2019_Apr_25_1500,2AFC_task,59.95060069179612,
stimuli/rgb_scene000146_render000001.png,stimuli/rgb_scene000146_render000002.png,0,88,88,174,"[1, 0]",left,1,333,25,f,y,y,2019_Apr_25_1500,2AFC_task,59.95060069179612,
stimuli/rgb_scene000096_render000000.png,stimuli/rgb_scene000096_render000005.png,0,89,89,109,"[1, 0]",left,1,333,25,f,y,y,2019_Apr_25_1500,2AFC_task,59.95060069179612,
stimuli/rgb_scene000102_render000000.png,stimuli/rgb_scene000102_render000006.png,0,90,90,131,"[0, 1]",right,1,333,25,f,y,y,2019_Apr_25_1500,2AFC_task,59.95060069179612,
stimuli/rgb_scene000096_render000001.png,stimuli/rgb_scene000096_render000005.png,0,91,91,114,"[1, 0]",left,1,333,25,f,y,y,2019_Apr_25_1500,2AFC_task,59.95060069179612,
stimuli/rgb_scene000146_render000000.png,stimuli/rgb_scene000146_render000004.png,0,92,92,171,"[1, 0]",left,1,333,25,f,y,y,2019_Apr_25_1500,2AFC_task,59.95060069179612,
stimuli/rgb_scene000146_render000000.png,stimuli/rgb_scene000146_render000006.png,0,93,93,173,"[0, 1]",right,1,333,25,f,y,y,2019_Apr_25_1500,2AFC_task,59.95060069179612,
stimuli/rgb_scene000005_render000003.png,stimuli/rgb_scene000005_render000006.png,0,94,94,38,"[0, 1]",left,0,333,25,f,y,y,2019_Apr_25_1500,2AFC_task,59.95060069179612,
stimuli/rgb_scene000096_render000003.png,stimuli/rgb_scene000096_render000004.png,0,95,95,120,"[1, 0]",left,1,333,25,f,y,y,2019_Apr_25_1500,2AFC_task,59.95060069179612,
stimuli/rgb_scene000004_render000004.png,stimuli/rgb_scene000004_render000005.png,0,96,96,18,"[0, 1]",right,1,333,25,f,y,y,2019_Apr_25_1500,2AFC_task,59.95060069179612,
stimuli/rgb_scene000012_render000002.png,stimuli/rgb_scene000012_render000003.png,0,97,97,53,"[1, 0]",left,1,333,25,f,y,y,2019_Apr_25_1500,2AFC_task,59.95060069179612,
stimuli/rgb_scene000146_render000001.png,stimuli/rgb_scene000146_render000004.png,0,98,98,176,"[0, 1]",right,1,333,25,f,y,y,2019_Apr_25_1500,2AFC_task,59.95060069179612,
stimuli/rgb_scene000005_render000002.png,stimuli/rgb_scene000005_render000005.png,0,99,99,34,"[1, 0]",right,0,333,25,f,y,y,2019_Apr_25_1500,2AFC_task,59.95060069179612,
stimuli/rgb_scene000005_render000003.png,stimuli/rgb_scene000005_render000005.png,0,100,100,37,"[0, 1]",left,0,333,25,f,y,y,2019_Apr_25_1500,2AFC_task,59.95060069179612,
stimuli/rgb_scene000012_render000001.png,stimuli/rgb_scene000012_render000005.png,0,101,101,51,"[0, 1]",right,1,333,25,f,y,y,2019_Apr_25_1500,2AFC_task,59.95060069179612,
stimuli/rgb_scene000095_render000003.png,stimuli/rgb_scene000095_render000004.png,0,102,102,99,"[1, 0]",left,1,333,25,f,y,y,2019_Apr_25_1500,2AFC_task,59.95060069179612,
stimuli/rgb_scene000004_render000002.png,stimuli/rgb_scene000004_render000006.png,0,103,103,14,"[0, 1]",right,1,333,25,f,y,y,2019_Apr_25_1500,2AFC_task,59.95060069179612,
stimuli/rgb_scene000146_render000000.png,stimuli/rgb_scene000146_render000005.png,0,104,104,172,"[0, 1]",right,1,333,25,f,y,y,2019_Apr_25_1500,2AFC_task,59.95060069179612,
stimuli/rgb_scene000004_render000002.png,stimuli/rgb_scene000004_render000004.png,0,105,105,12,"[1, 0]",left,1,333,25,f,y,y,2019_Apr_25_1500,2AFC_task,59.95060069179612,
stimuli/rgb_scene000090_render000003.png,stimuli/rgb_scene000090_render000004.png,0,106,106,78,"[0, 1]",left,0,333,25,f,y,y,2019_Apr_25_1500,2AFC_task,59.95060069179612,
stimuli/rgb_scene000146_render000004.png,stimuli/rgb_scene000146_render000005.png,0,107,107,186,"[1, 0]",left,1,333,25,f,y,y,2019_Apr_25_1500,2AFC_task,59.95060069179612,
stimuli/rgb_scene000113_render000001.png,stimuli/rgb_scene000113_render000003.png,0,108,108,154,"[0, 1]",right,1,333,25,f,y,y,2019_Apr_25_1500,2AFC_task,59.95060069179612,
stimuli/rgb_scene000102_render000000.png,stimuli/rgb_scene000102_render000004.png,0,109,109,129,"[1, 0]",left,1,333,25,f,y,y,2019_Apr_25_1500,2AFC_task,59.95060069179612,
stimuli/rgb_scene000146_render000005.png,stimuli/rgb_scene000146_render000006.png,0,110,110,188,"[0, 1]",left,0,333,25,f,y,y,2019_Apr_25_1500,2AFC_task,59.95060069179612,
stimuli/rgb_scene000095_render000001.png,stimuli/rgb_scene000095_render000002.png,0,111,111,90,"[0, 1]",right,1,333,25,f,y,y,2019_Apr_25_1500,2AFC_task,59.95060069179612,
stimuli/rgb_scene000195_render000000.png,stimuli/rgb_scene000195_render000001.png,0,112,112,189,"[1, 0]",left,1,333,25,f,y,y,2019_Apr_25_1500,2AFC_task,59.95060069179612,
stimuli/rgb_scene000005_render000002.png,stimuli/rgb_scene000005_render000006.png,0,113,113,35,"[1, 0]",right,0,333,25,f,y,y,2019_Apr_25_1500,2AFC_task,59.95060069179612,
stimuli/rgb_scene000102_render000000.png,stimuli/rgb_scene000102_render000002.png,0,114,114,127,"[1, 0]",left,1,333,25,f,y,y,2019_Apr_25_1500,2AFC_task,59.95060069179612,
stimuli/rgb_scene000146_render000002.png,stimuli/rgb_scene000146_render000006.png,0,115,115,182,"[1, 0]",left,1,333,25,f,y,y,2019_Apr_25_1500,2AFC_task,59.95060069179612,
stimuli/rgb_scene000004_render000003.png,stimuli/rgb_scene000004_render000004.png,0,116,116,15,"[0, 1]",right,1,333,25,f,y,y,2019_Apr_25_1500,2AFC_task,59.95060069179612,
stimuli/rgb_scene000004_render000001.png,stimuli/rgb_scene000004_render000002.png,0,117,117,6,"[0, 1]",right,1,333,25,f,y,y,2019_Apr_25_1500,2AFC_task,59.95060069179612,
stimuli/rgb_scene000004_render000001.png,stimuli/rgb_scene000004_render000004.png,0,118,118,8,"[0, 1]",right,1,333,25,f,y,y,2019_Apr_25_1500,2AFC_task,59.95060069179612,
stimuli/rgb_scene000195_render000001.png,stimuli/rgb_scene000195_render000006.png,0,119,119,199,"[1, 0]",left,1,333,25,f,y,y,2019_Apr_25_1500,2AFC_task,59.95060069179612,
stimuli/rgb_scene000195_render000000.png,stimuli/rgb_scene000195_render000004.png,0,120,120,192,"[0, 1]",right,1,333,25,f,y,y,2019_Apr_25_1500,2AFC_task,59.95060069179612,
stimuli/rgb_scene000102_render000001.png,stimuli/rgb_scene000102_render000004.png,0,121,121,134,"[1, 0]",left,1,333,25,f,y,y,2019_Apr_25_1500,2AFC_task,59.95060069179612,
stimuli/rgb_scene000004_render000000.png,stimuli/rgb_scene000004_render000006.png,0,122,122,5,"[1, 0]",left,1,333,25,f,y,y,2019_Apr_25_1500,2AFC_task,59.95060069179612,
stimuli/rgb_scene000195_render000003.png,stimuli/rgb_scene000195_render000004.png,0,123,123,204,"[0, 1]",left,0,333,25,f,y,y,2019_Apr_25_1500,2AFC_task,59.95060069179612,
stimuli/rgb_scene000012_render000001.png,stimuli/rgb_scene000012_render000004.png,0,124,124,50,"[1, 0]",left,1,333,25,f,y,y,2019_Apr_25_1500,2AFC_task,59.95060069179612,
stimuli/rgb_scene000004_render000005.png,stimuli/rgb_scene000004_render000006.png,0,125,125,20,"[1, 0]",right,0,333,25,f,y,y,2019_Apr_25_1500,2AFC_task,59.95060069179612,
stimuli/rgb_scene000195_render000004.png,stimuli/rgb_scene000195_render000006.png,0,126,126,208,"[0, 1]",left,0,333,25,f,y,y,2019_Apr_25_1500,2AFC_task,59.95060069179612,
stimuli/rgb_scene000195_render000002.png,stimuli/rgb_scene000195_render000006.png,0,127,127,203,"[1, 0]",left,1,333,25,f,y,y,2019_Apr_25_1500,2AFC_task,59.95060069179612,
stimuli/rgb_scene000113_render000001.png,stimuli/rgb_scene000113_render000002.png,0,128,128,153,"[0, 1]",right,1,333,25,f,y,y,2019_Apr_25_1500,2AFC_task,59.95060069179612,
stimuli/rgb_scene000113_render000000.png,stimuli/rgb_scene000113_render000004.png,0,129,129,150,"[0, 1]",right,1,333,25,f,y,y,2019_Apr_25_1500,2AFC_task,59.95060069179612,
stimuli/rgb_scene000004_render000001.png,stimuli/rgb_scene000004_render000003.png,0,130,130,7,"[1, 0]",left,1,333,25,f,y,y,2019_Apr_25_1500,2AFC_task,59.95060069179612,
stimuli/rgb_scene000090_render000000.png,stimuli/rgb_scene000090_render000006.png,0,131,131,68,"[1, 0]",left,1,333,25,f,y,y,2019_Apr_25_1500,2AFC_task,59.95060069179612,
stimuli/rgb_scene000102_render000002.png,stimuli/rgb_scene000102_render000005.png,0,132,132,139,"[1, 0]",left,1,333,25,f,y,y,2019_Apr_25_1500,2AFC_task,59.95060069179612,
stimuli/rgb_scene000090_render000001.png,stimuli/rgb_scene000090_render000005.png,0,133,133,72,"[0, 1]",right,1,333,25,f,y,y,2019_Apr_25_1500,2AFC_task,59.95060069179612,
stimuli/rgb_scene000195_render000001.png,stimuli/rgb_scene000195_render000005.png,0,134,134,198,"[0, 1]",right,1,333,25,f,y,y,2019_Apr_25_1500,2AFC_task,59.95060069179612,
stimuli/rgb_scene000090_render000001.png,stimuli/rgb_scene000090_render000006.png,0,135,135,73,"[0, 1]",right,1,333,25,f,y,y,2019_Apr_25_1500,2AFC_task,59.95060069179612,
stimuli/rgb_scene000012_render000000.png,stimuli/rgb_scene000012_render000005.png,0,136,136,46,"[0, 1]",right,1,333,25,f,y,y,2019_Apr_25_1500,2AFC_task,59.95060069179612,
stimuli/rgb_scene000146_render000004.png,stimuli/rgb_scene000146_render000006.png,0,137,137,187,"[0, 1]",right,1,333,25,f,y,y,2019_Apr_25_1500,2AFC_task,59.95060069179612,
stimuli/rgb_scene000012_render000002.png,stimuli/rgb_scene000012_render000005.png,0,138,138,55,"[0, 1]",right,1,333,25,f,y,y,2019_Apr_25_1500,2AFC_task,59.95060069179612,
stimuli/rgb_scene000090_render000002.png,stimuli/rgb_scene000090_render000005.png,0,139,139,76,"[0, 1]",right,1,333,25,f,y,y,2019_Apr_25_1500,2AFC_task,59.95060069179612,
stimuli/rgb_scene000095_render000002.png,stimuli/rgb_scene000095_render000006.png,0,140,140,98,"[0, 1]",right,1,333,25,f,y,y,2019_Apr_25_1500,2AFC_task,59.95060069179612,
stimuli/rgb_scene000095_render000000.png,stimuli/rgb_scene000095_render000004.png,0,141,141,87,"[0, 1]",right,1,333,25,f,y,y,2019_Apr_25_1500,2AFC_task,59.95060069179612,
stimuli/rgb_scene000102_render000005.png,stimuli/rgb_scene000102_render000006.png,0,142,142,146,"[0, 1]",left,0,333,25,f,y,y,2019_Apr_25_1500,2AFC_task,59.95060069179612,
stimuli/rgb_scene000095_render000003.png,stimuli/rgb_scene000095_render000005.png,0,143,143,100,"[0, 1]",right,1,333,25,f,y,y,2019_Apr_25_1500,2AFC_task,59.95060069179612,
stimuli/rgb_scene000195_render000003.png,stimuli/rgb_scene000195_render000006.png,0,144,144,206,"[1, 0]",left,1,333,25,f,y,y,2019_Apr_25_1500,2AFC_task,59.95060069179612,
stimuli/rgb_scene000012_render000003.png,stimuli/rgb_scene000012_render000006.png,0,145,145,59,"[0, 1]",right,1,333,25,f,y,y,2019_Apr_25_1500,2AFC_task,59.95060069179612,
stimuli/rgb_scene000113_render000000.png,stimuli/rgb_scene000113_render000005.png,0,146,146,151,"[0, 1]",right,1,333,25,f,y,y,2019_Apr_25_1500,2AFC_task,59.95060069179612,
stimuli/rgb_scene000113_render000001.png,stimuli/rgb_scene000113_render000006.png,0,147,147,157,"[0, 1]",right,1,333,25,f,y,y,2019_Apr_25_1500,2AFC_task,59.95060069179612,
stimuli/rgb_scene000005_render000003.png,stimuli/rgb_scene000005_render000004.png,0,148,148,36,"[0, 1]",left,0,333,25,f,y,y,2019_Apr_25_1500,2AFC_task,59.95060069179612,
stimuli/rgb_scene000096_render000000.png,stimuli/rgb_scene000096_render000001.png,0,149,149,105,"[0, 1]",right,1,333,25,f,y,y,2019_Apr_25_1500,2AFC_task,59.95060069179612,
stimuli/rgb_scene000102_render000001.png,stimuli/rgb_scene000102_render000003.png,0,150,150,133,"[1, 0]",left,1,333,25,f,y,y,2019_Apr_25_1500,2AFC_task,59.95060069179612,
stimuli/rgb_scene000102_render000000.png,stimuli/rgb_scene000102_render000001.png,0,151,151,126,"[1, 0]",left,1,333,25,f,y,y,2019_Apr_25_1500,2AFC_task,59.95060069179612,
stimuli/rgb_scene000090_render000001.png,stimuli/rgb_scene000090_render000003.png,0,152,152,70,"[1, 0]",left,1,333,25,f,y,y,2019_Apr_25_1500,2AFC_task,59.95060069179612,
stimuli/rgb_scene000102_render000000.png,stimuli/rgb_scene000102_render000003.png,0,153,153,128,"[0, 1]",right,1,333,25,f,y,y,2019_Apr_25_1500,2AFC_task,59.95060069179612,
stimuli/rgb_scene000096_render000001.png,stimuli/rgb_scene000096_render000004.png,0,154,154,113,"[1, 0]",left,1,333,25,f,y,y,2019_Apr_25_1500,2AFC_task,59.95060069179612,
stimuli/rgb_scene000102_render000004.png,stimuli/rgb_scene000102_render000006.png,0,155,155,145,"[0, 1]",left,0,333,25,f,y,y,2019_Apr_25_1500,2AFC_task,59.95060069179612,
stimuli/rgb_scene000004_render000000.png,stimuli/rgb_scene000004_render000003.png,0,156,156,2,"[1, 0]",left,1,333,25,f,y,y,2019_Apr_25_1500,2AFC_task,59.95060069179612,
stimuli/rgb_scene000102_render000002.png,stimuli/rgb_scene000102_render000003.png,0,157,157,137,"[0, 1]",right,1,333,25,f,y,y,2019_Apr_25_1500,2AFC_task,59.95060069179612,
stimuli/rgb_scene000095_render000005.png,stimuli/rgb_scene000095_render000006.png,0,158,158,104,"[1, 0]",left,1,333,25,f,y,y,2019_Apr_25_1500,2AFC_task,59.95060069179612,
stimuli/rgb_scene000146_render000001.png,stimuli/rgb_scene000146_render000005.png,0,159,159,177,"[0, 1]",right,1,333,25,f,y,y,2019_Apr_25_1500,2AFC_task,59.95060069179612,
stimuli/rgb_scene000005_render000000.png,stimuli/rgb_scene000005_render000006.png,0,160,160,26,"[1, 0]",left,1,333,25,f,y,y,2019_Apr_25_1500,2AFC_task,59.95060069179612,
stimuli/rgb_scene000146_render000002.png,stimuli/rgb_scene000146_render000005.png,0,161,161,181,"[0, 1]",right,1,333,25,f,y,y,2019_Apr_25_1500,2AFC_task,59.95060069179612,
stimuli/rgb_scene000095_render000003.png,stimuli/rgb_scene000095_render000006.png,0,162,162,101,"[0, 1]",right,1,333,25,f,y,y,2019_Apr_25_1500,2AFC_task,59.95060069179612,
stimuli/rgb_scene000195_render000002.png,stimuli/rgb_scene000195_render000005.png,0,163,163,202,"[1, 0]",left,1,333,25,f,y,y,2019_Apr_25_1500,2AFC_task,59.95060069179612,
stimuli/rgb_scene000004_render000000.png,stimuli/rgb_scene000004_render000001.png,0,164,164,0,"[0, 1]",right,1,333,25,f,y,y,2019_Apr_25_1500,2AFC_task,59.95060069179612,
stimuli/rgb_scene000102_render000001.png,stimuli/rgb_scene000102_render000005.png,0,165,165,135,"[1, 0]",left,1,333,25,f,y,y,2019_Apr_25_1500,2AFC_task,59.95060069179612,
stimuli/rgb_scene000005_render000001.png,stimuli/rgb_scene000005_render000006.png,0,166,166,31,"[1, 0]",left,1,333,25,f,y,y,2019_Apr_25_1500,2AFC_task,59.95060069179612,
stimuli/rgb_scene000012_render000001.png,stimuli/rgb_scene000012_render000006.png,0,167,167,52,"[1, 0]",left,1,333,25,f,y,y,2019_Apr_25_1500,2AFC_task,59.95060069179612,
stimuli/rgb_scene000113_render000000.png,stimuli/rgb_scene000113_render000001.png,0,168,168,147,"[0, 1]",right,1,333,25,f,y,y,2019_Apr_25_1500,2AFC_task,59.95060069179612,
stimuli/rgb_scene000090_render000000.png,stimuli/rgb_scene000090_render000002.png,0,169,169,64,"[0, 1]",right,1,333,25,f,y,y,2019_Apr_25_1500,2AFC_task,59.95060069179612,
stimuli/rgb_scene000095_render000000.png,stimuli/rgb_scene000095_render000006.png,0,170,170,89,"[0, 1]",right,1,333,25,f,y,y,2019_Apr_25_1500,2AFC_task,59.95060069179612,
stimuli/rgb_scene000005_render000001.png,stimuli/rgb_scene000005_render000003.png,0,171,171,28,"[1, 0]",left,1,333,25,f,y,y,2019_Apr_25_1500,2AFC_task,59.95060069179612,
stimuli/rgb_scene000096_render000000.png,stimuli/rgb_scene000096_render000002.png,0,172,172,106,"[1, 0]",left,1,333,25,f,y,y,2019_Apr_25_1500,2AFC_task,59.95060069179612,
stimuli/rgb_scene000012_render000005.png,stimuli/rgb_scene000012_render000006.png,0,173,173,62,"[1, 0]",left,1,333,25,f,y,y,2019_Apr_25_1500,2AFC_task,59.95060069179612,
stimuli/rgb_scene000090_render000005.png,stimuli/rgb_scene000090_render000006.png,0,174,174,83,"[0, 1]",left,0,333,25,f,y,y,2019_Apr_25_1500,2AFC_task,59.95060069179612,
stimuli/rgb_scene000095_render000000.png,stimuli/rgb_scene000095_render000005.png,0,175,175,88,"[1, 0]",left,1,333,25,f,y,y,2019_Apr_25_1500,2AFC_task,59.95060069179612,
stimuli/rgb_scene000005_render000002.png,stimuli/rgb_scene000005_render000004.png,0,176,176,33,"[1, 0]",left,1,333,25,f,y,y,2019_Apr_25_1500,2AFC_task,59.95060069179612,
stimuli/rgb_scene000090_render000000.png,stimuli/rgb_scene000090_render000004.png,0,177,177,66,"[0, 1]",right,1,333,25,f,y,y,2019_Apr_25_1500,2AFC_task,59.95060069179612,
stimuli/rgb_scene000090_render000003.png,stimuli/rgb_scene000090_render000006.png,0,178,178,80,"[1, 0]",left,1,333,25,f,y,y,2019_Apr_25_1500,2AFC_task,59.95060069179612,
stimuli/rgb_scene000095_render000001.png,stimuli/rgb_scene000095_render000006.png,0,179,179,94,"[1, 0]",left,1,333,25,f,y,y,2019_Apr_25_1500,2AFC_task,59.95060069179612,
stimuli/rgb_scene000096_render000003.png,stimuli/rgb_scene000096_render000005.png,0,180,180,121,"[1, 0]",left,1,333,25,f,y,y,2019_Apr_25_1500,2AFC_task,59.95060069179612,
stimuli/rgb_scene000004_render000003.png,stimuli/rgb_scene000004_render000005.png,0,181,181,16,"[0, 1]",right,1,333,25,f,y,y,2019_Apr_25_1500,2AFC_task,59.95060069179612,
stimuli/rgb_scene000096_render000001.png,stimuli/rgb_scene000096_render000006.png,0,182,182,115,"[1, 0]",left,1,333,25,f,y,y,2019_Apr_25_1500,2AFC_task,59.95060069179612,
stimuli/rgb_scene000005_render000000.png,stimuli/rgb_scene000005_render000005.png,0,183,183,25,"[0, 1]",right,1,333,25,f,y,y,2019_Apr_25_1500,2AFC_task,59.95060069179612,
stimuli/rgb_scene000090_render000002.png,stimuli/rgb_scene000090_render000006.png,0,184,184,77,"[0, 1]",right,1,333,25,f,y,y,2019_Apr_25_1500,2AFC_task,59.95060069179612,
stimuli/rgb_scene000195_render000000.png,stimuli/rgb_scene000195_render000002.png,0,185,185,190,"[0, 1]",right,1,333,25,f,y,y,2019_Apr_25_1500,2AFC_task,59.95060069179612,
stimuli/rgb_scene000146_render000003.png,stimuli/rgb_scene000146_render000005.png,0,186,186,184,"[1, 0]",left,1,333,25,f,y,y,2019_Apr_25_1500,2AFC_task,59.95060069179612,
stimuli/rgb_scene000095_render000001.png,stimuli/rgb_scene000095_render000003.png,0,187,187,91,"[1, 0]",left,1,333,25,f,y,y,2019_Apr_25_1500,2AFC_task,59.95060069179612,
stimuli/rgb_scene000146_render000001.png,stimuli/rgb_scene000146_render000003.png,0,188,188,175,"[0, 1]",right,1,333,25,f,y,y,2019_Apr_25_1500,2AFC_task,59.95060069179612,
stimuli/rgb_scene000113_render000005.png,stimuli/rgb_scene000113_render000006.png,0,189,189,167,"[0, 1]",right,1,333,25,f,y,y,2019_Apr_25_1500,2AFC_task,59.95060069179612,
stimuli/rgb_scene000096_render000003.png,stimuli/rgb_scene000096_render000006.png,0,190,190,122,"[0, 1]",right,1,333,25,f,y,y,2019_Apr_25_1500,2AFC_task,59.95060069179612,
stimuli/rgb_scene000095_render000000.png,stimuli/rgb_scene000095_render000003.png,0,191,191,86,"[1, 0]",left,1,333,25,f,y,y,2019_Apr_25_1500,2AFC_task,59.95060069179612,
stimuli/rgb_scene000012_render000000.png,stimuli/rgb_scene000012_render000001.png,0,192,192,42,"[1, 0]",left,1,333,25,f,y,y,2019_Apr_25_1500,2AFC_task,59.95060069179612,
stimuli/rgb_scene000096_render000002.png,stimuli/rgb_scene000096_render000006.png,0,193,193,119,"[0, 1]",right,1,333,25,f,y,y,2019_Apr_25_1500,2AFC_task,59.95060069179612,
stimuli/rgb_scene000113_render000003.png,stimuli/rgb_scene000113_render000004.png,0,194,194,162,"[1, 0]",left,1,333,25,f,y,y,2019_Apr_25_1500,2AFC_task,59.95060069179612,
stimuli/rgb_scene000090_render000001.png,stimuli/rgb_scene000090_render000002.png,0,195,195,69,"[1, 0]",right,0,333,25,f,y,y,2019_Apr_25_1500,2AFC_task,59.95060069179612,
stimuli/rgb_scene000012_render000003.png,stimuli/rgb_scene000012_render000004.png,0,196,196,57,"[0, 1]",right,1,333,25,f,y,y,2019_Apr_25_1500,2AFC_task,59.95060069179612,
stimuli/rgb_scene000004_render000002.png,stimuli/rgb_scene000004_render000003.png,0,197,197,11,"[1, 0]",left,1,333,25,f,y,y,2019_Apr_25_1500,2AFC_task,59.95060069179612,
stimuli/rgb_scene000146_render000002.png,stimuli/rgb_scene000146_render000004.png,0,198,198,180,"[0, 1]",right,1,333,25,f,y,y,2019_Apr_25_1500,2AFC_task,59.95060069179612,
stimuli/rgb_scene000004_render000001.png,stimuli/rgb_scene000004_render000005.png,0,199,199,9,"[0, 1]",right,1,333,25,f,y,y,2019_Apr_25_1500,2AFC_task,59.95060069179612,
stimuli/rgb_scene000012_render000001.png,stimuli/rgb_scene000012_render000002.png,0,200,200,48,"[1, 0]",left,1,333,25,f,y,y,2019_Apr_25_1500,2AFC_task,59.95060069179612,
stimuli/rgb_scene000005_render000004.png,stimuli/rgb_scene000005_render000006.png,0,201,201,40,"[0, 1]",left,0,333,25,f,y,y,2019_Apr_25_1500,2AFC_task,59.95060069179612,
stimuli/rgb_scene000113_render000002.png,stimuli/rgb_scene000113_render000006.png,0,202,202,161,"[1, 0]",left,1,333,25,f,y,y,2019_Apr_25_1500,2AFC_task,59.95060069179612,
stimuli/rgb_scene000195_render000001.png,stimuli/rgb_scene000195_render000003.png,0,203,203,196,"[1, 0]",left,1,333,25,f,y,y,2019_Apr_25_1500,2AFC_task,59.95060069179612,
stimuli/rgb_scene000096_render000005.png,stimuli/rgb_scene000096_render000006.png,0,204,204,125,"[1, 0]",left,1,333,25,f,y,y,2019_Apr_25_1500,2AFC_task,59.95060069179612,
stimuli/rgb_scene000195_render000001.png,stimuli/rgb_scene000195_render000004.png,0,205,205,197,"[1, 0]",left,1,333,25,f,y,y,2019_Apr_25_1500,2AFC_task,59.95060069179612,
stimuli/rgb_scene000090_render000004.png,stimuli/rgb_scene000090_render000005.png,0,206,206,81,"[0, 1]",right,1,333,25,f,y,y,2019_Apr_25_1500,2AFC_task,59.95060069179612,
stimuli/rgb_scene000096_render000000.png,stimuli/rgb_scene000096_render000004.png,0,207,207,108,"[1, 0]",left,1,333,25,f,y,y,2019_Apr_25_1500,2AFC_task,59.95060069179612,
stimuli/rgb_scene000004_render000001.png,stimuli/rgb_scene000004_render000006.png,0,208,208,10,"[0, 1]",right,1,333,25,f,y,y,2019_Apr_25_1500,2AFC_task,59.95060069179612,
stimuli/rgb_scene000113_render000002.png,stimuli/rgb_scene000113_render000004.png,0,209,209,159,"[1, 0]",left,1,333,25,f,y,y,2019_Apr_25_1500,2AFC_task,59.95060069179612,
stimuli/rgb_scene000095_render000004.png,stimuli/rgb_scene000095_render000005.png,1,0,210,102,"[1, 0]",left,1,333,25,f,y,y,2019_Apr_25_1500,2AFC_task,59.95060069179612,
stimuli/rgb_scene000095_render000000.png,stimuli/rgb_scene000095_render000006.png,1,1,211,89,"[1, 0]",left,1,333,25,f,y,y,2019_Apr_25_1500,2AFC_task,59.95060069179612,
stimuli/rgb_scene000005_render000000.png,stimuli/rgb_scene000005_render000003.png,1,2,212,23,"[0, 1]",right,1,333,25,f,y,y,2019_Apr_25_1500,2AFC_task,59.95060069179612,
stimuli/rgb_scene000096_render000001.png,stimuli/rgb_scene000096_render000003.png,1,3,213,112,"[0, 1]",right,1,333,25,f,y,y,2019_Apr_25_1500,2AFC_task,59.95060069179612,
stimuli/rgb_scene000113_render000001.png,stimuli/rgb_scene000113_render000003.png,1,4,214,154,"[1, 0]",left,1,333,25,f,y,y,2019_Apr_25_1500,2AFC_task,59.95060069179612,
stimuli/rgb_scene000005_render000003.png,stimuli/rgb_scene000005_render000005.png,1,5,215,37,"[1, 0]",left,1,333,25,f,y,y,2019_Apr_25_1500,2AFC_task,59.95060069179612,
stimuli/rgb_scene000012_render000004.png,stimuli/rgb_scene000012_render000006.png,1,6,216,61,"[1, 0]",left,1,333,25,f,y,y,2019_Apr_25_1500,2AFC_task,59.95060069179612,
stimuli/rgb_scene000095_render000000.png,stimuli/rgb_scene000095_render000001.png,1,7,217,84,"[1, 0]",left,1,333,25,f,y,y,2019_Apr_25_1500,2AFC_task,59.95060069179612,
stimuli/rgb_scene000195_render000000.png,stimuli/rgb_scene000195_render000006.png,1,8,218,194,"[0, 1]",right,1,333,25,f,y,y,2019_Apr_25_1500,2AFC_task,59.95060069179612,
stimuli/rgb_scene000113_render000002.png,stimuli/rgb_scene000113_render000003.png,1,9,219,158,"[1, 0]",left,1,333,25,f,y,y,2019_Apr_25_1500,2AFC_task,59.95060069179612,
stimuli/rgb_scene000195_render000004.png,stimuli/rgb_scene000195_render000005.png,1,10,220,207,"[1, 0]",left,1,333,25,f,y,y,2019_Apr_25_1500,2AFC_task,59.95060069179612,
stimuli/rgb_scene000012_render000000.png,stimuli/rgb_scene000012_render000001.png,1,11,221,42,"[1, 0]",left,1,333,25,f,y,y,2019_Apr_25_1500,2AFC_task,59.95060069179612,
stimuli/rgb_scene000012_render000005.png,stimuli/rgb_scene000012_render000006.png,1,12,222,62,"[0, 1]",right,1,333,25,f,y,y,2019_Apr_25_1500,2AFC_task,59.95060069179612,
stimuli/rgb_scene000195_render000002.png,stimuli/rgb_scene000195_render000006.png,1,13,223,203,"[1, 0]",left,1,333,25,f,y,y,2019_Apr_25_1500,2AFC_task,59.95060069179612,
stimuli/rgb_scene000102_render000001.png,stimuli/rgb_scene000102_render000005.png,1,14,224,135,"[0, 1]",right,1,333,25,f,y,y,2019_Apr_25_1500,2AFC_task,59.95060069179612,
stimuli/rgb_scene000004_render000000.png,stimuli/rgb_scene000004_render000002.png,1,15,225,1,"[0, 1]",right,1,333,25,f,y,y,2019_Apr_25_1500,2AFC_task,59.95060069179612,
stimuli/rgb_scene000012_render000001.png,stimuli/rgb_scene000012_render000005.png,1,16,226,51,"[1, 0]",left,1,333,25,f,y,y,2019_Apr_25_1500,2AFC_task,59.95060069179612,
stimuli/rgb_scene000146_render000002.png,stimuli/rgb_scene000146_render000003.png,1,17,227,179,"[0, 1]",right,1,333,25,f,y,y,2019_Apr_25_1500,2AFC_task,59.95060069179612,
stimuli/rgb_scene000004_render000001.png,stimuli/rgb_scene000004_render000003.png,1,18,228,7,"[0, 1]",right,1,333,25,f,y,y,2019_Apr_25_1500,2AFC_task,59.95060069179612,
stimuli/rgb_scene000095_render000003.png,stimuli/rgb_scene000095_render000004.png,1,19,229,99,"[1, 0]",left,1,333,25,f,y,y,2019_Apr_25_1500,2AFC_task,59.95060069179612,
stimuli/rgb_scene000012_render000001.png,stimuli/rgb_scene000012_render000003.png,1,20,230,49,"[1, 0]",left,1,333,25,f,y,y,2019_Apr_25_1500,2AFC_task,59.95060069179612,
stimuli/rgb_scene000012_render000003.png,stimuli/rgb_scene000012_render000004.png,1,21,231,57,"[1, 0]",left,1,333,25,f,y,y,2019_Apr_25_1500,2AFC_task,59.95060069179612,
stimuli/rgb_scene000102_render000003.png,stimuli/rgb_scene000102_render000006.png,1,22,232,143,"[0, 1]",right,1,333,25,f,y,y,2019_Apr_25_1500,2AFC_task,59.95060069179612,
stimuli/rgb_scene000004_render000002.png,stimuli/rgb_scene000004_render000006.png,1,23,233,14,"[0, 1]",right,1,333,25,f,y,y,2019_Apr_25_1500,2AFC_task,59.95060069179612,
stimuli/rgb_scene000004_render000001.png,stimuli/rgb_scene000004_render000006.png,1,24,234,10,"[1, 0]",left,1,333,25,f,y,y,2019_Apr_25_1500,2AFC_task,59.95060069179612,
stimuli/rgb_scene000146_render000003.png,stimuli/rgb_scene000146_render000004.png,1,25,235,183,"[0, 1]",right,1,333,25,f,y,y,2019_Apr_25_1500,2AFC_task,59.95060069179612,
stimuli/rgb_scene000102_render000001.png,stimuli/rgb_scene000102_render000002.png,1,26,236,132,"[0, 1]",right,1,333,25,f,y,y,2019_Apr_25_1500,2AFC_task,59.95060069179612,
stimuli/rgb_scene000195_render000000.png,stimuli/rgb_scene000195_render000004.png,1,27,237,192,"[1, 0]",left,1,333,25,f,y,y,2019_Apr_25_1500,2AFC_task,59.95060069179612,
stimuli/rgb_scene000102_render000003.png,stimuli/rgb_scene000102_render000004.png,1,28,238,141,"[1, 0]",left,1,333,25,f,y,y,2019_Apr_25_1500,2AFC_task,59.95060069179612,
stimuli/rgb_scene000095_render000003.png,stimuli/rgb_scene000095_render000005.png,1,29,239,100,"[1, 0]",left,1,333,25,f,y,y,2019_Apr_25_1500,2AFC_task,59.95060069179612,
stimuli/rgb_scene000012_render000001.png,stimuli/rgb_scene000012_render000004.png,1,30,240,50,"[1, 0]",left,1,333,25,f,y,y,2019_Apr_25_1500,2AFC_task,59.95060069179612,
stimuli/rgb_scene000004_render000000.png,stimuli/rgb_scene000004_render000001.png,1,31,241,0,"[1, 0]",left,1,333,25,f,y,y,2019_Apr_25_1500,2AFC_task,59.95060069179612,
stimuli/rgb_scene000102_render000000.png,stimuli/rgb_scene000102_render000004.png,1,32,242,129,"[0, 1]",right,1,333,25,f,y,y,2019_Apr_25_1500,2AFC_task,59.95060069179612,
stimuli/rgb_scene000004_render000000.png,stimuli/rgb_scene000004_render000003.png,1,33,243,2,"[1, 0]",left,1,333,25,f,y,y,2019_Apr_25_1500,2AFC_task,59.95060069179612,
stimuli/rgb_scene000195_render000003.png,stimuli/rgb_scene000195_render000005.png,1,34,244,205,"[1, 0]",left,1,333,25,f,y,y,2019_Apr_25_1500,2AFC_task,59.95060069179612,
stimuli/rgb_scene000195_render000000.png,stimuli/rgb_scene000195_render000005.png,1,35,245,193,"[1, 0]",left,1,333,25,f,y,y,2019_Apr_25_1500,2AFC_task,59.95060069179612,
stimuli/rgb_scene000096_render000000.png,stimuli/rgb_scene000096_render000006.png,1,36,246,110,"[0, 1]",right,1,333,25,f,y,y,2019_Apr_25_1500,2AFC_task,59.95060069179612,
stimuli/rgb_scene000096_render000005.png,stimuli/rgb_scene000096_render000006.png,1,37,247,125,"[1, 0]",left,1,333,25,f,y,y,2019_Apr_25_1500,2AFC_task,59.95060069179612,
stimuli/rgb_scene000096_render000003.png,stimuli/rgb_scene000096_render000006.png,1,38,248,122,"[1, 0]",left,1,333,25,f,y,y,2019_Apr_25_1500,2AFC_task,59.95060069179612,
stimuli/rgb_scene000005_render000003.png,stimuli/rgb_scene000005_render000004.png,1,39,249,36,"[0, 1]",left,0,333,25,f,y,y,2019_Apr_25_1500,2AFC_task,59.95060069179612,
stimuli/rgb_scene000095_render000003.png,stimuli/rgb_scene000095_render000006.png,1,40,250,101,"[0, 1]",right,1,333,25,f,y,y,2019_Apr_25_1500,2AFC_task,59.95060069179612,
stimuli/rgb_scene000005_render000002.png,stimuli/rgb_scene000005_render000006.png,1,41,251,35,"[0, 1]",right,1,333,25,f,y,y,2019_Apr_25_1500,2AFC_task,59.95060069179612,
stimuli/rgb_scene000004_render000004.png,stimuli/rgb_scene000004_render000005.png,1,42,252,18,"[1, 0]",left,1,333,25,f,y,y,2019_Apr_25_1500,2AFC_task,59.95060069179612,
stimuli/rgb_scene000102_render000002.png,stimuli/rgb_scene000102_render000005.png,1,43,253,139,"[0, 1]",right,1,333,25,f,y,y,2019_Apr_25_1500,2AFC_task,59.95060069179612,
stimuli/rgb_scene000090_render000002.png,stimuli/rgb_scene000090_render000004.png,1,44,254,75,"[1, 0]",left,1,333,25,f,y,y,2019_Apr_25_1500,2AFC_task,59.95060069179612,
stimuli/rgb_scene000090_render000002.png,stimuli/rgb_scene000090_render000003.png,1,45,255,74,"[1, 0]",left,1,333,25,f,y,y,2019_Apr_25_1500,2AFC_task,59.95060069179612,
stimuli/rgb_scene000005_render000001.png,stimuli/rgb_scene000005_render000002.png,1,46,256,27,"[0, 1]",right,1,333,25,f,y,y,2019_Apr_25_1500,2AFC_task,59.95060069179612,
stimuli/rgb_scene000195_render000004.png,stimuli/rgb_scene000195_render000006.png,1,47,257,208,"[1, 0]",left,1,333,25,f,y,y,2019_Apr_25_1500,2AFC_task,59.95060069179612,
stimuli/rgb_scene000195_render000005.png,stimuli/rgb_scene000195_render000006.png,1,48,258,209,"[0, 1]",left,0,333,25,f,y,y,2019_Apr_25_1500,2AFC_task,59.95060069179612,
stimuli/rgb_scene000005_render000002.png,stimuli/rgb_scene000005_render000005.png,1,49,259,34,"[0, 1]",left,0,333,25,f,y,y,2019_Apr_25_1500,2AFC_task,59.95060069179612,
stimuli/rgb_scene000012_render000002.png,stimuli/rgb_scene000012_render000004.png,1,50,260,54,"[1, 0]",left,1,333,25,f,y,y,2019_Apr_25_1500,2AFC_task,59.95060069179612,
stimuli/rgb_scene000095_render000004.png,stimuli/rgb_scene000095_render000006.png,1,51,261,103,"[1, 0]",left,1,333,25,f,y,y,2019_Apr_25_1500,2AFC_task,59.95060069179612,
stimuli/rgb_scene000096_render000000.png,stimuli/rgb_scene000096_render000002.png,1,52,262,106,"[0, 1]",right,1,333,25,f,y,y,2019_Apr_25_1500,2AFC_task,59.95060069179612,
stimuli/rgb_scene000012_render000002.png,stimuli/rgb_scene000012_render000006.png,1,53,263,56,"[0, 1]",right,1,333,25,f,y,y,2019_Apr_25_1500,2AFC_task,59.95060069179612,
stimuli/rgb_scene000095_render000005.png,stimuli/rgb_scene000095_render000006.png,1,54,264,104,"[1, 0]",left,1,333,25,f,y,y,2019_Apr_25_1500,2AFC_task,59.95060069179612,
stimuli/rgb_scene000004_render000001.png,stimuli/rgb_scene000004_render000002.png,1,55,265,6,"[1, 0]",left,1,333,25,f,y,y,2019_Apr_25_1500,2AFC_task,59.95060069179612,
stimuli/rgb_scene000096_render000002.png,stimuli/rgb_scene000096_render000005.png,1,56,266,118,"[1, 0]",left,1,333,25,f,y,y,2019_Apr_25_1500,2AFC_task,59.95060069179612,
stimuli/rgb_scene000146_render000000.png,stimuli/rgb_scene000146_render000006.png,1,57,267,173,"[0, 1]",right,1,333,25,f,y,y,2019_Apr_25_1500,2AFC_task,59.95060069179612,
stimuli/rgb_scene000195_render000001.png,stimuli/rgb_scene000195_render000004.png,1,58,268,197,"[0, 1]",right,1,333,25,f,y,y,2019_Apr_25_1500,2AFC_task,59.95060069179612,
stimuli/rgb_scene000113_render000002.png,stimuli/rgb_scene000113_render000006.png,1,59,269,161,"[0, 1]",right,1,333,25,f,y,y,2019_Apr_25_1500,2AFC_task,59.95060069179612,
stimuli/rgb_scene000113_render000000.png,stimuli/rgb_scene000113_render000004.png,1,60,270,150,"[1, 0]",left,1,333,25,f,y,y,2019_Apr_25_1500,2AFC_task,59.95060069179612,
stimuli/rgb_scene000090_render000004.png,stimuli/rgb_scene000090_render000005.png,1,61,271,81,"[0, 1]",left,0,333,25,f,y,y,2019_Apr_25_1500,2AFC_task,59.95060069179612,
stimuli/rgb_scene000146_render000000.png,stimuli/rgb_scene000146_render000002.png,1,62,272,169,"[0, 1]",right,1,333,25,f,y,y,2019_Apr_25_1500,2AFC_task,59.95060069179612,
stimuli/rgb_scene000095_render000002.png,stimuli/rgb_scene000095_render000006.png,1,63,273,98,"[1, 0]",left,1,333,25,f,y,y,2019_Apr_25_1500,2AFC_task,59.95060069179612,
stimuli/rgb_scene000005_render000002.png,stimuli/rgb_scene000005_render000004.png,1,64,274,33,"[0, 1]",left,0,333,25,f,y,y,2019_Apr_25_1500,2AFC_task,59.95060069179612,
stimuli/rgb_scene000005_render000001.png,stimuli/rgb_scene000005_render000004.png,1,65,275,29,"[0, 1]",left,0,333,25,f,y,y,2019_Apr_25_1500,2AFC_task,59.95060069179612,
stimuli/rgb_scene000113_render000001.png,stimuli/rgb_scene000113_render000002.png,1,66,276,153,"[1, 0]",left,1,333,25,f,y,y,2019_Apr_25_1500,2AFC_task,59.95060069179612,
stimuli/rgb_scene000096_render000002.png,stimuli/rgb_scene000096_render000006.png,1,67,277,119,"[0, 1]",right,1,333,25,f,y,y,2019_Apr_25_1500,2AFC_task,59.95060069179612,
stimuli/rgb_scene000090_render000000.png,stimuli/rgb_scene000090_render000003.png,1,68,278,65,"[0, 1]",right,1,333,25,f,y,y,2019_Apr_25_1500,2AFC_task,59.95060069179612,
stimuli/rgb_scene000090_render000001.png,stimuli/rgb_scene000090_render000004.png,1,69,279,71,"[1, 0]",left,1,333,25,f,y,y,2019_Apr_25_1500,2AFC_task,59.95060069179612,
stimuli/rgb_scene000195_render000002.png,stimuli/rgb_scene000195_render000003.png,1,70,280,200,"[1, 0]",left,1,333,25,f,y,y,2019_Apr_25_1500,2AFC_task,59.95060069179612,
stimuli/rgb_scene000195_render000002.png,stimuli/rgb_scene000195_render000005.png,1,71,281,202,"[1, 0]",left,1,333,25,f,y,y,2019_Apr_25_1500,2AFC_task,59.95060069179612,
stimuli/rgb_scene000090_render000003.png,stimuli/rgb_scene000090_render000004.png,1,72,282,78,"[0, 1]",right,1,333,25,f,y,y,2019_Apr_25_1500,2AFC_task,59.95060069179612,
stimuli/rgb_scene000113_render000000.png,stimuli/rgb_scene000113_render000005.png,1,73,283,151,"[1, 0]",left,1,333,25,f,y,y,2019_Apr_25_1500,2AFC_task,59.95060069179612,
stimuli/rgb_scene000146_render000003.png,stimuli/rgb_scene000146_render000006.png,1,74,284,185,"[1, 0]",left,1,333,25,f,y,y,2019_Apr_25_1500,2AFC_task,59.95060069179612,
stimuli/rgb_scene000012_render000003.png,stimuli/rgb_scene000012_render000005.png,1,75,285,58,"[1, 0]",left,1,333,25,f,y,y,2019_Apr_25_1500,2AFC_task,59.95060069179612,
stimuli/rgb_scene000095_render000002.png,stimuli/rgb_scene000095_render000003.png,1,76,286,95,"[0, 1]",right,1,333,25,f,y,y,2019_Apr_25_1500,2AFC_task,59.95060069179612,
stimuli/rgb_scene000102_render000004.png,stimuli/rgb_scene000102_render000005.png,1,77,287,144,"[0, 1]",right,1,333,25,f,y,y,2019_Apr_25_1500,2AFC_task,59.95060069179612,
stimuli/rgb_scene000195_render000003.png,stimuli/rgb_scene000195_render000004.png,1,78,288,204,"[0, 1]",right,1,333,25,f,y,y,2019_Apr_25_1500,2AFC_task,59.95060069179612,
stimuli/rgb_scene000090_render000005.png,stimuli/rgb_scene000090_render000006.png,1,79,289,83,"[1, 0]",right,0,333,25,f,y,y,2019_Apr_25_1500,2AFC_task,59.95060069179612,
stimuli/rgb_scene000095_render000001.png,stimuli/rgb_scene000095_render000005.png,1,80,290,93,"[1, 0]",left,1,333,25,f,y,y,2019_Apr_25_1500,2AFC_task,59.95060069179612,
stimuli/rgb_scene000090_render000000.png,stimuli/rgb_scene000090_render000001.png,1,81,291,63,"[1, 0]",right,0,333,25,f,y,y,2019_Apr_25_1500,2AFC_task,59.95060069179612,
stimuli/rgb_scene000113_render000001.png,stimuli/rgb_scene000113_render000004.png,1,82,292,155,"[1, 0]",left,1,333,25,f,y,y,2019_Apr_25_1500,2AFC_task,59.95060069179612,
stimuli/rgb_scene000090_render000001.png,stimuli/rgb_scene000090_render000002.png,1,83,293,69,"[0, 1]",right,1,333,25,f,y,y,2019_Apr_25_1500,2AFC_task,59.95060069179612,
stimuli/rgb_scene000012_render000000.png,stimuli/rgb_scene000012_render000002.png,1,84,294,43,"[1, 0]",left,1,333,25,f,y,y,2019_Apr_25_1500,2AFC_task,59.95060069179612,
stimuli/rgb_scene000146_render000003.png,stimuli/rgb_scene000146_render000005.png,1,85,295,184,"[0, 1]",right,1,333,25,f,y,y,2019_Apr_25_1500,2AFC_task,59.95060069179612,
stimuli/rgb_scene000113_render000001.png,stimuli/rgb_scene000113_render000006.png,1,86,296,157,"[1, 0]",left,1,333,25,f,y,y,2019_Apr_25_1500,2AFC_task,59.95060069179612,
stimuli/rgb_scene000096_render000003.png,stimuli/rgb_scene000096_render000005.png,1,87,297,121,"[0, 1]",right,1,333,25,f,y,y,2019_Apr_25_1500,2AFC_task,59.95060069179612,
stimuli/rgb_scene000146_render000001.png,stimuli/rgb_scene000146_render000004.png,1,88,298,176,"[0, 1]",right,1,333,25,f,y,y,2019_Apr_25_1500,2AFC_task,59.95060069179612,
stimuli/rgb_scene000005_render000000.png,stimuli/rgb_scene000005_render000005.png,1,89,299,25,"[0, 1]",right,1,333,25,f,y,y,2019_Apr_25_1500,2AFC_task,59.95060069179612,
stimuli/rgb_scene000090_render000000.png,stimuli/rgb_scene000090_render000004.png,1,90,300,66,"[0, 1]",left,0,333,25,f,y,y,2019_Apr_25_1500,2AFC_task,59.95060069179612,
stimuli/rgb_scene000005_render000000.png,stimuli/rgb_scene000005_render000002.png,1,91,301,22,"[0, 1]",right,1,333,25,f,y,y,2019_Apr_25_1500,2AFC_task,59.95060069179612,
stimuli/rgb_scene000195_render000001.png,stimuli/rgb_scene000195_render000005.png,1,92,302,198,"[0, 1]",right,1,333,25,f,y,y,2019_Apr_25_1500,2AFC_task,59.95060069179612,
stimuli/rgb_scene000004_render000000.png,stimuli/rgb_scene000004_render000005.png,1,93,303,4,"[0, 1]",right,1,333,25,f,y,y,2019_Apr_25_1500,2AFC_task,59.95060069179612,
stimuli/rgb_scene000096_render000000.png,stimuli/rgb_scene000096_render000005.png,1,94,304,109,"[0, 1]",right,1,333,25,f,y,y,2019_Apr_25_1500,2AFC_task,59.95060069179612,
stimuli/rgb_scene000146_render000000.png,stimuli/rgb_scene000146_render000001.png,1,95,305,168,"[0, 1]",right,1,333,25,f,y,y,2019_Apr_25_1500,2AFC_task,59.95060069179612,
stimuli/rgb_scene000090_render000000.png,stimuli/rgb_scene000090_render000002.png,1,96,306,64,"[1, 0]",left,1,333,25,f,y,y,2019_Apr_25_1500,2AFC_task,59.95060069179612,
stimuli/rgb_scene000012_render000000.png,stimuli/rgb_scene000012_render000006.png,1,97,307,47,"[1, 0]",left,1,333,25,f,y,y,2019_Apr_25_1500,2AFC_task,59.95060069179612,
stimuli/rgb_scene000113_render000003.png,stimuli/rgb_scene000113_render000006.png,1,98,308,164,"[1, 0]",left,1,333,25,f,y,y,2019_Apr_25_1500,2AFC_task,59.95060069179612,
stimuli/rgb_scene000096_render000003.png,stimuli/rgb_scene000096_render000004.png,1,99,309,120,"[1, 0]",left,1,333,25,f,y,y,2019_Apr_25_1500,2AFC_task,59.95060069179612,
stimuli/rgb_scene000012_render000001.png,stimuli/rgb_scene000012_render000006.png,1,100,310,52,"[0, 1]",right,1,333,25,f,y,y,2019_Apr_25_1500,2AFC_task,59.95060069179612,
stimuli/rgb_scene000004_render000000.png,stimuli/rgb_scene000004_render000004.png,1,101,311,3,"[1, 0]",left,1,333,25,f,y,y,2019_Apr_25_1500,2AFC_task,59.95060069179612,
stimuli/rgb_scene000146_render000001.png,stimuli/rgb_scene000146_render000002.png,1,102,312,174,"[1, 0]",left,1,333,25,f,y,y,2019_Apr_25_1500,2AFC_task,59.95060069179612,
stimuli/rgb_scene000005_render000005.png,stimuli/rgb_scene000005_render000006.png,1,103,313,41,"[1, 0]",right,0,333,25,f,y,y,2019_Apr_25_1500,2AFC_task,59.95060069179612,
stimuli/rgb_scene000004_render000005.png,stimuli/rgb_scene000004_render000006.png,1,104,314,20,"[1, 0]",left,1,333,25,f,y,y,2019_Apr_25_1500,2AFC_task,59.95060069179612,
stimuli/rgb_scene000195_render000001.png,stimuli/rgb_scene000195_render000002.png,1,105,315,195,"[0, 1]",right,1,333,25,f,y,y,2019_Apr_25_1500,2AFC_task,59.95060069179612,
stimuli/rgb_scene000113_render000000.png,stimuli/rgb_scene000113_render000006.png,1,106,316,152,"[0, 1]",right,1,333,25,f,y,y,2019_Apr_25_1500,2AFC_task,59.95060069179612,
stimuli/rgb_scene000096_render000000.png,stimuli/rgb_scene000096_render000001.png,1,107,317,105,"[1, 0]",left,1,333,25,f,y,y,2019_Apr_25_1500,2AFC_task,59.95060069179612,
stimuli/rgb_scene000146_render000005.png,stimuli/rgb_scene000146_render000006.png,1,108,318,188,"[1, 0]",left,1,333,25,f,y,y,2019_Apr_25_1500,2AFC_task,59.95060069179612,
stimuli/rgb_scene000146_render000000.png,stimuli/rgb_scene000146_render000003.png,1,109,319,170,"[0, 1]",right,1,333,25,f,y,y,2019_Apr_25_1500,2AFC_task,59.95060069179612,
stimuli/rgb_scene000004_render000001.png,stimuli/rgb_scene000004_render000005.png,1,110,320,9,"[0, 1]",right,1,333,25,f,y,y,2019_Apr_25_1500,2AFC_task,59.95060069179612,
stimuli/rgb_scene000113_render000002.png,stimuli/rgb_scene000113_render000005.png,1,111,321,160,"[1, 0]",left,1,333,25,f,y,y,2019_Apr_25_1500,2AFC_task,59.95060069179612,
stimuli/rgb_scene000004_render000000.png,stimuli/rgb_scene000004_render000006.png,1,112,322,5,"[0, 1]",right,1,333,25,f,y,y,2019_Apr_25_1500,2AFC_task,59.95060069179612,
stimuli/rgb_scene000095_render000000.png,stimuli/rgb_scene000095_render000004.png,1,113,323,87,"[0, 1]",right,1,333,25,f,y,y,2019_Apr_25_1500,2AFC_task,59.95060069179612,
stimuli/rgb_scene000004_render000003.png,stimuli/rgb_scene000004_render000005.png,1,114,324,16,"[0, 1]",right,1,333,25,f,y,y,2019_Apr_25_1500,2AFC_task,59.95060069179612,
stimuli/rgb_scene000095_render000002.png,stimuli/rgb_scene000095_render000005.png,1,115,325,97,"[1, 0]",left,1,333,25,f,y,y,2019_Apr_25_1500,2AFC_task,59.95060069179612,
stimuli/rgb_scene000146_render000004.png,stimuli/rgb_scene000146_render000005.png,1,116,326,186,"[1, 0]",right,0,333,25,f,y,y,2019_Apr_25_1500,2AFC_task,59.95060069179612,
stimuli/rgb_scene000195_render000000.png,stimuli/rgb_scene000195_render000002.png,1,117,327,190,"[1, 0]",left,1,333,25,f,y,y,2019_Apr_25_1500,2AFC_task,59.95060069179612,
stimuli/rgb_scene000095_render000001.png,stimuli/rgb_scene000095_render000006.png,1,118,328,94,"[1, 0]",left,1,333,25,f,y,y,2019_Apr_25_1500,2AFC_task,59.95060069179612,
stimuli/rgb_scene000096_render000002.png,stimuli/rgb_scene000096_render000003.png,1,119,329,116,"[1, 0]",left,1,333,25,f,y,y,2019_Apr_25_1500,2AFC_task,59.95060069179612,
stimuli/rgb_scene000096_render000000.png,stimuli/rgb_scene000096_render000003.png,1,120,330,107,"[0, 1]",right,1,333,25,f,y,y,2019_Apr_25_1500,2AFC_task,59.95060069179612,
stimuli/rgb_scene000102_render000002.png,stimuli/rgb_scene000102_render000006.png,1,121,331,140,"[0, 1]",right,1,333,25,f,y,y,2019_Apr_25_1500,2AFC_task,59.95060069179612,
stimuli/rgb_scene000113_render000004.png,stimuli/rgb_scene000113_render000006.png,1,122,332,166,"[0, 1]",right,1,333,25,f,y,y,2019_Apr_25_1500,2AFC_task,59.95060069179612,
stimuli/rgb_scene000095_render000000.png,stimuli/rgb_scene000095_render000005.png,1,123,333,88,"[0, 1]",right,1,333,25,f,y,y,2019_Apr_25_1500,2AFC_task,59.95060069179612,
stimuli/rgb_scene000005_render000001.png,stimuli/rgb_scene000005_render000006.png,1,124,334,31,"[1, 0]",left,1,333,25,f,y,y,2019_Apr_25_1500,2AFC_task,59.95060069179612,
stimuli/rgb_scene000096_render000001.png,stimuli/rgb_scene000096_render000005.png,1,125,335,114,"[0, 1]",right,1,333,25,f,y,y,2019_Apr_25_1500,2AFC_task,59.95060069179612,
stimuli/rgb_scene000095_render000001.png,stimuli/rgb_scene000095_render000002.png,1,126,336,90,"[0, 1]",right,1,333,25,f,y,y,2019_Apr_25_1500,2AFC_task,59.95060069179612,
stimuli/rgb_scene000102_render000000.png,stimuli/rgb_scene000102_render000006.png,1,127,337,131,"[0, 1]",right,1,333,25,f,y,y,2019_Apr_25_1500,2AFC_task,59.95060069179612,
stimuli/rgb_scene000113_render000003.png,stimuli/rgb_scene000113_render000005.png,1,128,338,163,"[1, 0]",left,1,333,25,f,y,y,2019_Apr_25_1500,2AFC_task,59.95060069179612,
stimuli/rgb_scene000195_render000000.png,stimuli/rgb_scene000195_render000001.png,1,129,339,189,"[0, 1]",right,1,333,25,f,y,y,2019_Apr_25_1500,2AFC_task,59.95060069179612,
stimuli/rgb_scene000005_render000000.png,stimuli/rgb_scene000005_render000001.png,1,130,340,21,"[0, 1]",right,1,333,25,f,y,y,2019_Apr_25_1500,2AFC_task,59.95060069179612,
stimuli/rgb_scene000005_render000000.png,stimuli/rgb_scene000005_render000006.png,1,131,341,26,"[0, 1]",right,1,333,25,f,y,y,2019_Apr_25_1500,2AFC_task,59.95060069179612,
stimuli/rgb_scene000102_render000005.png,stimuli/rgb_scene000102_render000006.png,1,132,342,146,"[1, 0]",right,0,333,25,f,y,y,2019_Apr_25_1500,2AFC_task,59.95060069179612,
stimuli/rgb_scene000102_render000001.png,stimuli/rgb_scene000102_render000006.png,1,133,343,136,"[0, 1]",right,1,333,25,f,y,y,2019_Apr_25_1500,2AFC_task,59.95060069179612,
stimuli/rgb_scene000090_render000002.png,stimuli/rgb_scene000090_render000006.png,1,134,344,77,"[0, 1]",right,1,333,25,f,y,y,2019_Apr_25_1500,2AFC_task,59.95060069179612,
stimuli/rgb_scene000090_render000002.png,stimuli/rgb_scene000090_render000005.png,1,135,345,76,"[0, 1]",right,1,333,25,f,y,y,2019_Apr_25_1500,2AFC_task,59.95060069179612,
stimuli/rgb_scene000195_render000001.png,stimuli/rgb_scene000195_render000006.png,1,136,346,199,"[1, 0]",left,1,333,25,f,y,y,2019_Apr_25_1500,2AFC_task,59.95060069179612,
stimuli/rgb_scene000095_render000000.png,stimuli/rgb_scene000095_render000003.png,1,137,347,86,"[1, 0]",left,1,333,25,f,y,y,2019_Apr_25_1500,2AFC_task,59.95060069179612,
stimuli/rgb_scene000090_render000003.png,stimuli/rgb_scene000090_render000005.png,1,138,348,79,"[1, 0]",right,0,333,25,f,y,y,2019_Apr_25_1500,2AFC_task,59.95060069179612,
stimuli/rgb_scene000012_render000000.png,stimuli/rgb_scene000012_render000005.png,1,139,349,46,"[1, 0]",left,1,333,25,f,y,y,2019_Apr_25_1500,2AFC_task,59.95060069179612,
stimuli/rgb_scene000095_render000001.png,stimuli/rgb_scene000095_render000003.png,1,140,350,91,"[1, 0]",left,1,333,25,f,y,y,2019_Apr_25_1500,2AFC_task,59.95060069179612,
stimuli/rgb_scene000113_render000000.png,stimuli/rgb_scene000113_render000002.png,1,141,351,148,"[1, 0]",left,1,333,25,f,y,y,2019_Apr_25_1500,2AFC_task,59.95060069179612,
stimuli/rgb_scene000090_render000003.png,stimuli/rgb_scene000090_render000006.png,1,142,352,80,"[0, 1]",right,1,333,25,f,y,y,2019_Apr_25_1500,2AFC_task,59.95060069179612,
stimuli/rgb_scene000012_render000002.png,stimuli/rgb_scene000012_render000005.png,1,143,353,55,"[0, 1]",right,1,333,25,f,y,y,2019_Apr_25_1500,2AFC_task,59.95060069179612,
stimuli/rgb_scene000113_render000002.png,stimuli/rgb_scene000113_render000004.png,1,144,354,159,"[1, 0]",left,1,333,25,f,y,y,2019_Apr_25_1500,2AFC_task,59.95060069179612,
stimuli/rgb_scene000090_render000000.png,stimuli/rgb_scene000090_render000005.png,1,145,355,67,"[1, 0]",left,1,333,25,f,y,y,2019_Apr_25_1500,2AFC_task,59.95060069179612,
stimuli/rgb_scene000102_render000000.png,stimuli/rgb_scene000102_render000003.png,1,146,356,128,"[1, 0]",left,1,333,25,f,y,y,2019_Apr_25_1500,2AFC_task,59.95060069179612,
stimuli/rgb_scene000096_render000001.png,stimuli/rgb_scene000096_render000002.png,1,147,357,111,"[0, 1]",right,1,333,25,f,y,y,2019_Apr_25_1500,2AFC_task,59.95060069179612,
stimuli/rgb_scene000004_render000001.png,stimuli/rgb_scene000004_render000004.png,1,148,358,8,"[1, 0]",left,1,333,25,f,y,y,2019_Apr_25_1500,2AFC_task,59.95060069179612,
stimuli/rgb_scene000102_render000000.png,stimuli/rgb_scene000102_render000001.png,1,149,359,126,"[0, 1]",right,1,333,25,f,y,y,2019_Apr_25_1500,2AFC_task,59.95060069179612,
stimuli/rgb_scene000195_render000000.png,stimuli/rgb_scene000195_render000003.png,1,150,360,191,"[0, 1]",right,1,333,25,f,y,y,2019_Apr_25_1500,2AFC_task,59.95060069179612,
stimuli/rgb_scene000113_render000004.png,stimuli/rgb_scene000113_render000005.png,1,151,361,165,"[1, 0]",left,1,333,25,f,y,y,2019_Apr_25_1500,2AFC_task,59.95060069179612,
stimuli/rgb_scene000012_render000000.png,stimuli/rgb_scene000012_render000004.png,1,152,362,45,"[1, 0]",left,1,333,25,f,y,y,2019_Apr_25_1500,2AFC_task,59.95060069179612,
stimuli/rgb_scene000096_render000004.png,stimuli/rgb_scene000096_render000005.png,1,153,363,123,"[1, 0]",left,1,333,25,f,y,y,2019_Apr_25_1500,2AFC_task,59.95060069179612,
stimuli/rgb_scene000146_render000001.png,stimuli/rgb_scene000146_render000005.png,1,154,364,177,"[0, 1]",right,1,333,25,f,y,y,2019_Apr_25_1500,2AFC_task,59.95060069179612,
stimuli/rgb_scene000096_render000002.png,stimuli/rgb_scene000096_render000004.png,1,155,365,117,"[0, 1]",right,1,333,25,f,y,y,2019_Apr_25_1500,2AFC_task,59.95060069179612,
stimuli/rgb_scene000113_render000003.png,stimuli/rgb_scene000113_render000004.png,1,156,366,162,"[1, 0]",left,1,333,25,f,y,y,2019_Apr_25_1500,2AFC_task,59.95060069179612,
stimuli/rgb_scene000005_render000000.png,stimuli/rgb_scene000005_render000004.png,1,157,367,24,"[1, 0]",left,1,333,25,f,y,y,2019_Apr_25_1500,2AFC_task,59.95060069179612,
stimuli/rgb_scene000146_render000002.png,stimuli/rgb_scene000146_render000006.png,1,158,368,182,"[1, 0]",left,1,333,25,f,y,y,2019_Apr_25_1500,2AFC_task,59.95060069179612,
stimuli/rgb_scene000012_render000002.png,stimuli/rgb_scene000012_render000003.png,1,159,369,53,"[1, 0]",left,1,333,25,f,y,y,2019_Apr_25_1500,2AFC_task,59.95060069179612,
stimuli/rgb_scene000146_render000001.png,stimuli/rgb_scene000146_render000003.png,1,160,370,175,"[1, 0]",left,1,333,25,f,y,y,2019_Apr_25_1500,2AFC_task,59.95060069179612,
stimuli/rgb_scene000090_render000001.png,stimuli/rgb_scene000090_render000006.png,1,161,371,73,"[1, 0]",left,1,333,25,f,y,y,2019_Apr_25_1500,2AFC_task,59.95060069179612,
stimuli/rgb_scene000090_render000001.png,stimuli/rgb_scene000090_render000005.png,1,162,372,72,"[1, 0]",left,1,333,25,f,y,y,2019_Apr_25_1500,2AFC_task,59.95060069179612,
stimuli/rgb_scene000102_render000002.png,stimuli/rgb_scene000102_render000004.png,1,163,373,138,"[1, 0]",left,1,333,25,f,y,y,2019_Apr_25_1500,2AFC_task,59.95060069179612,
stimuli/rgb_scene000004_render000003.png,stimuli/rgb_scene000004_render000006.png,1,164,374,17,"[0, 1]",right,1,333,25,f,y,y,2019_Apr_25_1500,2AFC_task,59.95060069179612,
stimuli/rgb_scene000095_render000001.png,stimuli/rgb_scene000095_render000004.png,1,165,375,92,"[0, 1]",right,1,333,25,f,y,y,2019_Apr_25_1500,2AFC_task,59.95060069179612,
stimuli/rgb_scene000012_render000000.png,stimuli/rgb_scene000012_render000003.png,1,166,376,44,"[0, 1]",right,1,333,25,f,y,y,2019_Apr_25_1500,2AFC_task,59.95060069179612,
stimuli/rgb_scene000012_render000001.png,stimuli/rgb_scene000012_render000002.png,1,167,377,48,"[0, 1]",right,1,333,25,f,y,y,2019_Apr_25_1500,2AFC_task,59.95060069179612,
stimuli/rgb_scene000090_render000001.png,stimuli/rgb_scene000090_render000003.png,1,168,378,70,"[1, 0]",left,1,333,25,f,y,y,2019_Apr_25_1500,2AFC_task,59.95060069179612,
stimuli/rgb_scene000146_render000000.png,stimuli/rgb_scene000146_render000004.png,1,169,379,171,"[1, 0]",left,1,333,25,f,y,y,2019_Apr_25_1500,2AFC_task,59.95060069179612,
stimuli/rgb_scene000146_render000001.png,stimuli/rgb_scene000146_render000006.png,1,170,380,178,"[1, 0]",left,1,333,25,f,y,y,2019_Apr_25_1500,2AFC_task,59.95060069179612,
stimuli/rgb_scene000096_render000001.png,stimuli/rgb_scene000096_render000006.png,1,171,381,115,"[0, 1]",right,1,333,25,f,y,y,2019_Apr_25_1500,2AFC_task,59.95060069179612,
stimuli/rgb_scene000096_render000004.png,stimuli/rgb_scene000096_render000006.png,1,172,382,124,"[1, 0]",left,1,333,25,f,y,y,2019_Apr_25_1500,2AFC_task,59.95060069179612,
stimuli/rgb_scene000004_render000003.png,stimuli/rgb_scene000004_render000004.png,1,173,383,15,"[0, 1]",right,1,333,25,f,y,y,2019_Apr_25_1500,2AFC_task,59.95060069179612,
stimuli/rgb_scene000090_render000004.png,stimuli/rgb_scene000090_render000006.png,1,174,384,82,"[0, 1]",left,0,333,25,f,y,y,2019_Apr_25_1500,2AFC_task,59.95060069179612,
stimuli/rgb_scene000102_render000000.png,stimuli/rgb_scene000102_render000002.png,1,175,385,127,"[1, 0]",left,1,333,25,f,y,y,2019_Apr_25_1500,2AFC_task,59.95060069179612,
stimuli/rgb_scene000102_render000003.png,stimuli/rgb_scene000102_render000005.png,1,176,386,142,"[0, 1]",right,1,333,25,f,y,y,2019_Apr_25_1500,2AFC_task,59.95060069179612,
stimuli/rgb_scene000004_render000002.png,stimuli/rgb_scene000004_render000004.png,1,177,387,12,"[0, 1]",right,1,333,25,f,y,y,2019_Apr_25_1500,2AFC_task,59.95060069179612,
stimuli/rgb_scene000102_render000001.png,stimuli/rgb_scene000102_render000003.png,1,178,388,133,"[1, 0]",left,1,333,25,f,y,y,2019_Apr_25_1500,2AFC_task,59.95060069179612,
stimuli/rgb_scene000005_render000001.png,stimuli/rgb_scene000005_render000005.png,1,179,389,30,"[1, 0]",left,1,333,25,f,y,y,2019_Apr_25_1500,2AFC_task,59.95060069179612,
stimuli/rgb_scene000146_render000002.png,stimuli/rgb_scene000146_render000004.png,1,180,390,180,"[1, 0]",left,1,333,25,f,y,y,2019_Apr_25_1500,2AFC_task,59.95060069179612,
stimuli/rgb_scene000102_render000002.png,stimuli/rgb_scene000102_render000003.png,1,181,391,137,"[1, 0]",left,1,333,25,f,y,y,2019_Apr_25_1500,2AFC_task,59.95060069179612,
stimuli/rgb_scene000005_render000004.png,stimuli/rgb_scene000005_render000006.png,1,182,392,40,"[1, 0]",right,0,333,25,f,y,y,2019_Apr_25_1500,2AFC_task,59.95060069179612,
stimuli/rgb_scene000004_render000002.png,stimuli/rgb_scene000004_render000003.png,1,183,393,11,"[1, 0]",left,1,333,25,f,y,y,2019_Apr_25_1500,2AFC_task,59.95060069179612,
stimuli/rgb_scene000146_render000002.png,stimuli/rgb_scene000146_render000005.png,1,184,394,181,"[1, 0]",left,1,333,25,f,y,y,2019_Apr_25_1500,2AFC_task,59.95060069179612,
stimuli/rgb_scene000102_render000001.png,stimuli/rgb_scene000102_render000004.png,1,185,395,134,"[0, 1]",right,1,333,25,f,y,y,2019_Apr_25_1500,2AFC_task,59.95060069179612,
stimuli/rgb_scene000095_render000000.png,stimuli/rgb_scene000095_render000002.png,1,186,396,85,"[0, 1]",right,1,333,25,f,y,y,2019_Apr_25_1500,2AFC_task,59.95060069179612,
stimuli/rgb_scene000095_render000002.png,stimuli/rgb_scene000095_render000004.png,1,187,397,96,"[1, 0]",left,1,333,25,f,y,y,2019_Apr_25_1500,2AFC_task,59.95060069179612,
stimuli/rgb_scene000005_render000002.png,stimuli/rgb_scene000005_render000003.png,1,188,398,32,"[0, 1]",right,1,333,25,f,y,y,2019_Apr_25_1500,2AFC_task,59.95060069179612,
stimuli/rgb_scene000005_render000003.png,stimuli/rgb_scene000005_render000006.png,1,189,399,38,"[1, 0]",right,0,333,25,f,y,y,2019_Apr_25_1500,2AFC_task,59.95060069179612,
stimuli/rgb_scene000195_render000001.png,stimuli/rgb_scene000195_render000003.png,1,190,400,196,"[1, 0]",left,1,333,25,f,y,y,2019_Apr_25_1500,2AFC_task,59.95060069179612,
stimuli/rgb_scene000113_render000000.png,stimuli/rgb_scene000113_render000003.png,1,191,401,149,"[1, 0]",left,1,333,25,f,y,y,2019_Apr_25_1500,2AFC_task,59.95060069179612,
stimuli/rgb_scene000102_render000004.png,stimuli/rgb_scene000102_render000006.png,1,192,402,145,"[1, 0]",left,1,333,25,f,y,y,2019_Apr_25_1500,2AFC_task,59.95060069179612,
stimuli/rgb_scene000012_render000004.png,stimuli/rgb_scene000012_render000005.png,1,193,403,60,"[0, 1]",right,1,333,25,f,y,y,2019_Apr_25_1500,2AFC_task,59.95060069179612,
stimuli/rgb_scene000102_render000000.png,stimuli/rgb_scene000102_render000005.png,1,194,404,130,"[1, 0]",left,1,333,25,f,y,y,2019_Apr_25_1500,2AFC_task,59.95060069179612,
stimuli/rgb_scene000146_render000000.png,stimuli/rgb_scene000146_render000005.png,1,195,405,172,"[1, 0]",right,0,333,25,f,y,y,2019_Apr_25_1500,2AFC_task,59.95060069179612,
stimuli/rgb_scene000096_render000000.png,stimuli/rgb_scene000096_render000004.png,1,196,406,108,"[1, 0]",left,1,333,25,f,y,y,2019_Apr_25_1500,2AFC_task,59.95060069179612,
stimuli/rgb_scene000113_render000001.png,stimuli/rgb_scene000113_render000005.png,1,197,407,156,"[0, 1]",right,1,333,25,f,y,y,2019_Apr_25_1500,2AFC_task,59.95060069179612,
stimuli/rgb_scene000195_render000003.png,stimuli/rgb_scene000195_render000006.png,1,198,408,206,"[0, 1]",left,0,333,25,f,y,y,2019_Apr_25_1500,2AFC_task,59.95060069179612,
stimuli/rgb_scene000004_render000004.png,stimuli/rgb_scene000004_render000006.png,1,199,409,19,"[0, 1]",right,1,333,25,f,y,y,2019_Apr_25_1500,2AFC_task,59.95060069179612,
stimuli/rgb_scene000146_render000004.png,stimuli/rgb_scene000146_render000006.png,1,200,410,187,"[0, 1]",right,1,333,25,f,y,y,2019_Apr_25_1500,2AFC_task,59.95060069179612,
stimuli/rgb_scene000113_render000005.png,stimuli/rgb_scene000113_render000006.png,1,201,411,167,"[0, 1]",right,1,333,25,f,y,y,2019_Apr_25_1500,2AFC_task,59.95060069179612,
stimuli/rgb_scene000096_render000001.png,stimuli/rgb_scene000096_render000004.png,1,202,412,113,"[1, 0]",left,1,333,25,f,y,y,2019_Apr_25_1500,2AFC_task,59.95060069179612,
stimuli/rgb_scene000004_render000002.png,stimuli/rgb_scene000004_render000005.png,1,203,413,13,"[0, 1]",right,1,333,25,f,y,y,2019_Apr_25_1500,2AFC_task,59.95060069179612,
stimuli/rgb_scene000012_render000003.png,stimuli/rgb_scene000012_render000006.png,1,204,414,59,"[1, 0]",left,1,333,25,f,y,y,2019_Apr_25_1500,2AFC_task,59.95060069179612,
stimuli/rgb_scene000195_render000002.png,stimuli/rgb_scene000195_render000004.png,1,205,415,201,"[0, 1]",right,1,333,25,f,y,y,2019_Apr_25_1500,2AFC_task,59.95060069179612,
stimuli/rgb_scene000090_render000000.png,stimuli/rgb_scene000090_render000006.png,1,206,416,68,"[0, 1]",right,1,333,25,f,y,y,2019_Apr_25_1500,2AFC_task,59.95060069179612,
stimuli/rgb_scene000005_render000004.png,stimuli/rgb_scene000005_render000005.png,1,207,417,39,"[0, 1]",left,0,333,25,f,y,y,2019_Apr_25_1500,2AFC_task,59.95060069179612,
stimuli/rgb_scene000005_render000001.png,stimuli/rgb_scene000005_render000003.png,1,208,418,28,"[1, 0]",right,0,333,25,f,y,y,2019_Apr_25_1500,2AFC_task,59.95060069179612,
stimuli/rgb_scene000113_render000000.png,stimuli/rgb_scene000113_render000001.png,1,209,419,147,"[0, 1]",right,1,333,25,f,y,y,2019_Apr_25_1500,2AFC_task,59.95060069179612,
