stimOne,stimTwo,trials_1.thisRepN,trials_1.thisTrialN,trials_1.thisN,trials_1.thisIndex,presentation_positions,resp_key,corresponding_image,participant ID (two digits, e.g. 01),age,gender (m/f/-),normal or corrected-to-normal vision (y/n),normal colour vision (y/n),date,expName,frameRate,
stimuli/rgb_scene000113_render000000.png,stimuli/rgb_scene000113_render000006.png,0,0,0,152,"[1, 0]",left,1,368,20,f,y,y,2019_Apr_30_1706,2AFC_task,59.96122415446741,
stimuli/rgb_scene000113_render000001.png,stimuli/rgb_scene000113_render000003.png,0,1,1,154,"[0, 1]",right,1,368,20,f,y,y,2019_Apr_30_1706,2AFC_task,59.96122415446741,
stimuli/rgb_scene000113_render000000.png,stimuli/rgb_scene000113_render000005.png,0,2,2,151,"[1, 0]",left,1,368,20,f,y,y,2019_Apr_30_1706,2AFC_task,59.96122415446741,
stimuli/rgb_scene000004_render000002.png,stimuli/rgb_scene000004_render000006.png,0,3,3,14,"[1, 0]",left,1,368,20,f,y,y,2019_Apr_30_1706,2AFC_task,59.96122415446741,
stimuli/rgb_scene000146_render000001.png,stimuli/rgb_scene000146_render000005.png,0,4,4,177,"[1, 0]",left,1,368,20,f,y,y,2019_Apr_30_1706,2AFC_task,59.96122415446741,
stimuli/rgb_scene000005_render000000.png,stimuli/rgb_scene000005_render000004.png,0,5,5,24,"[0, 1]",right,1,368,20,f,y,y,2019_Apr_30_1706,2AFC_task,59.96122415446741,
stimuli/rgb_scene000095_render000003.png,stimuli/rgb_scene000095_render000006.png,0,6,6,101,"[1, 0]",left,1,368,20,f,y,y,2019_Apr_30_1706,2AFC_task,59.96122415446741,
stimuli/rgb_scene000095_render000000.png,stimuli/rgb_scene000095_render000002.png,0,7,7,85,"[1, 0]",left,1,368,20,f,y,y,2019_Apr_30_1706,2AFC_task,59.96122415446741,
stimuli/rgb_scene000004_render000000.png,stimuli/rgb_scene000004_render000005.png,0,8,8,4,"[1, 0]",left,1,368,20,f,y,y,2019_Apr_30_1706,2AFC_task,59.96122415446741,
stimuli/rgb_scene000090_render000003.png,stimuli/rgb_scene000090_render000004.png,0,9,9,78,"[0, 1]",left,0,368,20,f,y,y,2019_Apr_30_1706,2AFC_task,59.96122415446741,
stimuli/rgb_scene000012_render000000.png,stimuli/rgb_scene000012_render000006.png,0,10,10,47,"[0, 1]",right,1,368,20,f,y,y,2019_Apr_30_1706,2AFC_task,59.96122415446741,
stimuli/rgb_scene000195_render000004.png,stimuli/rgb_scene000195_render000005.png,0,11,11,207,"[0, 1]",left,0,368,20,f,y,y,2019_Apr_30_1706,2AFC_task,59.96122415446741,
stimuli/rgb_scene000146_render000000.png,stimuli/rgb_scene000146_render000006.png,0,12,12,173,"[0, 1]",right,1,368,20,f,y,y,2019_Apr_30_1706,2AFC_task,59.96122415446741,
stimuli/rgb_scene000095_render000001.png,stimuli/rgb_scene000095_render000003.png,0,13,13,91,"[0, 1]",right,1,368,20,f,y,y,2019_Apr_30_1706,2AFC_task,59.96122415446741,
stimuli/rgb_scene000146_render000004.png,stimuli/rgb_scene000146_render000006.png,0,14,14,187,"[0, 1]",right,1,368,20,f,y,y,2019_Apr_30_1706,2AFC_task,59.96122415446741,
stimuli/rgb_scene000195_render000000.png,stimuli/rgb_scene000195_render000003.png,0,15,15,191,"[1, 0]",left,1,368,20,f,y,y,2019_Apr_30_1706,2AFC_task,59.96122415446741,
stimuli/rgb_scene000102_render000001.png,stimuli/rgb_scene000102_render000004.png,0,16,16,134,"[1, 0]",left,1,368,20,f,y,y,2019_Apr_30_1706,2AFC_task,59.96122415446741,
stimuli/rgb_scene000004_render000000.png,stimuli/rgb_scene000004_render000004.png,0,17,17,3,"[0, 1]",right,1,368,20,f,y,y,2019_Apr_30_1706,2AFC_task,59.96122415446741,
stimuli/rgb_scene000004_render000003.png,stimuli/rgb_scene000004_render000006.png,0,18,18,17,"[0, 1]",right,1,368,20,f,y,y,2019_Apr_30_1706,2AFC_task,59.96122415446741,
stimuli/rgb_scene000005_render000000.png,stimuli/rgb_scene000005_render000006.png,0,19,19,26,"[1, 0]",left,1,368,20,f,y,y,2019_Apr_30_1706,2AFC_task,59.96122415446741,
stimuli/rgb_scene000095_render000002.png,stimuli/rgb_scene000095_render000004.png,0,20,20,96,"[1, 0]",left,1,368,20,f,y,y,2019_Apr_30_1706,2AFC_task,59.96122415446741,
stimuli/rgb_scene000005_render000002.png,stimuli/rgb_scene000005_render000006.png,0,21,21,35,"[0, 1]",left,0,368,20,f,y,y,2019_Apr_30_1706,2AFC_task,59.96122415446741,
stimuli/rgb_scene000195_render000000.png,stimuli/rgb_scene000195_render000004.png,0,22,22,192,"[1, 0]",left,1,368,20,f,y,y,2019_Apr_30_1706,2AFC_task,59.96122415446741,
stimuli/rgb_scene000102_render000000.png,stimuli/rgb_scene000102_render000001.png,0,23,23,126,"[0, 1]",right,1,368,20,f,y,y,2019_Apr_30_1706,2AFC_task,59.96122415446741,
stimuli/rgb_scene000090_render000004.png,stimuli/rgb_scene000090_render000005.png,0,24,24,81,"[1, 0]",right,0,368,20,f,y,y,2019_Apr_30_1706,2AFC_task,59.96122415446741,
stimuli/rgb_scene000005_render000004.png,stimuli/rgb_scene000005_render000005.png,0,25,25,39,"[1, 0]",right,0,368,20,f,y,y,2019_Apr_30_1706,2AFC_task,59.96122415446741,
stimuli/rgb_scene000113_render000003.png,stimuli/rgb_scene000113_render000005.png,0,26,26,163,"[1, 0]",left,1,368,20,f,y,y,2019_Apr_30_1706,2AFC_task,59.96122415446741,
stimuli/rgb_scene000146_render000000.png,stimuli/rgb_scene000146_render000002.png,0,27,27,169,"[0, 1]",right,1,368,20,f,y,y,2019_Apr_30_1706,2AFC_task,59.96122415446741,
stimuli/rgb_scene000102_render000000.png,stimuli/rgb_scene000102_render000002.png,0,28,28,127,"[0, 1]",right,1,368,20,f,y,y,2019_Apr_30_1706,2AFC_task,59.96122415446741,
stimuli/rgb_scene000004_render000000.png,stimuli/rgb_scene000004_render000003.png,0,29,29,2,"[1, 0]",left,1,368,20,f,y,y,2019_Apr_30_1706,2AFC_task,59.96122415446741,
stimuli/rgb_scene000005_render000002.png,stimuli/rgb_scene000005_render000005.png,0,30,30,34,"[1, 0]",right,0,368,20,f,y,y,2019_Apr_30_1706,2AFC_task,59.96122415446741,
stimuli/rgb_scene000012_render000002.png,stimuli/rgb_scene000012_render000003.png,0,31,31,53,"[0, 1]",right,1,368,20,f,y,y,2019_Apr_30_1706,2AFC_task,59.96122415446741,
stimuli/rgb_scene000012_render000000.png,stimuli/rgb_scene000012_render000004.png,0,32,32,45,"[1, 0]",left,1,368,20,f,y,y,2019_Apr_30_1706,2AFC_task,59.96122415446741,
stimuli/rgb_scene000095_render000005.png,stimuli/rgb_scene000095_render000006.png,0,33,33,104,"[1, 0]",left,1,368,20,f,y,y,2019_Apr_30_1706,2AFC_task,59.96122415446741,
stimuli/rgb_scene000012_render000002.png,stimuli/rgb_scene000012_render000004.png,0,34,34,54,"[1, 0]",left,1,368,20,f,y,y,2019_Apr_30_1706,2AFC_task,59.96122415446741,
stimuli/rgb_scene000146_render000001.png,stimuli/rgb_scene000146_render000003.png,0,35,35,175,"[0, 1]",right,1,368,20,f,y,y,2019_Apr_30_1706,2AFC_task,59.96122415446741,
stimuli/rgb_scene000113_render000002.png,stimuli/rgb_scene000113_render000006.png,0,36,36,161,"[0, 1]",right,1,368,20,f,y,y,2019_Apr_30_1706,2AFC_task,59.96122415446741,
stimuli/rgb_scene000102_render000001.png,stimuli/rgb_scene000102_render000003.png,0,37,37,133,"[0, 1]",right,1,368,20,f,y,y,2019_Apr_30_1706,2AFC_task,59.96122415446741,
stimuli/rgb_scene000004_render000000.png,stimuli/rgb_scene000004_render000006.png,0,38,38,5,"[1, 0]",left,1,368,20,f,y,y,2019_Apr_30_1706,2AFC_task,59.96122415446741,
stimuli/rgb_scene000004_render000001.png,stimuli/rgb_scene000004_render000002.png,0,39,39,6,"[0, 1]",right,1,368,20,f,y,y,2019_Apr_30_1706,2AFC_task,59.96122415446741,
stimuli/rgb_scene000195_render000005.png,stimuli/rgb_scene000195_render000006.png,0,40,40,209,"[0, 1]",left,0,368,20,f,y,y,2019_Apr_30_1706,2AFC_task,59.96122415446741,
stimuli/rgb_scene000096_render000001.png,stimuli/rgb_scene000096_render000005.png,0,41,41,114,"[1, 0]",left,1,368,20,f,y,y,2019_Apr_30_1706,2AFC_task,59.96122415446741,
stimuli/rgb_scene000102_render000003.png,stimuli/rgb_scene000102_render000005.png,0,42,42,142,"[1, 0]",left,1,368,20,f,y,y,2019_Apr_30_1706,2AFC_task,59.96122415446741,
stimuli/rgb_scene000095_render000000.png,stimuli/rgb_scene000095_render000003.png,0,43,43,86,"[0, 1]",right,1,368,20,f,y,y,2019_Apr_30_1706,2AFC_task,59.96122415446741,
stimuli/rgb_scene000113_render000002.png,stimuli/rgb_scene000113_render000004.png,0,44,44,159,"[1, 0]",left,1,368,20,f,y,y,2019_Apr_30_1706,2AFC_task,59.96122415446741,
stimuli/rgb_scene000005_render000003.png,stimuli/rgb_scene000005_render000005.png,0,45,45,37,"[0, 1]",left,0,368,20,f,y,y,2019_Apr_30_1706,2AFC_task,59.96122415446741,
stimuli/rgb_scene000113_render000000.png,stimuli/rgb_scene000113_render000001.png,0,46,46,147,"[0, 1]",right,1,368,20,f,y,y,2019_Apr_30_1706,2AFC_task,59.96122415446741,
stimuli/rgb_scene000095_render000002.png,stimuli/rgb_scene000095_render000006.png,0,47,47,98,"[1, 0]",left,1,368,20,f,y,y,2019_Apr_30_1706,2AFC_task,59.96122415446741,
stimuli/rgb_scene000004_render000000.png,stimuli/rgb_scene000004_render000001.png,0,48,48,0,"[1, 0]",left,1,368,20,f,y,y,2019_Apr_30_1706,2AFC_task,59.96122415446741,
stimuli/rgb_scene000195_render000001.png,stimuli/rgb_scene000195_render000005.png,0,49,49,198,"[1, 0]",right,0,368,20,f,y,y,2019_Apr_30_1706,2AFC_task,59.96122415446741,
stimuli/rgb_scene000146_render000002.png,stimuli/rgb_scene000146_render000004.png,0,50,50,180,"[0, 1]",right,1,368,20,f,y,y,2019_Apr_30_1706,2AFC_task,59.96122415446741,
stimuli/rgb_scene000096_render000001.png,stimuli/rgb_scene000096_render000002.png,0,51,51,111,"[0, 1]",right,1,368,20,f,y,y,2019_Apr_30_1706,2AFC_task,59.96122415446741,
stimuli/rgb_scene000146_render000005.png,stimuli/rgb_scene000146_render000006.png,0,52,52,188,"[1, 0]",left,1,368,20,f,y,y,2019_Apr_30_1706,2AFC_task,59.96122415446741,
stimuli/rgb_scene000090_render000001.png,stimuli/rgb_scene000090_render000005.png,0,53,53,72,"[1, 0]",right,0,368,20,f,y,y,2019_Apr_30_1706,2AFC_task,59.96122415446741,
stimuli/rgb_scene000096_render000000.png,stimuli/rgb_scene000096_render000002.png,0,54,54,106,"[1, 0]",left,1,368,20,f,y,y,2019_Apr_30_1706,2AFC_task,59.96122415446741,
stimuli/rgb_scene000004_render000004.png,stimuli/rgb_scene000004_render000006.png,0,55,55,19,"[1, 0]",left,1,368,20,f,y,y,2019_Apr_30_1706,2AFC_task,59.96122415446741,
stimuli/rgb_scene000096_render000005.png,stimuli/rgb_scene000096_render000006.png,0,56,56,125,"[1, 0]",left,1,368,20,f,y,y,2019_Apr_30_1706,2AFC_task,59.96122415446741,
stimuli/rgb_scene000195_render000000.png,stimuli/rgb_scene000195_render000005.png,0,57,57,193,"[1, 0]",right,0,368,20,f,y,y,2019_Apr_30_1706,2AFC_task,59.96122415446741,
stimuli/rgb_scene000012_render000005.png,stimuli/rgb_scene000012_render000006.png,0,58,58,62,"[1, 0]",left,1,368,20,f,y,y,2019_Apr_30_1706,2AFC_task,59.96122415446741,
stimuli/rgb_scene000096_render000001.png,stimuli/rgb_scene000096_render000004.png,0,59,59,113,"[0, 1]",right,1,368,20,f,y,y,2019_Apr_30_1706,2AFC_task,59.96122415446741,
stimuli/rgb_scene000113_render000001.png,stimuli/rgb_scene000113_render000005.png,0,60,60,156,"[0, 1]",right,1,368,20,f,y,y,2019_Apr_30_1706,2AFC_task,59.96122415446741,
stimuli/rgb_scene000096_render000000.png,stimuli/rgb_scene000096_render000001.png,0,61,61,105,"[1, 0]",left,1,368,20,f,y,y,2019_Apr_30_1706,2AFC_task,59.96122415446741,
stimuli/rgb_scene000012_render000000.png,stimuli/rgb_scene000012_render000005.png,0,62,62,46,"[1, 0]",left,1,368,20,f,y,y,2019_Apr_30_1706,2AFC_task,59.96122415446741,
stimuli/rgb_scene000095_render000000.png,stimuli/rgb_scene000095_render000001.png,0,63,63,84,"[1, 0]",left,1,368,20,f,y,y,2019_Apr_30_1706,2AFC_task,59.96122415446741,
stimuli/rgb_scene000090_render000000.png,stimuli/rgb_scene000090_render000005.png,0,64,64,67,"[0, 1]",left,0,368,20,f,y,y,2019_Apr_30_1706,2AFC_task,59.96122415446741,
stimuli/rgb_scene000005_render000003.png,stimuli/rgb_scene000005_render000004.png,0,65,65,36,"[0, 1]",left,0,368,20,f,y,y,2019_Apr_30_1706,2AFC_task,59.96122415446741,
stimuli/rgb_scene000004_render000002.png,stimuli/rgb_scene000004_render000005.png,0,66,66,13,"[0, 1]",right,1,368,20,f,y,y,2019_Apr_30_1706,2AFC_task,59.96122415446741,
stimuli/rgb_scene000113_render000000.png,stimuli/rgb_scene000113_render000004.png,0,67,67,150,"[0, 1]",right,1,368,20,f,y,y,2019_Apr_30_1706,2AFC_task,59.96122415446741,
stimuli/rgb_scene000096_render000002.png,stimuli/rgb_scene000096_render000005.png,0,68,68,118,"[1, 0]",left,1,368,20,f,y,y,2019_Apr_30_1706,2AFC_task,59.96122415446741,
stimuli/rgb_scene000113_render000001.png,stimuli/rgb_scene000113_render000004.png,0,69,69,155,"[1, 0]",left,1,368,20,f,y,y,2019_Apr_30_1706,2AFC_task,59.96122415446741,
stimuli/rgb_scene000005_render000003.png,stimuli/rgb_scene000005_render000006.png,0,70,70,38,"[0, 1]",left,0,368,20,f,y,y,2019_Apr_30_1706,2AFC_task,59.96122415446741,
stimuli/rgb_scene000095_render000003.png,stimuli/rgb_scene000095_render000004.png,0,71,71,99,"[1, 0]",left,1,368,20,f,y,y,2019_Apr_30_1706,2AFC_task,59.96122415446741,
stimuli/rgb_scene000195_render000003.png,stimuli/rgb_scene000195_render000006.png,0,72,72,206,"[0, 1]",left,0,368,20,f,y,y,2019_Apr_30_1706,2AFC_task,59.96122415446741,
stimuli/rgb_scene000195_render000001.png,stimuli/rgb_scene000195_render000002.png,0,73,73,195,"[1, 0]",right,0,368,20,f,y,y,2019_Apr_30_1706,2AFC_task,59.96122415446741,
stimuli/rgb_scene000195_render000004.png,stimuli/rgb_scene000195_render000006.png,0,74,74,208,"[1, 0]",right,0,368,20,f,y,y,2019_Apr_30_1706,2AFC_task,59.96122415446741,
stimuli/rgb_scene000113_render000000.png,stimuli/rgb_scene000113_render000003.png,0,75,75,149,"[0, 1]",right,1,368,20,f,y,y,2019_Apr_30_1706,2AFC_task,59.96122415446741,
stimuli/rgb_scene000005_render000002.png,stimuli/rgb_scene000005_render000003.png,0,76,76,32,"[0, 1]",left,0,368,20,f,y,y,2019_Apr_30_1706,2AFC_task,59.96122415446741,
stimuli/rgb_scene000195_render000003.png,stimuli/rgb_scene000195_render000004.png,0,77,77,204,"[1, 0]",right,0,368,20,f,y,y,2019_Apr_30_1706,2AFC_task,59.96122415446741,
stimuli/rgb_scene000012_render000000.png,stimuli/rgb_scene000012_render000002.png,0,78,78,43,"[1, 0]",left,1,368,20,f,y,y,2019_Apr_30_1706,2AFC_task,59.96122415446741,
stimuli/rgb_scene000004_render000000.png,stimuli/rgb_scene000004_render000002.png,0,79,79,1,"[1, 0]",left,1,368,20,f,y,y,2019_Apr_30_1706,2AFC_task,59.96122415446741,
stimuli/rgb_scene000195_render000001.png,stimuli/rgb_scene000195_render000006.png,0,80,80,199,"[1, 0]",right,0,368,20,f,y,y,2019_Apr_30_1706,2AFC_task,59.96122415446741,
stimuli/rgb_scene000095_render000004.png,stimuli/rgb_scene000095_render000005.png,0,81,81,102,"[0, 1]",right,1,368,20,f,y,y,2019_Apr_30_1706,2AFC_task,59.96122415446741,
stimuli/rgb_scene000005_render000005.png,stimuli/rgb_scene000005_render000006.png,0,82,82,41,"[1, 0]",right,0,368,20,f,y,y,2019_Apr_30_1706,2AFC_task,59.96122415446741,
stimuli/rgb_scene000113_render000002.png,stimuli/rgb_scene000113_render000003.png,0,83,83,158,"[1, 0]",left,1,368,20,f,y,y,2019_Apr_30_1706,2AFC_task,59.96122415446741,
stimuli/rgb_scene000012_render000004.png,stimuli/rgb_scene000012_render000005.png,0,84,84,60,"[0, 1]",left,0,368,20,f,y,y,2019_Apr_30_1706,2AFC_task,59.96122415446741,
stimuli/rgb_scene000146_render000001.png,stimuli/rgb_scene000146_render000004.png,0,85,85,176,"[1, 0]",left,1,368,20,f,y,y,2019_Apr_30_1706,2AFC_task,59.96122415446741,
stimuli/rgb_scene000113_render000001.png,stimuli/rgb_scene000113_render000002.png,0,86,86,153,"[0, 1]",right,1,368,20,f,y,y,2019_Apr_30_1706,2AFC_task,59.96122415446741,
stimuli/rgb_scene000095_render000000.png,stimuli/rgb_scene000095_render000005.png,0,87,87,88,"[0, 1]",right,1,368,20,f,y,y,2019_Apr_30_1706,2AFC_task,59.96122415446741,
stimuli/rgb_scene000195_render000003.png,stimuli/rgb_scene000195_render000005.png,0,88,88,205,"[1, 0]",right,0,368,20,f,y,y,2019_Apr_30_1706,2AFC_task,59.96122415446741,
stimuli/rgb_scene000090_render000001.png,stimuli/rgb_scene000090_render000003.png,0,89,89,70,"[1, 0]",right,0,368,20,f,y,y,2019_Apr_30_1706,2AFC_task,59.96122415446741,
stimuli/rgb_scene000113_render000000.png,stimuli/rgb_scene000113_render000002.png,0,90,90,148,"[0, 1]",right,1,368,20,f,y,y,2019_Apr_30_1706,2AFC_task,59.96122415446741,
stimuli/rgb_scene000004_render000004.png,stimuli/rgb_scene000004_render000005.png,0,91,91,18,"[1, 0]",left,1,368,20,f,y,y,2019_Apr_30_1706,2AFC_task,59.96122415446741,
stimuli/rgb_scene000102_render000000.png,stimuli/rgb_scene000102_render000004.png,0,92,92,129,"[1, 0]",left,1,368,20,f,y,y,2019_Apr_30_1706,2AFC_task,59.96122415446741,
stimuli/rgb_scene000004_render000003.png,stimuli/rgb_scene000004_render000005.png,0,93,93,16,"[0, 1]",right,1,368,20,f,y,y,2019_Apr_30_1706,2AFC_task,59.96122415446741,
stimuli/rgb_scene000090_render000000.png,stimuli/rgb_scene000090_render000001.png,0,94,94,63,"[1, 0]",right,0,368,20,f,y,y,2019_Apr_30_1706,2AFC_task,59.96122415446741,
stimuli/rgb_scene000004_render000001.png,stimuli/rgb_scene000004_render000005.png,0,95,95,9,"[0, 1]",right,1,368,20,f,y,y,2019_Apr_30_1706,2AFC_task,59.96122415446741,
stimuli/rgb_scene000090_render000002.png,stimuli/rgb_scene000090_render000006.png,0,96,96,77,"[1, 0]",right,0,368,20,f,y,y,2019_Apr_30_1706,2AFC_task,59.96122415446741,
stimuli/rgb_scene000095_render000001.png,stimuli/rgb_scene000095_render000002.png,0,97,97,90,"[1, 0]",left,1,368,20,f,y,y,2019_Apr_30_1706,2AFC_task,59.96122415446741,
stimuli/rgb_scene000096_render000003.png,stimuli/rgb_scene000096_render000006.png,0,98,98,122,"[0, 1]",right,1,368,20,f,y,y,2019_Apr_30_1706,2AFC_task,59.96122415446741,
stimuli/rgb_scene000005_render000002.png,stimuli/rgb_scene000005_render000004.png,0,99,99,33,"[0, 1]",left,0,368,20,f,y,y,2019_Apr_30_1706,2AFC_task,59.96122415446741,
stimuli/rgb_scene000146_render000000.png,stimuli/rgb_scene000146_render000004.png,0,100,100,171,"[0, 1]",right,1,368,20,f,y,y,2019_Apr_30_1706,2AFC_task,59.96122415446741,
stimuli/rgb_scene000146_render000000.png,stimuli/rgb_scene000146_render000003.png,0,101,101,170,"[1, 0]",left,1,368,20,f,y,y,2019_Apr_30_1706,2AFC_task,59.96122415446741,
stimuli/rgb_scene000195_render000002.png,stimuli/rgb_scene000195_render000003.png,0,102,102,200,"[0, 1]",left,0,368,20,f,y,y,2019_Apr_30_1706,2AFC_task,59.96122415446741,
stimuli/rgb_scene000102_render000002.png,stimuli/rgb_scene000102_render000006.png,0,103,103,140,"[1, 0]",left,1,368,20,f,y,y,2019_Apr_30_1706,2AFC_task,59.96122415446741,
stimuli/rgb_scene000102_render000004.png,stimuli/rgb_scene000102_render000006.png,0,104,104,145,"[1, 0]",right,0,368,20,f,y,y,2019_Apr_30_1706,2AFC_task,59.96122415446741,
stimuli/rgb_scene000090_render000002.png,stimuli/rgb_scene000090_render000003.png,0,105,105,74,"[0, 1]",left,0,368,20,f,y,y,2019_Apr_30_1706,2AFC_task,59.96122415446741,
stimuli/rgb_scene000096_render000003.png,stimuli/rgb_scene000096_render000004.png,0,106,106,120,"[1, 0]",left,1,368,20,f,y,y,2019_Apr_30_1706,2AFC_task,59.96122415446741,
stimuli/rgb_scene000095_render000000.png,stimuli/rgb_scene000095_render000006.png,0,107,107,89,"[0, 1]",right,1,368,20,f,y,y,2019_Apr_30_1706,2AFC_task,59.96122415446741,
stimuli/rgb_scene000113_render000004.png,stimuli/rgb_scene000113_render000005.png,0,108,108,165,"[0, 1]",right,1,368,20,f,y,y,2019_Apr_30_1706,2AFC_task,59.96122415446741,
stimuli/rgb_scene000095_render000002.png,stimuli/rgb_scene000095_render000003.png,0,109,109,95,"[1, 0]",left,1,368,20,f,y,y,2019_Apr_30_1706,2AFC_task,59.96122415446741,
stimuli/rgb_scene000090_render000000.png,stimuli/rgb_scene000090_render000004.png,0,110,110,66,"[1, 0]",right,0,368,20,f,y,y,2019_Apr_30_1706,2AFC_task,59.96122415446741,
stimuli/rgb_scene000095_render000003.png,stimuli/rgb_scene000095_render000005.png,0,111,111,100,"[0, 1]",right,1,368,20,f,y,y,2019_Apr_30_1706,2AFC_task,59.96122415446741,
stimuli/rgb_scene000102_render000000.png,stimuli/rgb_scene000102_render000005.png,0,112,112,130,"[0, 1]",right,1,368,20,f,y,y,2019_Apr_30_1706,2AFC_task,59.96122415446741,
stimuli/rgb_scene000096_render000001.png,stimuli/rgb_scene000096_render000006.png,0,113,113,115,"[1, 0]",left,1,368,20,f,y,y,2019_Apr_30_1706,2AFC_task,59.96122415446741,
stimuli/rgb_scene000146_render000003.png,stimuli/rgb_scene000146_render000005.png,0,114,114,184,"[0, 1]",right,1,368,20,f,y,y,2019_Apr_30_1706,2AFC_task,59.96122415446741,
stimuli/rgb_scene000005_render000001.png,stimuli/rgb_scene000005_render000006.png,0,115,115,31,"[0, 1]",left,0,368,20,f,y,y,2019_Apr_30_1706,2AFC_task,59.96122415446741,
stimuli/rgb_scene000113_render000003.png,stimuli/rgb_scene000113_render000004.png,0,116,116,162,"[0, 1]",right,1,368,20,f,y,y,2019_Apr_30_1706,2AFC_task,59.96122415446741,
stimuli/rgb_scene000090_render000002.png,stimuli/rgb_scene000090_render000004.png,0,117,117,75,"[1, 0]",right,0,368,20,f,y,y,2019_Apr_30_1706,2AFC_task,59.96122415446741,
stimuli/rgb_scene000146_render000000.png,stimuli/rgb_scene000146_render000001.png,0,118,118,168,"[1, 0]",left,1,368,20,f,y,y,2019_Apr_30_1706,2AFC_task,59.96122415446741,
stimuli/rgb_scene000102_render000001.png,stimuli/rgb_scene000102_render000002.png,0,119,119,132,"[1, 0]",left,1,368,20,f,y,y,2019_Apr_30_1706,2AFC_task,59.96122415446741,
stimuli/rgb_scene000012_render000003.png,stimuli/rgb_scene000012_render000004.png,0,120,120,57,"[0, 1]",right,1,368,20,f,y,y,2019_Apr_30_1706,2AFC_task,59.96122415446741,
stimuli/rgb_scene000090_render000003.png,stimuli/rgb_scene000090_render000006.png,0,121,121,80,"[0, 1]",left,0,368,20,f,y,y,2019_Apr_30_1706,2AFC_task,59.96122415446741,
stimuli/rgb_scene000096_render000004.png,stimuli/rgb_scene000096_render000005.png,0,122,122,123,"[1, 0]",left,1,368,20,f,y,y,2019_Apr_30_1706,2AFC_task,59.96122415446741,
stimuli/rgb_scene000012_render000003.png,stimuli/rgb_scene000012_render000006.png,0,123,123,59,"[0, 1]",right,1,368,20,f,y,y,2019_Apr_30_1706,2AFC_task,59.96122415446741,
stimuli/rgb_scene000005_render000001.png,stimuli/rgb_scene000005_render000003.png,0,124,124,28,"[0, 1]",right,1,368,20,f,y,y,2019_Apr_30_1706,2AFC_task,59.96122415446741,
stimuli/rgb_scene000096_render000002.png,stimuli/rgb_scene000096_render000003.png,0,125,125,116,"[1, 0]",left,1,368,20,f,y,y,2019_Apr_30_1706,2AFC_task,59.96122415446741,
stimuli/rgb_scene000195_render000002.png,stimuli/rgb_scene000195_render000004.png,0,126,126,201,"[1, 0]",left,1,368,20,f,y,y,2019_Apr_30_1706,2AFC_task,59.96122415446741,
stimuli/rgb_scene000146_render000001.png,stimuli/rgb_scene000146_render000006.png,0,127,127,178,"[1, 0]",left,1,368,20,f,y,y,2019_Apr_30_1706,2AFC_task,59.96122415446741,
stimuli/rgb_scene000012_render000001.png,stimuli/rgb_scene000012_render000006.png,0,128,128,52,"[0, 1]",right,1,368,20,f,y,y,2019_Apr_30_1706,2AFC_task,59.96122415446741,
stimuli/rgb_scene000146_render000004.png,stimuli/rgb_scene000146_render000005.png,0,129,129,186,"[0, 1]",right,1,368,20,f,y,y,2019_Apr_30_1706,2AFC_task,59.96122415446741,
stimuli/rgb_scene000146_render000003.png,stimuli/rgb_scene000146_render000004.png,0,130,130,183,"[1, 0]",left,1,368,20,f,y,y,2019_Apr_30_1706,2AFC_task,59.96122415446741,
stimuli/rgb_scene000012_render000000.png,stimuli/rgb_scene000012_render000003.png,0,131,131,44,"[0, 1]",right,1,368,20,f,y,y,2019_Apr_30_1706,2AFC_task,59.96122415446741,
stimuli/rgb_scene000096_render000000.png,stimuli/rgb_scene000096_render000005.png,0,132,132,109,"[1, 0]",left,1,368,20,f,y,y,2019_Apr_30_1706,2AFC_task,59.96122415446741,
stimuli/rgb_scene000090_render000005.png,stimuli/rgb_scene000090_render000006.png,0,133,133,83,"[1, 0]",right,0,368,20,f,y,y,2019_Apr_30_1706,2AFC_task,59.96122415446741,
stimuli/rgb_scene000113_render000003.png,stimuli/rgb_scene000113_render000006.png,0,134,134,164,"[1, 0]",left,1,368,20,f,y,y,2019_Apr_30_1706,2AFC_task,59.96122415446741,
stimuli/rgb_scene000005_render000000.png,stimuli/rgb_scene000005_render000001.png,0,135,135,21,"[0, 1]",right,1,368,20,f,y,y,2019_Apr_30_1706,2AFC_task,59.96122415446741,
stimuli/rgb_scene000113_render000004.png,stimuli/rgb_scene000113_render000006.png,0,136,136,166,"[1, 0]",left,1,368,20,f,y,y,2019_Apr_30_1706,2AFC_task,59.96122415446741,
stimuli/rgb_scene000095_render000004.png,stimuli/rgb_scene000095_render000006.png,0,137,137,103,"[1, 0]",left,1,368,20,f,y,y,2019_Apr_30_1706,2AFC_task,59.96122415446741,
stimuli/rgb_scene000195_render000001.png,stimuli/rgb_scene000195_render000003.png,0,138,138,196,"[0, 1]",right,1,368,20,f,y,y,2019_Apr_30_1706,2AFC_task,59.96122415446741,
stimuli/rgb_scene000195_render000002.png,stimuli/rgb_scene000195_render000006.png,0,139,139,203,"[0, 1]",right,1,368,20,f,y,y,2019_Apr_30_1706,2AFC_task,59.96122415446741,
stimuli/rgb_scene000095_render000001.png,stimuli/rgb_scene000095_render000004.png,0,140,140,92,"[1, 0]",left,1,368,20,f,y,y,2019_Apr_30_1706,2AFC_task,59.96122415446741,
stimuli/rgb_scene000012_render000001.png,stimuli/rgb_scene000012_render000004.png,0,141,141,50,"[0, 1]",right,1,368,20,f,y,y,2019_Apr_30_1706,2AFC_task,59.96122415446741,
stimuli/rgb_scene000090_render000002.png,stimuli/rgb_scene000090_render000005.png,0,142,142,76,"[0, 1]",left,0,368,20,f,y,y,2019_Apr_30_1706,2AFC_task,59.96122415446741,
stimuli/rgb_scene000113_render000005.png,stimuli/rgb_scene000113_render000006.png,0,143,143,167,"[0, 1]",left,0,368,20,f,y,y,2019_Apr_30_1706,2AFC_task,59.96122415446741,
stimuli/rgb_scene000090_render000000.png,stimuli/rgb_scene000090_render000002.png,0,144,144,64,"[0, 1]",right,1,368,20,f,y,y,2019_Apr_30_1706,2AFC_task,59.96122415446741,
stimuli/rgb_scene000090_render000001.png,stimuli/rgb_scene000090_render000002.png,0,145,145,69,"[0, 1]",right,1,368,20,f,y,y,2019_Apr_30_1706,2AFC_task,59.96122415446741,
stimuli/rgb_scene000195_render000002.png,stimuli/rgb_scene000195_render000005.png,0,146,146,202,"[0, 1]",left,0,368,20,f,y,y,2019_Apr_30_1706,2AFC_task,59.96122415446741,
stimuli/rgb_scene000012_render000003.png,stimuli/rgb_scene000012_render000005.png,0,147,147,58,"[1, 0]",left,1,368,20,f,y,y,2019_Apr_30_1706,2AFC_task,59.96122415446741,
stimuli/rgb_scene000004_render000001.png,stimuli/rgb_scene000004_render000004.png,0,148,148,8,"[1, 0]",left,1,368,20,f,y,y,2019_Apr_30_1706,2AFC_task,59.96122415446741,
stimuli/rgb_scene000090_render000001.png,stimuli/rgb_scene000090_render000006.png,0,149,149,73,"[0, 1]",left,0,368,20,f,y,y,2019_Apr_30_1706,2AFC_task,59.96122415446741,
stimuli/rgb_scene000102_render000003.png,stimuli/rgb_scene000102_render000004.png,0,150,150,141,"[0, 1]",right,1,368,20,f,y,y,2019_Apr_30_1706,2AFC_task,59.96122415446741,
stimuli/rgb_scene000004_render000002.png,stimuli/rgb_scene000004_render000004.png,0,151,151,12,"[1, 0]",left,1,368,20,f,y,y,2019_Apr_30_1706,2AFC_task,59.96122415446741,
stimuli/rgb_scene000102_render000002.png,stimuli/rgb_scene000102_render000003.png,0,152,152,137,"[1, 0]",left,1,368,20,f,y,y,2019_Apr_30_1706,2AFC_task,59.96122415446741,
stimuli/rgb_scene000004_render000002.png,stimuli/rgb_scene000004_render000003.png,0,153,153,11,"[1, 0]",left,1,368,20,f,y,y,2019_Apr_30_1706,2AFC_task,59.96122415446741,
stimuli/rgb_scene000102_render000003.png,stimuli/rgb_scene000102_render000006.png,0,154,154,143,"[0, 1]",right,1,368,20,f,y,y,2019_Apr_30_1706,2AFC_task,59.96122415446741,
stimuli/rgb_scene000004_render000001.png,stimuli/rgb_scene000004_render000006.png,0,155,155,10,"[0, 1]",right,1,368,20,f,y,y,2019_Apr_30_1706,2AFC_task,59.96122415446741,
stimuli/rgb_scene000005_render000000.png,stimuli/rgb_scene000005_render000002.png,0,156,156,22,"[0, 1]",right,1,368,20,f,y,y,2019_Apr_30_1706,2AFC_task,59.96122415446741,
stimuli/rgb_scene000012_render000001.png,stimuli/rgb_scene000012_render000003.png,0,157,157,49,"[0, 1]",right,1,368,20,f,y,y,2019_Apr_30_1706,2AFC_task,59.96122415446741,
stimuli/rgb_scene000004_render000003.png,stimuli/rgb_scene000004_render000004.png,0,158,158,15,"[0, 1]",right,1,368,20,f,y,y,2019_Apr_30_1706,2AFC_task,59.96122415446741,
stimuli/rgb_scene000195_render000001.png,stimuli/rgb_scene000195_render000004.png,0,159,159,197,"[1, 0]",right,0,368,20,f,y,y,2019_Apr_30_1706,2AFC_task,59.96122415446741,
stimuli/rgb_scene000090_render000001.png,stimuli/rgb_scene000090_render000004.png,0,160,160,71,"[0, 1]",right,1,368,20,f,y,y,2019_Apr_30_1706,2AFC_task,59.96122415446741,
stimuli/rgb_scene000012_render000004.png,stimuli/rgb_scene000012_render000006.png,0,161,161,61,"[0, 1]",left,0,368,20,f,y,y,2019_Apr_30_1706,2AFC_task,59.96122415446741,
stimuli/rgb_scene000102_render000000.png,stimuli/rgb_scene000102_render000006.png,0,162,162,131,"[0, 1]",right,1,368,20,f,y,y,2019_Apr_30_1706,2AFC_task,59.96122415446741,
stimuli/rgb_scene000005_render000004.png,stimuli/rgb_scene000005_render000006.png,0,163,163,40,"[0, 1]",left,0,368,20,f,y,y,2019_Apr_30_1706,2AFC_task,59.96122415446741,
stimuli/rgb_scene000096_render000000.png,stimuli/rgb_scene000096_render000004.png,0,164,164,108,"[0, 1]",right,1,368,20,f,y,y,2019_Apr_30_1706,2AFC_task,59.96122415446741,
stimuli/rgb_scene000102_render000000.png,stimuli/rgb_scene000102_render000003.png,0,165,165,128,"[1, 0]",left,1,368,20,f,y,y,2019_Apr_30_1706,2AFC_task,59.96122415446741,
stimuli/rgb_scene000146_render000001.png,stimuli/rgb_scene000146_render000002.png,0,166,166,174,"[0, 1]",right,1,368,20,f,y,y,2019_Apr_30_1706,2AFC_task,59.96122415446741,
stimuli/rgb_scene000005_render000000.png,stimuli/rgb_scene000005_render000005.png,0,167,167,25,"[0, 1]",right,1,368,20,f,y,y,2019_Apr_30_1706,2AFC_task,59.96122415446741,
stimuli/rgb_scene000096_render000003.png,stimuli/rgb_scene000096_render000005.png,0,168,168,121,"[1, 0]",left,1,368,20,f,y,y,2019_Apr_30_1706,2AFC_task,59.96122415446741,
stimuli/rgb_scene000096_render000002.png,stimuli/rgb_scene000096_render000004.png,0,169,169,117,"[0, 1]",right,1,368,20,f,y,y,2019_Apr_30_1706,2AFC_task,59.96122415446741,
stimuli/rgb_scene000146_render000003.png,stimuli/rgb_scene000146_render000006.png,0,170,170,185,"[1, 0]",left,1,368,20,f,y,y,2019_Apr_30_1706,2AFC_task,59.96122415446741,
stimuli/rgb_scene000090_render000000.png,stimuli/rgb_scene000090_render000003.png,0,171,171,65,"[0, 1]",right,1,368,20,f,y,y,2019_Apr_30_1706,2AFC_task,59.96122415446741,
stimuli/rgb_scene000012_render000002.png,stimuli/rgb_scene000012_render000006.png,0,172,172,56,"[1, 0]",left,1,368,20,f,y,y,2019_Apr_30_1706,2AFC_task,59.96122415446741,
stimuli/rgb_scene000102_render000002.png,stimuli/rgb_scene000102_render000005.png,0,173,173,139,"[1, 0]",left,1,368,20,f,y,y,2019_Apr_30_1706,2AFC_task,59.96122415446741,
stimuli/rgb_scene000095_render000002.png,stimuli/rgb_scene000095_render000005.png,0,174,174,97,"[1, 0]",left,1,368,20,f,y,y,2019_Apr_30_1706,2AFC_task,59.96122415446741,
stimuli/rgb_scene000004_render000001.png,stimuli/rgb_scene000004_render000003.png,0,175,175,7,"[0, 1]",right,1,368,20,f,y,y,2019_Apr_30_1706,2AFC_task,59.96122415446741,
stimuli/rgb_scene000102_render000005.png,stimuli/rgb_scene000102_render000006.png,0,176,176,146,"[1, 0]",right,0,368,20,f,y,y,2019_Apr_30_1706,2AFC_task,59.96122415446741,
stimuli/rgb_scene000012_render000002.png,stimuli/rgb_scene000012_render000005.png,0,177,177,55,"[0, 1]",right,1,368,20,f,y,y,2019_Apr_30_1706,2AFC_task,59.96122415446741,
stimuli/rgb_scene000012_render000001.png,stimuli/rgb_scene000012_render000005.png,0,178,178,51,"[1, 0]",left,1,368,20,f,y,y,2019_Apr_30_1706,2AFC_task,59.96122415446741,
stimuli/rgb_scene000090_render000000.png,stimuli/rgb_scene000090_render000006.png,0,179,179,68,"[1, 0]",left,1,368,20,f,y,y,2019_Apr_30_1706,2AFC_task,59.96122415446741,
stimuli/rgb_scene000005_render000000.png,stimuli/rgb_scene000005_render000003.png,0,180,180,23,"[1, 0]",left,1,368,20,f,y,y,2019_Apr_30_1706,2AFC_task,59.96122415446741,
stimuli/rgb_scene000005_render000001.png,stimuli/rgb_scene000005_render000004.png,0,181,181,29,"[0, 1]",right,1,368,20,f,y,y,2019_Apr_30_1706,2AFC_task,59.96122415446741,
stimuli/rgb_scene000096_render000002.png,stimuli/rgb_scene000096_render000006.png,0,182,182,119,"[0, 1]",right,1,368,20,f,y,y,2019_Apr_30_1706,2AFC_task,59.96122415446741,
stimuli/rgb_scene000090_render000004.png,stimuli/rgb_scene000090_render000006.png,0,183,183,82,"[1, 0]",right,0,368,20,f,y,y,2019_Apr_30_1706,2AFC_task,59.96122415446741,
stimuli/rgb_scene000096_render000004.png,stimuli/rgb_scene000096_render000006.png,0,184,184,124,"[1, 0]",left,1,368,20,f,y,y,2019_Apr_30_1706,2AFC_task,59.96122415446741,
stimuli/rgb_scene000102_render000002.png,stimuli/rgb_scene000102_render000004.png,0,185,185,138,"[1, 0]",left,1,368,20,f,y,y,2019_Apr_30_1706,2AFC_task,59.96122415446741,
stimuli/rgb_scene000146_render000002.png,stimuli/rgb_scene000146_render000006.png,0,186,186,182,"[1, 0]",left,1,368,20,f,y,y,2019_Apr_30_1706,2AFC_task,59.96122415446741,
stimuli/rgb_scene000096_render000000.png,stimuli/rgb_scene000096_render000006.png,0,187,187,110,"[0, 1]",right,1,368,20,f,y,y,2019_Apr_30_1706,2AFC_task,59.96122415446741,
stimuli/rgb_scene000095_render000001.png,stimuli/rgb_scene000095_render000006.png,0,188,188,94,"[1, 0]",left,1,368,20,f,y,y,2019_Apr_30_1706,2AFC_task,59.96122415446741,
stimuli/rgb_scene000146_render000002.png,stimuli/rgb_scene000146_render000003.png,0,189,189,179,"[1, 0]",left,1,368,20,f,y,y,2019_Apr_30_1706,2AFC_task,59.96122415446741,
stimuli/rgb_scene000096_render000000.png,stimuli/rgb_scene000096_render000003.png,0,190,190,107,"[0, 1]",right,1,368,20,f,y,y,2019_Apr_30_1706,2AFC_task,59.96122415446741,
stimuli/rgb_scene000195_render000000.png,stimuli/rgb_scene000195_render000002.png,0,191,191,190,"[1, 0]",left,1,368,20,f,y,y,2019_Apr_30_1706,2AFC_task,59.96122415446741,
stimuli/rgb_scene000113_render000002.png,stimuli/rgb_scene000113_render000005.png,0,192,192,160,"[0, 1]",right,1,368,20,f,y,y,2019_Apr_30_1706,2AFC_task,59.96122415446741,
stimuli/rgb_scene000102_render000001.png,stimuli/rgb_scene000102_render000006.png,0,193,193,136,"[0, 1]",right,1,368,20,f,y,y,2019_Apr_30_1706,2AFC_task,59.96122415446741,
stimuli/rgb_scene000095_render000000.png,stimuli/rgb_scene000095_render000004.png,0,194,194,87,"[1, 0]",left,1,368,20,f,y,y,2019_Apr_30_1706,2AFC_task,59.96122415446741,
stimuli/rgb_scene000195_render000000.png,stimuli/rgb_scene000195_render000006.png,0,195,195,194,"[0, 1]",right,1,368,20,f,y,y,2019_Apr_30_1706,2AFC_task,59.96122415446741,
stimuli/rgb_scene000005_render000001.png,stimuli/rgb_scene000005_render000002.png,0,196,196,27,"[1, 0]",left,1,368,20,f,y,y,2019_Apr_30_1706,2AFC_task,59.96122415446741,
stimuli/rgb_scene000102_render000004.png,stimuli/rgb_scene000102_render000005.png,0,197,197,144,"[1, 0]",left,1,368,20,f,y,y,2019_Apr_30_1706,2AFC_task,59.96122415446741,
stimuli/rgb_scene000146_render000000.png,stimuli/rgb_scene000146_render000005.png,0,198,198,172,"[0, 1]",right,1,368,20,f,y,y,2019_Apr_30_1706,2AFC_task,59.96122415446741,
stimuli/rgb_scene000113_render000001.png,stimuli/rgb_scene000113_render000006.png,0,199,199,157,"[0, 1]",right,1,368,20,f,y,y,2019_Apr_30_1706,2AFC_task,59.96122415446741,
stimuli/rgb_scene000090_render000003.png,stimuli/rgb_scene000090_render000005.png,0,200,200,79,"[1, 0]",left,1,368,20,f,y,y,2019_Apr_30_1706,2AFC_task,59.96122415446741,
stimuli/rgb_scene000096_render000001.png,stimuli/rgb_scene000096_render000003.png,0,201,201,112,"[1, 0]",left,1,368,20,f,y,y,2019_Apr_30_1706,2AFC_task,59.96122415446741,
stimuli/rgb_scene000005_render000001.png,stimuli/rgb_scene000005_render000005.png,0,202,202,30,"[0, 1]",left,0,368,20,f,y,y,2019_Apr_30_1706,2AFC_task,59.96122415446741,
stimuli/rgb_scene000102_render000001.png,stimuli/rgb_scene000102_render000005.png,0,203,203,135,"[0, 1]",right,1,368,20,f,y,y,2019_Apr_30_1706,2AFC_task,59.96122415446741,
stimuli/rgb_scene000146_render000002.png,stimuli/rgb_scene000146_render000005.png,0,204,204,181,"[0, 1]",right,1,368,20,f,y,y,2019_Apr_30_1706,2AFC_task,59.96122415446741,
stimuli/rgb_scene000095_render000001.png,stimuli/rgb_scene000095_render000005.png,0,205,205,93,"[1, 0]",left,1,368,20,f,y,y,2019_Apr_30_1706,2AFC_task,59.96122415446741,
stimuli/rgb_scene000012_render000001.png,stimuli/rgb_scene000012_render000002.png,0,206,206,48,"[0, 1]",right,1,368,20,f,y,y,2019_Apr_30_1706,2AFC_task,59.96122415446741,
stimuli/rgb_scene000012_render000000.png,stimuli/rgb_scene000012_render000001.png,0,207,207,42,"[0, 1]",right,1,368,20,f,y,y,2019_Apr_30_1706,2AFC_task,59.96122415446741,
stimuli/rgb_scene000195_render000000.png,stimuli/rgb_scene000195_render000001.png,0,208,208,189,"[0, 1]",right,1,368,20,f,y,y,2019_Apr_30_1706,2AFC_task,59.96122415446741,
stimuli/rgb_scene000004_render000005.png,stimuli/rgb_scene000004_render000006.png,0,209,209,20,"[0, 1]",right,1,368,20,f,y,y,2019_Apr_30_1706,2AFC_task,59.96122415446741,
stimuli/rgb_scene000195_render000005.png,stimuli/rgb_scene000195_render000006.png,1,0,210,209,"[1, 0]",right,0,368,20,f,y,y,2019_Apr_30_1706,2AFC_task,59.96122415446741,
stimuli/rgb_scene000096_render000004.png,stimuli/rgb_scene000096_render000006.png,1,1,211,124,"[1, 0]",left,1,368,20,f,y,y,2019_Apr_30_1706,2AFC_task,59.96122415446741,
stimuli/rgb_scene000005_render000002.png,stimuli/rgb_scene000005_render000005.png,1,2,212,34,"[0, 1]",left,0,368,20,f,y,y,2019_Apr_30_1706,2AFC_task,59.96122415446741,
stimuli/rgb_scene000090_render000000.png,stimuli/rgb_scene000090_render000006.png,1,3,213,68,"[1, 0]",left,1,368,20,f,y,y,2019_Apr_30_1706,2AFC_task,59.96122415446741,
stimuli/rgb_scene000102_render000000.png,stimuli/rgb_scene000102_render000005.png,1,4,214,130,"[1, 0]",left,1,368,20,f,y,y,2019_Apr_30_1706,2AFC_task,59.96122415446741,
stimuli/rgb_scene000102_render000000.png,stimuli/rgb_scene000102_render000002.png,1,5,215,127,"[0, 1]",right,1,368,20,f,y,y,2019_Apr_30_1706,2AFC_task,59.96122415446741,
stimuli/rgb_scene000113_render000000.png,stimuli/rgb_scene000113_render000001.png,1,6,216,147,"[0, 1]",right,1,368,20,f,y,y,2019_Apr_30_1706,2AFC_task,59.96122415446741,
stimuli/rgb_scene000012_render000005.png,stimuli/rgb_scene000012_render000006.png,1,7,217,62,"[1, 0]",right,0,368,20,f,y,y,2019_Apr_30_1706,2AFC_task,59.96122415446741,
stimuli/rgb_scene000004_render000002.png,stimuli/rgb_scene000004_render000005.png,1,8,218,13,"[1, 0]",left,1,368,20,f,y,y,2019_Apr_30_1706,2AFC_task,59.96122415446741,
stimuli/rgb_scene000004_render000004.png,stimuli/rgb_scene000004_render000006.png,1,9,219,19,"[0, 1]",right,1,368,20,f,y,y,2019_Apr_30_1706,2AFC_task,59.96122415446741,
stimuli/rgb_scene000012_render000000.png,stimuli/rgb_scene000012_render000001.png,1,10,220,42,"[0, 1]",right,1,368,20,f,y,y,2019_Apr_30_1706,2AFC_task,59.96122415446741,
stimuli/rgb_scene000090_render000002.png,stimuli/rgb_scene000090_render000005.png,1,11,221,76,"[0, 1]",left,0,368,20,f,y,y,2019_Apr_30_1706,2AFC_task,59.96122415446741,
stimuli/rgb_scene000146_render000003.png,stimuli/rgb_scene000146_render000004.png,1,12,222,183,"[1, 0]",left,1,368,20,f,y,y,2019_Apr_30_1706,2AFC_task,59.96122415446741,
stimuli/rgb_scene000012_render000001.png,stimuli/rgb_scene000012_render000004.png,1,13,223,50,"[0, 1]",right,1,368,20,f,y,y,2019_Apr_30_1706,2AFC_task,59.96122415446741,
stimuli/rgb_scene000102_render000002.png,stimuli/rgb_scene000102_render000004.png,1,14,224,138,"[1, 0]",left,1,368,20,f,y,y,2019_Apr_30_1706,2AFC_task,59.96122415446741,
stimuli/rgb_scene000096_render000001.png,stimuli/rgb_scene000096_render000004.png,1,15,225,113,"[0, 1]",right,1,368,20,f,y,y,2019_Apr_30_1706,2AFC_task,59.96122415446741,
stimuli/rgb_scene000195_render000001.png,stimuli/rgb_scene000195_render000004.png,1,16,226,197,"[1, 0]",left,1,368,20,f,y,y,2019_Apr_30_1706,2AFC_task,59.96122415446741,
stimuli/rgb_scene000005_render000001.png,stimuli/rgb_scene000005_render000002.png,1,17,227,27,"[1, 0]",left,1,368,20,f,y,y,2019_Apr_30_1706,2AFC_task,59.96122415446741,
stimuli/rgb_scene000096_render000000.png,stimuli/rgb_scene000096_render000002.png,1,18,228,106,"[0, 1]",right,1,368,20,f,y,y,2019_Apr_30_1706,2AFC_task,59.96122415446741,
stimuli/rgb_scene000090_render000000.png,stimuli/rgb_scene000090_render000005.png,1,19,229,67,"[0, 1]",right,1,368,20,f,y,y,2019_Apr_30_1706,2AFC_task,59.96122415446741,
stimuli/rgb_scene000102_render000004.png,stimuli/rgb_scene000102_render000006.png,1,20,230,145,"[0, 1]",left,0,368,20,f,y,y,2019_Apr_30_1706,2AFC_task,59.96122415446741,
stimuli/rgb_scene000102_render000001.png,stimuli/rgb_scene000102_render000003.png,1,21,231,133,"[1, 0]",left,1,368,20,f,y,y,2019_Apr_30_1706,2AFC_task,59.96122415446741,
stimuli/rgb_scene000090_render000001.png,stimuli/rgb_scene000090_render000002.png,1,22,232,69,"[0, 1]",right,1,368,20,f,y,y,2019_Apr_30_1706,2AFC_task,59.96122415446741,
stimuli/rgb_scene000095_render000005.png,stimuli/rgb_scene000095_render000006.png,1,23,233,104,"[0, 1]",left,0,368,20,f,y,y,2019_Apr_30_1706,2AFC_task,59.96122415446741,
stimuli/rgb_scene000096_render000002.png,stimuli/rgb_scene000096_render000003.png,1,24,234,116,"[0, 1]",right,1,368,20,f,y,y,2019_Apr_30_1706,2AFC_task,59.96122415446741,
stimuli/rgb_scene000146_render000000.png,stimuli/rgb_scene000146_render000006.png,1,25,235,173,"[1, 0]",left,1,368,20,f,y,y,2019_Apr_30_1706,2AFC_task,59.96122415446741,
stimuli/rgb_scene000096_render000001.png,stimuli/rgb_scene000096_render000005.png,1,26,236,114,"[0, 1]",right,1,368,20,f,y,y,2019_Apr_30_1706,2AFC_task,59.96122415446741,
stimuli/rgb_scene000004_render000000.png,stimuli/rgb_scene000004_render000002.png,1,27,237,1,"[0, 1]",right,1,368,20,f,y,y,2019_Apr_30_1706,2AFC_task,59.96122415446741,
stimuli/rgb_scene000005_render000004.png,stimuli/rgb_scene000005_render000005.png,1,28,238,39,"[0, 1]",left,0,368,20,f,y,y,2019_Apr_30_1706,2AFC_task,59.96122415446741,
stimuli/rgb_scene000005_render000000.png,stimuli/rgb_scene000005_render000003.png,1,29,239,23,"[1, 0]",left,1,368,20,f,y,y,2019_Apr_30_1706,2AFC_task,59.96122415446741,
stimuli/rgb_scene000146_render000000.png,stimuli/rgb_scene000146_render000004.png,1,30,240,171,"[1, 0]",left,1,368,20,f,y,y,2019_Apr_30_1706,2AFC_task,59.96122415446741,
stimuli/rgb_scene000005_render000000.png,stimuli/rgb_scene000005_render000006.png,1,31,241,26,"[1, 0]",left,1,368,20,f,y,y,2019_Apr_30_1706,2AFC_task,59.96122415446741,
stimuli/rgb_scene000195_render000003.png,stimuli/rgb_scene000195_render000004.png,1,32,242,204,"[0, 1]",left,0,368,20,f,y,y,2019_Apr_30_1706,2AFC_task,59.96122415446741,
stimuli/rgb_scene000146_render000002.png,stimuli/rgb_scene000146_render000006.png,1,33,243,182,"[1, 0]",left,1,368,20,f,y,y,2019_Apr_30_1706,2AFC_task,59.96122415446741,
stimuli/rgb_scene000195_render000000.png,stimuli/rgb_scene000195_render000004.png,1,34,244,192,"[1, 0]",left,1,368,20,f,y,y,2019_Apr_30_1706,2AFC_task,59.96122415446741,
stimuli/rgb_scene000090_render000004.png,stimuli/rgb_scene000090_render000006.png,1,35,245,82,"[1, 0]",right,0,368,20,f,y,y,2019_Apr_30_1706,2AFC_task,59.96122415446741,
stimuli/rgb_scene000113_render000003.png,stimuli/rgb_scene000113_render000004.png,1,36,246,162,"[0, 1]",right,1,368,20,f,y,y,2019_Apr_30_1706,2AFC_task,59.96122415446741,
stimuli/rgb_scene000090_render000001.png,stimuli/rgb_scene000090_render000003.png,1,37,247,70,"[1, 0]",left,1,368,20,f,y,y,2019_Apr_30_1706,2AFC_task,59.96122415446741,
stimuli/rgb_scene000095_render000001.png,stimuli/rgb_scene000095_render000002.png,1,38,248,90,"[1, 0]",left,1,368,20,f,y,y,2019_Apr_30_1706,2AFC_task,59.96122415446741,
stimuli/rgb_scene000113_render000002.png,stimuli/rgb_scene000113_render000005.png,1,39,249,160,"[0, 1]",right,1,368,20,f,y,y,2019_Apr_30_1706,2AFC_task,59.96122415446741,
stimuli/rgb_scene000090_render000000.png,stimuli/rgb_scene000090_render000002.png,1,40,250,64,"[1, 0]",left,1,368,20,f,y,y,2019_Apr_30_1706,2AFC_task,59.96122415446741,
stimuli/rgb_scene000102_render000003.png,stimuli/rgb_scene000102_render000005.png,1,41,251,142,"[0, 1]",right,1,368,20,f,y,y,2019_Apr_30_1706,2AFC_task,59.96122415446741,
stimuli/rgb_scene000102_render000000.png,stimuli/rgb_scene000102_render000006.png,1,42,252,131,"[1, 0]",left,1,368,20,f,y,y,2019_Apr_30_1706,2AFC_task,59.96122415446741,
stimuli/rgb_scene000146_render000002.png,stimuli/rgb_scene000146_render000003.png,1,43,253,179,"[0, 1]",right,1,368,20,f,y,y,2019_Apr_30_1706,2AFC_task,59.96122415446741,
stimuli/rgb_scene000012_render000001.png,stimuli/rgb_scene000012_render000006.png,1,44,254,52,"[1, 0]",left,1,368,20,f,y,y,2019_Apr_30_1706,2AFC_task,59.96122415446741,
stimuli/rgb_scene000095_render000003.png,stimuli/rgb_scene000095_render000005.png,1,45,255,100,"[0, 1]",right,1,368,20,f,y,y,2019_Apr_30_1706,2AFC_task,59.96122415446741,
stimuli/rgb_scene000096_render000005.png,stimuli/rgb_scene000096_render000006.png,1,46,256,125,"[0, 1]",right,1,368,20,f,y,y,2019_Apr_30_1706,2AFC_task,59.96122415446741,
stimuli/rgb_scene000095_render000000.png,stimuli/rgb_scene000095_render000005.png,1,47,257,88,"[1, 0]",left,1,368,20,f,y,y,2019_Apr_30_1706,2AFC_task,59.96122415446741,
stimuli/rgb_scene000102_render000000.png,stimuli/rgb_scene000102_render000001.png,1,48,258,126,"[1, 0]",left,1,368,20,f,y,y,2019_Apr_30_1706,2AFC_task,59.96122415446741,
stimuli/rgb_scene000005_render000000.png,stimuli/rgb_scene000005_render000002.png,1,49,259,22,"[0, 1]",right,1,368,20,f,y,y,2019_Apr_30_1706,2AFC_task,59.96122415446741,
stimuli/rgb_scene000005_render000002.png,stimuli/rgb_scene000005_render000003.png,1,50,260,32,"[0, 1]",left,0,368,20,f,y,y,2019_Apr_30_1706,2AFC_task,59.96122415446741,
stimuli/rgb_scene000012_render000004.png,stimuli/rgb_scene000012_render000006.png,1,51,261,61,"[1, 0]",right,0,368,20,f,y,y,2019_Apr_30_1706,2AFC_task,59.96122415446741,
stimuli/rgb_scene000096_render000001.png,stimuli/rgb_scene000096_render000003.png,1,52,262,112,"[0, 1]",right,1,368,20,f,y,y,2019_Apr_30_1706,2AFC_task,59.96122415446741,
stimuli/rgb_scene000004_render000001.png,stimuli/rgb_scene000004_render000006.png,1,53,263,10,"[1, 0]",left,1,368,20,f,y,y,2019_Apr_30_1706,2AFC_task,59.96122415446741,
stimuli/rgb_scene000090_render000001.png,stimuli/rgb_scene000090_render000005.png,1,54,264,72,"[1, 0]",left,1,368,20,f,y,y,2019_Apr_30_1706,2AFC_task,59.96122415446741,
stimuli/rgb_scene000012_render000002.png,stimuli/rgb_scene000012_render000004.png,1,55,265,54,"[1, 0]",left,1,368,20,f,y,y,2019_Apr_30_1706,2AFC_task,59.96122415446741,
stimuli/rgb_scene000005_render000005.png,stimuli/rgb_scene000005_render000006.png,1,56,266,41,"[0, 1]",left,0,368,20,f,y,y,2019_Apr_30_1706,2AFC_task,59.96122415446741,
stimuli/rgb_scene000095_render000004.png,stimuli/rgb_scene000095_render000005.png,1,57,267,102,"[0, 1]",right,1,368,20,f,y,y,2019_Apr_30_1706,2AFC_task,59.96122415446741,
stimuli/rgb_scene000146_render000000.png,stimuli/rgb_scene000146_render000003.png,1,58,268,170,"[0, 1]",right,1,368,20,f,y,y,2019_Apr_30_1706,2AFC_task,59.96122415446741,
stimuli/rgb_scene000095_render000000.png,stimuli/rgb_scene000095_render000001.png,1,59,269,84,"[0, 1]",right,1,368,20,f,y,y,2019_Apr_30_1706,2AFC_task,59.96122415446741,
stimuli/rgb_scene000090_render000001.png,stimuli/rgb_scene000090_render000004.png,1,60,270,71,"[1, 0]",left,1,368,20,f,y,y,2019_Apr_30_1706,2AFC_task,59.96122415446741,
stimuli/rgb_scene000095_render000000.png,stimuli/rgb_scene000095_render000004.png,1,61,271,87,"[1, 0]",left,1,368,20,f,y,y,2019_Apr_30_1706,2AFC_task,59.96122415446741,
stimuli/rgb_scene000146_render000004.png,stimuli/rgb_scene000146_render000006.png,1,62,272,187,"[1, 0]",left,1,368,20,f,y,y,2019_Apr_30_1706,2AFC_task,59.96122415446741,
stimuli/rgb_scene000113_render000005.png,stimuli/rgb_scene000113_render000006.png,1,63,273,167,"[1, 0]",right,0,368,20,f,y,y,2019_Apr_30_1706,2AFC_task,59.96122415446741,
stimuli/rgb_scene000095_render000002.png,stimuli/rgb_scene000095_render000006.png,1,64,274,98,"[1, 0]",left,1,368,20,f,y,y,2019_Apr_30_1706,2AFC_task,59.96122415446741,
stimuli/rgb_scene000090_render000005.png,stimuli/rgb_scene000090_render000006.png,1,65,275,83,"[1, 0]",right,0,368,20,f,y,y,2019_Apr_30_1706,2AFC_task,59.96122415446741,
stimuli/rgb_scene000113_render000002.png,stimuli/rgb_scene000113_render000006.png,1,66,276,161,"[0, 1]",right,1,368,20,f,y,y,2019_Apr_30_1706,2AFC_task,59.96122415446741,
stimuli/rgb_scene000090_render000001.png,stimuli/rgb_scene000090_render000006.png,1,67,277,73,"[0, 1]",left,0,368,20,f,y,y,2019_Apr_30_1706,2AFC_task,59.96122415446741,
stimuli/rgb_scene000090_render000002.png,stimuli/rgb_scene000090_render000004.png,1,68,278,75,"[1, 0]",left,1,368,20,f,y,y,2019_Apr_30_1706,2AFC_task,59.96122415446741,
stimuli/rgb_scene000195_render000001.png,stimuli/rgb_scene000195_render000002.png,1,69,279,195,"[0, 1]",right,1,368,20,f,y,y,2019_Apr_30_1706,2AFC_task,59.96122415446741,
stimuli/rgb_scene000096_render000002.png,stimuli/rgb_scene000096_render000004.png,1,70,280,117,"[1, 0]",left,1,368,20,f,y,y,2019_Apr_30_1706,2AFC_task,59.96122415446741,
stimuli/rgb_scene000195_render000001.png,stimuli/rgb_scene000195_render000006.png,1,71,281,199,"[1, 0]",left,1,368,20,f,y,y,2019_Apr_30_1706,2AFC_task,59.96122415446741,
stimuli/rgb_scene000195_render000000.png,stimuli/rgb_scene000195_render000006.png,1,72,282,194,"[1, 0]",left,1,368,20,f,y,y,2019_Apr_30_1706,2AFC_task,59.96122415446741,
stimuli/rgb_scene000102_render000000.png,stimuli/rgb_scene000102_render000004.png,1,73,283,129,"[1, 0]",left,1,368,20,f,y,y,2019_Apr_30_1706,2AFC_task,59.96122415446741,
stimuli/rgb_scene000090_render000000.png,stimuli/rgb_scene000090_render000004.png,1,74,284,66,"[1, 0]",left,1,368,20,f,y,y,2019_Apr_30_1706,2AFC_task,59.96122415446741,
stimuli/rgb_scene000012_render000000.png,stimuli/rgb_scene000012_render000003.png,1,75,285,44,"[0, 1]",right,1,368,20,f,y,y,2019_Apr_30_1706,2AFC_task,59.96122415446741,
stimuli/rgb_scene000195_render000002.png,stimuli/rgb_scene000195_render000004.png,1,76,286,201,"[0, 1]",right,1,368,20,f,y,y,2019_Apr_30_1706,2AFC_task,59.96122415446741,
stimuli/rgb_scene000146_render000001.png,stimuli/rgb_scene000146_render000004.png,1,77,287,176,"[0, 1]",right,1,368,20,f,y,y,2019_Apr_30_1706,2AFC_task,59.96122415446741,
stimuli/rgb_scene000004_render000001.png,stimuli/rgb_scene000004_render000004.png,1,78,288,8,"[0, 1]",right,1,368,20,f,y,y,2019_Apr_30_1706,2AFC_task,59.96122415446741,
stimuli/rgb_scene000146_render000001.png,stimuli/rgb_scene000146_render000006.png,1,79,289,178,"[0, 1]",right,1,368,20,f,y,y,2019_Apr_30_1706,2AFC_task,59.96122415446741,
stimuli/rgb_scene000090_render000002.png,stimuli/rgb_scene000090_render000006.png,1,80,290,77,"[0, 1]",right,1,368,20,f,y,y,2019_Apr_30_1706,2AFC_task,59.96122415446741,
stimuli/rgb_scene000102_render000001.png,stimuli/rgb_scene000102_render000006.png,1,81,291,136,"[1, 0]",left,1,368,20,f,y,y,2019_Apr_30_1706,2AFC_task,59.96122415446741,
stimuli/rgb_scene000195_render000003.png,stimuli/rgb_scene000195_render000005.png,1,82,292,205,"[0, 1]",left,0,368,20,f,y,y,2019_Apr_30_1706,2AFC_task,59.96122415446741,
stimuli/rgb_scene000005_render000003.png,stimuli/rgb_scene000005_render000004.png,1,83,293,36,"[1, 0]",right,0,368,20,f,y,y,2019_Apr_30_1706,2AFC_task,59.96122415446741,
stimuli/rgb_scene000096_render000001.png,stimuli/rgb_scene000096_render000002.png,1,84,294,111,"[0, 1]",right,1,368,20,f,y,y,2019_Apr_30_1706,2AFC_task,59.96122415446741,
stimuli/rgb_scene000004_render000001.png,stimuli/rgb_scene000004_render000003.png,1,85,295,7,"[1, 0]",left,1,368,20,f,y,y,2019_Apr_30_1706,2AFC_task,59.96122415446741,
stimuli/rgb_scene000005_render000001.png,stimuli/rgb_scene000005_render000003.png,1,86,296,28,"[0, 1]",left,0,368,20,f,y,y,2019_Apr_30_1706,2AFC_task,59.96122415446741,
stimuli/rgb_scene000102_render000001.png,stimuli/rgb_scene000102_render000005.png,1,87,297,135,"[0, 1]",right,1,368,20,f,y,y,2019_Apr_30_1706,2AFC_task,59.96122415446741,
stimuli/rgb_scene000004_render000005.png,stimuli/rgb_scene000004_render000006.png,1,88,298,20,"[1, 0]",left,1,368,20,f,y,y,2019_Apr_30_1706,2AFC_task,59.96122415446741,
stimuli/rgb_scene000005_render000001.png,stimuli/rgb_scene000005_render000005.png,1,89,299,30,"[1, 0]",right,0,368,20,f,y,y,2019_Apr_30_1706,2AFC_task,59.96122415446741,
stimuli/rgb_scene000095_render000001.png,stimuli/rgb_scene000095_render000004.png,1,90,300,92,"[0, 1]",right,1,368,20,f,y,y,2019_Apr_30_1706,2AFC_task,59.96122415446741,
stimuli/rgb_scene000113_render000001.png,stimuli/rgb_scene000113_render000002.png,1,91,301,153,"[0, 1]",right,1,368,20,f,y,y,2019_Apr_30_1706,2AFC_task,59.96122415446741,
stimuli/rgb_scene000113_render000000.png,stimuli/rgb_scene000113_render000006.png,1,92,302,152,"[0, 1]",right,1,368,20,f,y,y,2019_Apr_30_1706,2AFC_task,59.96122415446741,
stimuli/rgb_scene000012_render000003.png,stimuli/rgb_scene000012_render000004.png,1,93,303,57,"[1, 0]",left,1,368,20,f,y,y,2019_Apr_30_1706,2AFC_task,59.96122415446741,
stimuli/rgb_scene000113_render000004.png,stimuli/rgb_scene000113_render000006.png,1,94,304,166,"[1, 0]",right,0,368,20,f,y,y,2019_Apr_30_1706,2AFC_task,59.96122415446741,
stimuli/rgb_scene000004_render000000.png,stimuli/rgb_scene000004_render000004.png,1,95,305,3,"[0, 1]",right,1,368,20,f,y,y,2019_Apr_30_1706,2AFC_task,59.96122415446741,
stimuli/rgb_scene000012_render000000.png,stimuli/rgb_scene000012_render000004.png,1,96,306,45,"[1, 0]",left,1,368,20,f,y,y,2019_Apr_30_1706,2AFC_task,59.96122415446741,
stimuli/rgb_scene000102_render000004.png,stimuli/rgb_scene000102_render000005.png,1,97,307,144,"[0, 1]",right,1,368,20,f,y,y,2019_Apr_30_1706,2AFC_task,59.96122415446741,
stimuli/rgb_scene000113_render000000.png,stimuli/rgb_scene000113_render000004.png,1,98,308,150,"[0, 1]",right,1,368,20,f,y,y,2019_Apr_30_1706,2AFC_task,59.96122415446741,
stimuli/rgb_scene000095_render000001.png,stimuli/rgb_scene000095_render000003.png,1,99,309,91,"[1, 0]",left,1,368,20,f,y,y,2019_Apr_30_1706,2AFC_task,59.96122415446741,
stimuli/rgb_scene000102_render000002.png,stimuli/rgb_scene000102_render000005.png,1,100,310,139,"[1, 0]",left,1,368,20,f,y,y,2019_Apr_30_1706,2AFC_task,59.96122415446741,
stimuli/rgb_scene000096_render000003.png,stimuli/rgb_scene000096_render000005.png,1,101,311,121,"[0, 1]",right,1,368,20,f,y,y,2019_Apr_30_1706,2AFC_task,59.96122415446741,
stimuli/rgb_scene000012_render000002.png,stimuli/rgb_scene000012_render000005.png,1,102,312,55,"[0, 1]",right,1,368,20,f,y,y,2019_Apr_30_1706,2AFC_task,59.96122415446741,
stimuli/rgb_scene000195_render000003.png,stimuli/rgb_scene000195_render000006.png,1,103,313,206,"[1, 0]",right,0,368,20,f,y,y,2019_Apr_30_1706,2AFC_task,59.96122415446741,
stimuli/rgb_scene000005_render000002.png,stimuli/rgb_scene000005_render000004.png,1,104,314,33,"[0, 1]",left,0,368,20,f,y,y,2019_Apr_30_1706,2AFC_task,59.96122415446741,
stimuli/rgb_scene000146_render000001.png,stimuli/rgb_scene000146_render000005.png,1,105,315,177,"[1, 0]",left,1,368,20,f,y,y,2019_Apr_30_1706,2AFC_task,59.96122415446741,
stimuli/rgb_scene000113_render000003.png,stimuli/rgb_scene000113_render000006.png,1,106,316,164,"[0, 1]",right,1,368,20,f,y,y,2019_Apr_30_1706,2AFC_task,59.96122415446741,
stimuli/rgb_scene000146_render000002.png,stimuli/rgb_scene000146_render000005.png,1,107,317,181,"[1, 0]",left,1,368,20,f,y,y,2019_Apr_30_1706,2AFC_task,59.96122415446741,
stimuli/rgb_scene000095_render000000.png,stimuli/rgb_scene000095_render000003.png,1,108,318,86,"[1, 0]",left,1,368,20,f,y,y,2019_Apr_30_1706,2AFC_task,59.96122415446741,
stimuli/rgb_scene000113_render000003.png,stimuli/rgb_scene000113_render000005.png,1,109,319,163,"[0, 1]",right,1,368,20,f,y,y,2019_Apr_30_1706,2AFC_task,59.96122415446741,
stimuli/rgb_scene000095_render000003.png,stimuli/rgb_scene000095_render000004.png,1,110,320,99,"[1, 0]",left,1,368,20,f,y,y,2019_Apr_30_1706,2AFC_task,59.96122415446741,
stimuli/rgb_scene000146_render000004.png,stimuli/rgb_scene000146_render000005.png,1,111,321,186,"[0, 1]",left,0,368,20,f,y,y,2019_Apr_30_1706,2AFC_task,59.96122415446741,
stimuli/rgb_scene000012_render000001.png,stimuli/rgb_scene000012_render000005.png,1,112,322,51,"[1, 0]",left,1,368,20,f,y,y,2019_Apr_30_1706,2AFC_task,59.96122415446741,
stimuli/rgb_scene000095_render000002.png,stimuli/rgb_scene000095_render000005.png,1,113,323,97,"[1, 0]",left,1,368,20,f,y,y,2019_Apr_30_1706,2AFC_task,59.96122415446741,
stimuli/rgb_scene000102_render000005.png,stimuli/rgb_scene000102_render000006.png,1,114,324,146,"[1, 0]",right,0,368,20,f,y,y,2019_Apr_30_1706,2AFC_task,59.96122415446741,
stimuli/rgb_scene000095_render000002.png,stimuli/rgb_scene000095_render000004.png,1,115,325,96,"[1, 0]",left,1,368,20,f,y,y,2019_Apr_30_1706,2AFC_task,59.96122415446741,
stimuli/rgb_scene000113_render000000.png,stimuli/rgb_scene000113_render000002.png,1,116,326,148,"[0, 1]",right,1,368,20,f,y,y,2019_Apr_30_1706,2AFC_task,59.96122415446741,
stimuli/rgb_scene000102_render000003.png,stimuli/rgb_scene000102_render000006.png,1,117,327,143,"[0, 1]",right,1,368,20,f,y,y,2019_Apr_30_1706,2AFC_task,59.96122415446741,
stimuli/rgb_scene000090_render000002.png,stimuli/rgb_scene000090_render000003.png,1,118,328,74,"[1, 0]",left,1,368,20,f,y,y,2019_Apr_30_1706,2AFC_task,59.96122415446741,
stimuli/rgb_scene000004_render000002.png,stimuli/rgb_scene000004_render000004.png,1,119,329,12,"[0, 1]",right,1,368,20,f,y,y,2019_Apr_30_1706,2AFC_task,59.96122415446741,
stimuli/rgb_scene000012_render000002.png,stimuli/rgb_scene000012_render000006.png,1,120,330,56,"[1, 0]",left,1,368,20,f,y,y,2019_Apr_30_1706,2AFC_task,59.96122415446741,
stimuli/rgb_scene000113_render000001.png,stimuli/rgb_scene000113_render000005.png,1,121,331,156,"[0, 1]",right,1,368,20,f,y,y,2019_Apr_30_1706,2AFC_task,59.96122415446741,
stimuli/rgb_scene000095_render000003.png,stimuli/rgb_scene000095_render000006.png,1,122,332,101,"[1, 0]",left,1,368,20,f,y,y,2019_Apr_30_1706,2AFC_task,59.96122415446741,
stimuli/rgb_scene000012_render000001.png,stimuli/rgb_scene000012_render000002.png,1,123,333,48,"[1, 0]",left,1,368,20,f,y,y,2019_Apr_30_1706,2AFC_task,59.96122415446741,
stimuli/rgb_scene000004_render000000.png,stimuli/rgb_scene000004_render000005.png,1,124,334,4,"[0, 1]",right,1,368,20,f,y,y,2019_Apr_30_1706,2AFC_task,59.96122415446741,
stimuli/rgb_scene000004_render000003.png,stimuli/rgb_scene000004_render000006.png,1,125,335,17,"[0, 1]",right,1,368,20,f,y,y,2019_Apr_30_1706,2AFC_task,59.96122415446741,
stimuli/rgb_scene000004_render000001.png,stimuli/rgb_scene000004_render000002.png,1,126,336,6,"[1, 0]",left,1,368,20,f,y,y,2019_Apr_30_1706,2AFC_task,59.96122415446741,
stimuli/rgb_scene000004_render000000.png,stimuli/rgb_scene000004_render000001.png,1,127,337,0,"[1, 0]",left,1,368,20,f,y,y,2019_Apr_30_1706,2AFC_task,59.96122415446741,
stimuli/rgb_scene000005_render000002.png,stimuli/rgb_scene000005_render000006.png,1,128,338,35,"[0, 1]",left,0,368,20,f,y,y,2019_Apr_30_1706,2AFC_task,59.96122415446741,
stimuli/rgb_scene000096_render000002.png,stimuli/rgb_scene000096_render000005.png,1,129,339,118,"[0, 1]",right,1,368,20,f,y,y,2019_Apr_30_1706,2AFC_task,59.96122415446741,
stimuli/rgb_scene000102_render000003.png,stimuli/rgb_scene000102_render000004.png,1,130,340,141,"[1, 0]",left,1,368,20,f,y,y,2019_Apr_30_1706,2AFC_task,59.96122415446741,
stimuli/rgb_scene000012_render000002.png,stimuli/rgb_scene000012_render000003.png,1,131,341,53,"[1, 0]",left,1,368,20,f,y,y,2019_Apr_30_1706,2AFC_task,59.96122415446741,
stimuli/rgb_scene000012_render000000.png,stimuli/rgb_scene000012_render000006.png,1,132,342,47,"[0, 1]",right,1,368,20,f,y,y,2019_Apr_30_1706,2AFC_task,59.96122415446741,
stimuli/rgb_scene000005_render000000.png,stimuli/rgb_scene000005_render000001.png,1,133,343,21,"[0, 1]",right,1,368,20,f,y,y,2019_Apr_30_1706,2AFC_task,59.96122415446741,
stimuli/rgb_scene000113_render000001.png,stimuli/rgb_scene000113_render000006.png,1,134,344,157,"[0, 1]",right,1,368,20,f,y,y,2019_Apr_30_1706,2AFC_task,59.96122415446741,
stimuli/rgb_scene000113_render000004.png,stimuli/rgb_scene000113_render000005.png,1,135,345,165,"[1, 0]",right,0,368,20,f,y,y,2019_Apr_30_1706,2AFC_task,59.96122415446741,
stimuli/rgb_scene000012_render000004.png,stimuli/rgb_scene000012_render000005.png,1,136,346,60,"[1, 0]",left,1,368,20,f,y,y,2019_Apr_30_1706,2AFC_task,59.96122415446741,
stimuli/rgb_scene000095_render000002.png,stimuli/rgb_scene000095_render000003.png,1,137,347,95,"[0, 1]",right,1,368,20,f,y,y,2019_Apr_30_1706,2AFC_task,59.96122415446741,
stimuli/rgb_scene000113_render000002.png,stimuli/rgb_scene000113_render000003.png,1,138,348,158,"[0, 1]",right,1,368,20,f,y,y,2019_Apr_30_1706,2AFC_task,59.96122415446741,
stimuli/rgb_scene000090_render000004.png,stimuli/rgb_scene000090_render000005.png,1,139,349,81,"[0, 1]",right,1,368,20,f,y,y,2019_Apr_30_1706,2AFC_task,59.96122415446741,
stimuli/rgb_scene000004_render000004.png,stimuli/rgb_scene000004_render000005.png,1,140,350,18,"[1, 0]",left,1,368,20,f,y,y,2019_Apr_30_1706,2AFC_task,59.96122415446741,
stimuli/rgb_scene000096_render000000.png,stimuli/rgb_scene000096_render000001.png,1,141,351,105,"[0, 1]",right,1,368,20,f,y,y,2019_Apr_30_1706,2AFC_task,59.96122415446741,
stimuli/rgb_scene000012_render000000.png,stimuli/rgb_scene000012_render000005.png,1,142,352,46,"[0, 1]",right,1,368,20,f,y,y,2019_Apr_30_1706,2AFC_task,59.96122415446741,
stimuli/rgb_scene000102_render000001.png,stimuli/rgb_scene000102_render000002.png,1,143,353,132,"[1, 0]",left,1,368,20,f,y,y,2019_Apr_30_1706,2AFC_task,59.96122415446741,
stimuli/rgb_scene000096_render000001.png,stimuli/rgb_scene000096_render000006.png,1,144,354,115,"[1, 0]",left,1,368,20,f,y,y,2019_Apr_30_1706,2AFC_task,59.96122415446741,
stimuli/rgb_scene000195_render000002.png,stimuli/rgb_scene000195_render000006.png,1,145,355,203,"[1, 0]",right,0,368,20,f,y,y,2019_Apr_30_1706,2AFC_task,59.96122415446741,
stimuli/rgb_scene000113_render000000.png,stimuli/rgb_scene000113_render000005.png,1,146,356,151,"[0, 1]",right,1,368,20,f,y,y,2019_Apr_30_1706,2AFC_task,59.96122415446741,
stimuli/rgb_scene000012_render000003.png,stimuli/rgb_scene000012_render000006.png,1,147,357,59,"[1, 0]",left,1,368,20,f,y,y,2019_Apr_30_1706,2AFC_task,59.96122415446741,
stimuli/rgb_scene000113_render000000.png,stimuli/rgb_scene000113_render000003.png,1,148,358,149,"[1, 0]",left,1,368,20,f,y,y,2019_Apr_30_1706,2AFC_task,59.96122415446741,
stimuli/rgb_scene000096_render000003.png,stimuli/rgb_scene000096_render000006.png,1,149,359,122,"[0, 1]",right,1,368,20,f,y,y,2019_Apr_30_1706,2AFC_task,59.96122415446741,
stimuli/rgb_scene000146_render000000.png,stimuli/rgb_scene000146_render000001.png,1,150,360,168,"[1, 0]",left,1,368,20,f,y,y,2019_Apr_30_1706,2AFC_task,59.96122415446741,
stimuli/rgb_scene000096_render000000.png,stimuli/rgb_scene000096_render000003.png,1,151,361,107,"[0, 1]",right,1,368,20,f,y,y,2019_Apr_30_1706,2AFC_task,59.96122415446741,
stimuli/rgb_scene000090_render000000.png,stimuli/rgb_scene000090_render000003.png,1,152,362,65,"[1, 0]",left,1,368,20,f,y,y,2019_Apr_30_1706,2AFC_task,59.96122415446741,
stimuli/rgb_scene000004_render000000.png,stimuli/rgb_scene000004_render000006.png,1,153,363,5,"[1, 0]",left,1,368,20,f,y,y,2019_Apr_30_1706,2AFC_task,59.96122415446741,
stimuli/rgb_scene000195_render000000.png,stimuli/rgb_scene000195_render000002.png,1,154,364,190,"[0, 1]",right,1,368,20,f,y,y,2019_Apr_30_1706,2AFC_task,59.96122415446741,
stimuli/rgb_scene000102_render000001.png,stimuli/rgb_scene000102_render000004.png,1,155,365,134,"[1, 0]",left,1,368,20,f,y,y,2019_Apr_30_1706,2AFC_task,59.96122415446741,
stimuli/rgb_scene000095_render000000.png,stimuli/rgb_scene000095_render000002.png,1,156,366,85,"[0, 1]",right,1,368,20,f,y,y,2019_Apr_30_1706,2AFC_task,59.96122415446741,
stimuli/rgb_scene000095_render000001.png,stimuli/rgb_scene000095_render000006.png,1,157,367,94,"[0, 1]",right,1,368,20,f,y,y,2019_Apr_30_1706,2AFC_task,59.96122415446741,
stimuli/rgb_scene000090_render000003.png,stimuli/rgb_scene000090_render000005.png,1,158,368,79,"[1, 0]",left,1,368,20,f,y,y,2019_Apr_30_1706,2AFC_task,59.96122415446741,
stimuli/rgb_scene000096_render000002.png,stimuli/rgb_scene000096_render000006.png,1,159,369,119,"[0, 1]",right,1,368,20,f,y,y,2019_Apr_30_1706,2AFC_task,59.96122415446741,
stimuli/rgb_scene000004_render000000.png,stimuli/rgb_scene000004_render000003.png,1,160,370,2,"[1, 0]",left,1,368,20,f,y,y,2019_Apr_30_1706,2AFC_task,59.96122415446741,
stimuli/rgb_scene000102_render000002.png,stimuli/rgb_scene000102_render000006.png,1,161,371,140,"[1, 0]",left,1,368,20,f,y,y,2019_Apr_30_1706,2AFC_task,59.96122415446741,
stimuli/rgb_scene000146_render000000.png,stimuli/rgb_scene000146_render000005.png,1,162,372,172,"[0, 1]",right,1,368,20,f,y,y,2019_Apr_30_1706,2AFC_task,59.96122415446741,
stimuli/rgb_scene000005_render000000.png,stimuli/rgb_scene000005_render000004.png,1,163,373,24,"[0, 1]",right,1,368,20,f,y,y,2019_Apr_30_1706,2AFC_task,59.96122415446741,
stimuli/rgb_scene000102_render000002.png,stimuli/rgb_scene000102_render000003.png,1,164,374,137,"[0, 1]",right,1,368,20,f,y,y,2019_Apr_30_1706,2AFC_task,59.96122415446741,
stimuli/rgb_scene000005_render000001.png,stimuli/rgb_scene000005_render000004.png,1,165,375,29,"[0, 1]",right,1,368,20,f,y,y,2019_Apr_30_1706,2AFC_task,59.96122415446741,
stimuli/rgb_scene000095_render000001.png,stimuli/rgb_scene000095_render000005.png,1,166,376,93,"[0, 1]",right,1,368,20,f,y,y,2019_Apr_30_1706,2AFC_task,59.96122415446741,
stimuli/rgb_scene000090_render000003.png,stimuli/rgb_scene000090_render000004.png,1,167,377,78,"[1, 0]",left,1,368,20,f,y,y,2019_Apr_30_1706,2AFC_task,59.96122415446741,
stimuli/rgb_scene000005_render000004.png,stimuli/rgb_scene000005_render000006.png,1,168,378,40,"[1, 0]",right,0,368,20,f,y,y,2019_Apr_30_1706,2AFC_task,59.96122415446741,
stimuli/rgb_scene000102_render000000.png,stimuli/rgb_scene000102_render000003.png,1,169,379,128,"[0, 1]",right,1,368,20,f,y,y,2019_Apr_30_1706,2AFC_task,59.96122415446741,
stimuli/rgb_scene000146_render000003.png,stimuli/rgb_scene000146_render000006.png,1,170,380,185,"[0, 1]",right,1,368,20,f,y,y,2019_Apr_30_1706,2AFC_task,59.96122415446741,
stimuli/rgb_scene000146_render000003.png,stimuli/rgb_scene000146_render000005.png,1,171,381,184,"[1, 0]",left,1,368,20,f,y,y,2019_Apr_30_1706,2AFC_task,59.96122415446741,
stimuli/rgb_scene000090_render000003.png,stimuli/rgb_scene000090_render000006.png,1,172,382,80,"[1, 0]",right,0,368,20,f,y,y,2019_Apr_30_1706,2AFC_task,59.96122415446741,
stimuli/rgb_scene000005_render000000.png,stimuli/rgb_scene000005_render000005.png,1,173,383,25,"[0, 1]",right,1,368,20,f,y,y,2019_Apr_30_1706,2AFC_task,59.96122415446741,
stimuli/rgb_scene000012_render000001.png,stimuli/rgb_scene000012_render000003.png,1,174,384,49,"[1, 0]",left,1,368,20,f,y,y,2019_Apr_30_1706,2AFC_task,59.96122415446741,
stimuli/rgb_scene000146_render000000.png,stimuli/rgb_scene000146_render000002.png,1,175,385,169,"[0, 1]",right,1,368,20,f,y,y,2019_Apr_30_1706,2AFC_task,59.96122415446741,
stimuli/rgb_scene000095_render000004.png,stimuli/rgb_scene000095_render000006.png,1,176,386,103,"[0, 1]",right,1,368,20,f,y,y,2019_Apr_30_1706,2AFC_task,59.96122415446741,
stimuli/rgb_scene000004_render000003.png,stimuli/rgb_scene000004_render000004.png,1,177,387,15,"[1, 0]",left,1,368,20,f,y,y,2019_Apr_30_1706,2AFC_task,59.96122415446741,
stimuli/rgb_scene000146_render000002.png,stimuli/rgb_scene000146_render000004.png,1,178,388,180,"[0, 1]",right,1,368,20,f,y,y,2019_Apr_30_1706,2AFC_task,59.96122415446741,
stimuli/rgb_scene000004_render000002.png,stimuli/rgb_scene000004_render000006.png,1,179,389,14,"[1, 0]",left,1,368,20,f,y,y,2019_Apr_30_1706,2AFC_task,59.96122415446741,
stimuli/rgb_scene000095_render000000.png,stimuli/rgb_scene000095_render000006.png,1,180,390,89,"[1, 0]",left,1,368,20,f,y,y,2019_Apr_30_1706,2AFC_task,59.96122415446741,
stimuli/rgb_scene000195_render000002.png,stimuli/rgb_scene000195_render000005.png,1,181,391,202,"[1, 0]",right,0,368,20,f,y,y,2019_Apr_30_1706,2AFC_task,59.96122415446741,
stimuli/rgb_scene000004_render000003.png,stimuli/rgb_scene000004_render000005.png,1,182,392,16,"[0, 1]",right,1,368,20,f,y,y,2019_Apr_30_1706,2AFC_task,59.96122415446741,
stimuli/rgb_scene000146_render000001.png,stimuli/rgb_scene000146_render000003.png,1,183,393,175,"[1, 0]",left,1,368,20,f,y,y,2019_Apr_30_1706,2AFC_task,59.96122415446741,
stimuli/rgb_scene000195_render000000.png,stimuli/rgb_scene000195_render000005.png,1,184,394,193,"[1, 0]",left,1,368,20,f,y,y,2019_Apr_30_1706,2AFC_task,59.96122415446741,
stimuli/rgb_scene000004_render000001.png,stimuli/rgb_scene000004_render000005.png,1,185,395,9,"[1, 0]",left,1,368,20,f,y,y,2019_Apr_30_1706,2AFC_task,59.96122415446741,
stimuli/rgb_scene000012_render000003.png,stimuli/rgb_scene000012_render000005.png,1,186,396,58,"[1, 0]",left,1,368,20,f,y,y,2019_Apr_30_1706,2AFC_task,59.96122415446741,
stimuli/rgb_scene000090_render000000.png,stimuli/rgb_scene000090_render000001.png,1,187,397,63,"[1, 0]",left,1,368,20,f,y,y,2019_Apr_30_1706,2AFC_task,59.96122415446741,
stimuli/rgb_scene000146_render000005.png,stimuli/rgb_scene000146_render000006.png,1,188,398,188,"[0, 1]",right,1,368,20,f,y,y,2019_Apr_30_1706,2AFC_task,59.96122415446741,
stimuli/rgb_scene000012_render000000.png,stimuli/rgb_scene000012_render000002.png,1,189,399,43,"[0, 1]",right,1,368,20,f,y,y,2019_Apr_30_1706,2AFC_task,59.96122415446741,
stimuli/rgb_scene000005_render000003.png,stimuli/rgb_scene000005_render000006.png,1,190,400,38,"[0, 1]",left,0,368,20,f,y,y,2019_Apr_30_1706,2AFC_task,59.96122415446741,
stimuli/rgb_scene000195_render000001.png,stimuli/rgb_scene000195_render000005.png,1,191,401,198,"[0, 1]",right,1,368,20,f,y,y,2019_Apr_30_1706,2AFC_task,59.96122415446741,
stimuli/rgb_scene000005_render000003.png,stimuli/rgb_scene000005_render000005.png,1,192,402,37,"[0, 1]",left,0,368,20,f,y,y,2019_Apr_30_1706,2AFC_task,59.96122415446741,
stimuli/rgb_scene000096_render000003.png,stimuli/rgb_scene000096_render000004.png,1,193,403,120,"[1, 0]",left,1,368,20,f,y,y,2019_Apr_30_1706,2AFC_task,59.96122415446741,
stimuli/rgb_scene000096_render000000.png,stimuli/rgb_scene000096_render000005.png,1,194,404,109,"[0, 1]",right,1,368,20,f,y,y,2019_Apr_30_1706,2AFC_task,59.96122415446741,
stimuli/rgb_scene000195_render000000.png,stimuli/rgb_scene000195_render000001.png,1,195,405,189,"[1, 0]",left,1,368,20,f,y,y,2019_Apr_30_1706,2AFC_task,59.96122415446741,
stimuli/rgb_scene000195_render000001.png,stimuli/rgb_scene000195_render000003.png,1,196,406,196,"[1, 0]",left,1,368,20,f,y,y,2019_Apr_30_1706,2AFC_task,59.96122415446741,
stimuli/rgb_scene000096_render000000.png,stimuli/rgb_scene000096_render000004.png,1,197,407,108,"[0, 1]",right,1,368,20,f,y,y,2019_Apr_30_1706,2AFC_task,59.96122415446741,
stimuli/rgb_scene000004_render000002.png,stimuli/rgb_scene000004_render000003.png,1,198,408,11,"[0, 1]",right,1,368,20,f,y,y,2019_Apr_30_1706,2AFC_task,59.96122415446741,
stimuli/rgb_scene000113_render000002.png,stimuli/rgb_scene000113_render000004.png,1,199,409,159,"[1, 0]",left,1,368,20,f,y,y,2019_Apr_30_1706,2AFC_task,59.96122415446741,
stimuli/rgb_scene000096_render000000.png,stimuli/rgb_scene000096_render000006.png,1,200,410,110,"[0, 1]",right,1,368,20,f,y,y,2019_Apr_30_1706,2AFC_task,59.96122415446741,
stimuli/rgb_scene000113_render000001.png,stimuli/rgb_scene000113_render000003.png,1,201,411,154,"[0, 1]",right,1,368,20,f,y,y,2019_Apr_30_1706,2AFC_task,59.96122415446741,
stimuli/rgb_scene000096_render000004.png,stimuli/rgb_scene000096_render000005.png,1,202,412,123,"[1, 0]",left,1,368,20,f,y,y,2019_Apr_30_1706,2AFC_task,59.96122415446741,
stimuli/rgb_scene000005_render000001.png,stimuli/rgb_scene000005_render000006.png,1,203,413,31,"[1, 0]",right,0,368,20,f,y,y,2019_Apr_30_1706,2AFC_task,59.96122415446741,
stimuli/rgb_scene000195_render000004.png,stimuli/rgb_scene000195_render000005.png,1,204,414,207,"[1, 0]",left,1,368,20,f,y,y,2019_Apr_30_1706,2AFC_task,59.96122415446741,
stimuli/rgb_scene000146_render000001.png,stimuli/rgb_scene000146_render000002.png,1,205,415,174,"[0, 1]",right,1,368,20,f,y,y,2019_Apr_30_1706,2AFC_task,59.96122415446741,
stimuli/rgb_scene000195_render000002.png,stimuli/rgb_scene000195_render000003.png,1,206,416,200,"[0, 1]",right,1,368,20,f,y,y,2019_Apr_30_1706,2AFC_task,59.96122415446741,
stimuli/rgb_scene000113_render000001.png,stimuli/rgb_scene000113_render000004.png,1,207,417,155,"[0, 1]",right,1,368,20,f,y,y,2019_Apr_30_1706,2AFC_task,59.96122415446741,
stimuli/rgb_scene000195_render000004.png,stimuli/rgb_scene000195_render000006.png,1,208,418,208,"[1, 0]",right,0,368,20,f,y,y,2019_Apr_30_1706,2AFC_task,59.96122415446741,
stimuli/rgb_scene000195_render000000.png,stimuli/rgb_scene000195_render000003.png,1,209,419,191,"[1, 0]",left,1,368,20,f,y,y,2019_Apr_30_1706,2AFC_task,59.96122415446741,
