stimOne,stimTwo,trials_1.thisRepN,trials_1.thisTrialN,trials_1.thisN,trials_1.thisIndex,presentation_positions,resp_key,corresponding_image,participant ID (two digits, e.g. 01),age,gender (m/f/-),normal or corrected-to-normal vision (y/n),normal colour vision (y/n),date,expName,frameRate,
stimuli/rgb_scene000113_render000002.png,stimuli/rgb_scene000113_render000004.png,0,0,0,159,"[1, 0]",left,1,524,20,m,y,y,2019_Apr_29_1357,2AFC_task,59.93809952679321,
stimuli/rgb_scene000005_render000003.png,stimuli/rgb_scene000005_render000006.png,0,1,1,38,"[0, 1]",left,0,524,20,m,y,y,2019_Apr_29_1357,2AFC_task,59.93809952679321,
stimuli/rgb_scene000113_render000001.png,stimuli/rgb_scene000113_render000003.png,0,2,2,154,"[1, 0]",left,1,524,20,m,y,y,2019_Apr_29_1357,2AFC_task,59.93809952679321,
stimuli/rgb_scene000113_render000000.png,stimuli/rgb_scene000113_render000002.png,0,3,3,148,"[0, 1]",right,1,524,20,m,y,y,2019_Apr_29_1357,2AFC_task,59.93809952679321,
stimuli/rgb_scene000005_render000002.png,stimuli/rgb_scene000005_render000005.png,0,4,4,34,"[1, 0]",right,0,524,20,m,y,y,2019_Apr_29_1357,2AFC_task,59.93809952679321,
stimuli/rgb_scene000113_render000003.png,stimuli/rgb_scene000113_render000004.png,0,5,5,162,"[0, 1]",right,1,524,20,m,y,y,2019_Apr_29_1357,2AFC_task,59.93809952679321,
stimuli/rgb_scene000012_render000001.png,stimuli/rgb_scene000012_render000003.png,0,6,6,49,"[0, 1]",right,1,524,20,m,y,y,2019_Apr_29_1357,2AFC_task,59.93809952679321,
stimuli/rgb_scene000095_render000001.png,stimuli/rgb_scene000095_render000006.png,0,7,7,94,"[1, 0]",left,1,524,20,m,y,y,2019_Apr_29_1357,2AFC_task,59.93809952679321,
stimuli/rgb_scene000012_render000000.png,stimuli/rgb_scene000012_render000004.png,0,8,8,45,"[0, 1]",right,1,524,20,m,y,y,2019_Apr_29_1357,2AFC_task,59.93809952679321,
stimuli/rgb_scene000004_render000002.png,stimuli/rgb_scene000004_render000003.png,0,9,9,11,"[1, 0]",left,1,524,20,m,y,y,2019_Apr_29_1357,2AFC_task,59.93809952679321,
stimuli/rgb_scene000012_render000003.png,stimuli/rgb_scene000012_render000005.png,0,10,10,58,"[0, 1]",right,1,524,20,m,y,y,2019_Apr_29_1357,2AFC_task,59.93809952679321,
stimuli/rgb_scene000195_render000004.png,stimuli/rgb_scene000195_render000006.png,0,11,11,208,"[0, 1]",left,0,524,20,m,y,y,2019_Apr_29_1357,2AFC_task,59.93809952679321,
stimuli/rgb_scene000012_render000000.png,stimuli/rgb_scene000012_render000005.png,0,12,12,46,"[0, 1]",right,1,524,20,m,y,y,2019_Apr_29_1357,2AFC_task,59.93809952679321,
stimuli/rgb_scene000095_render000000.png,stimuli/rgb_scene000095_render000002.png,0,13,13,85,"[1, 0]",left,1,524,20,m,y,y,2019_Apr_29_1357,2AFC_task,59.93809952679321,
stimuli/rgb_scene000113_render000002.png,stimuli/rgb_scene000113_render000005.png,0,14,14,160,"[1, 0]",left,1,524,20,m,y,y,2019_Apr_29_1357,2AFC_task,59.93809952679321,
stimuli/rgb_scene000004_render000001.png,stimuli/rgb_scene000004_render000004.png,0,15,15,8,"[0, 1]",right,1,524,20,m,y,y,2019_Apr_29_1357,2AFC_task,59.93809952679321,
stimuli/rgb_scene000090_render000000.png,stimuli/rgb_scene000090_render000002.png,0,16,16,64,"[0, 1]",right,1,524,20,m,y,y,2019_Apr_29_1357,2AFC_task,59.93809952679321,
stimuli/rgb_scene000005_render000000.png,stimuli/rgb_scene000005_render000003.png,0,17,17,23,"[0, 1]",right,1,524,20,m,y,y,2019_Apr_29_1357,2AFC_task,59.93809952679321,
stimuli/rgb_scene000005_render000003.png,stimuli/rgb_scene000005_render000005.png,0,18,18,37,"[0, 1]",left,0,524,20,m,y,y,2019_Apr_29_1357,2AFC_task,59.93809952679321,
stimuli/rgb_scene000146_render000001.png,stimuli/rgb_scene000146_render000006.png,0,19,19,178,"[0, 1]",right,1,524,20,m,y,y,2019_Apr_29_1357,2AFC_task,59.93809952679321,
stimuli/rgb_scene000195_render000002.png,stimuli/rgb_scene000195_render000005.png,0,20,20,202,"[0, 1]",right,1,524,20,m,y,y,2019_Apr_29_1357,2AFC_task,59.93809952679321,
stimuli/rgb_scene000096_render000001.png,stimuli/rgb_scene000096_render000003.png,0,21,21,112,"[0, 1]",right,1,524,20,m,y,y,2019_Apr_29_1357,2AFC_task,59.93809952679321,
stimuli/rgb_scene000146_render000000.png,stimuli/rgb_scene000146_render000003.png,0,22,22,170,"[0, 1]",right,1,524,20,m,y,y,2019_Apr_29_1357,2AFC_task,59.93809952679321,
stimuli/rgb_scene000004_render000000.png,stimuli/rgb_scene000004_render000005.png,0,23,23,4,"[1, 0]",left,1,524,20,m,y,y,2019_Apr_29_1357,2AFC_task,59.93809952679321,
stimuli/rgb_scene000195_render000002.png,stimuli/rgb_scene000195_render000003.png,0,24,24,200,"[1, 0]",left,1,524,20,m,y,y,2019_Apr_29_1357,2AFC_task,59.93809952679321,
stimuli/rgb_scene000195_render000000.png,stimuli/rgb_scene000195_render000002.png,0,25,25,190,"[1, 0]",left,1,524,20,m,y,y,2019_Apr_29_1357,2AFC_task,59.93809952679321,
stimuli/rgb_scene000113_render000000.png,stimuli/rgb_scene000113_render000003.png,0,26,26,149,"[1, 0]",left,1,524,20,m,y,y,2019_Apr_29_1357,2AFC_task,59.93809952679321,
stimuli/rgb_scene000146_render000005.png,stimuli/rgb_scene000146_render000006.png,0,27,27,188,"[0, 1]",right,1,524,20,m,y,y,2019_Apr_29_1357,2AFC_task,59.93809952679321,
stimuli/rgb_scene000096_render000003.png,stimuli/rgb_scene000096_render000005.png,0,28,28,121,"[1, 0]",left,1,524,20,m,y,y,2019_Apr_29_1357,2AFC_task,59.93809952679321,
stimuli/rgb_scene000005_render000003.png,stimuli/rgb_scene000005_render000004.png,0,29,29,36,"[0, 1]",right,1,524,20,m,y,y,2019_Apr_29_1357,2AFC_task,59.93809952679321,
stimuli/rgb_scene000012_render000004.png,stimuli/rgb_scene000012_render000006.png,0,30,30,61,"[1, 0]",left,1,524,20,m,y,y,2019_Apr_29_1357,2AFC_task,59.93809952679321,
stimuli/rgb_scene000090_render000003.png,stimuli/rgb_scene000090_render000005.png,0,31,31,79,"[1, 0]",left,1,524,20,m,y,y,2019_Apr_29_1357,2AFC_task,59.93809952679321,
stimuli/rgb_scene000096_render000001.png,stimuli/rgb_scene000096_render000006.png,0,32,32,115,"[1, 0]",left,1,524,20,m,y,y,2019_Apr_29_1357,2AFC_task,59.93809952679321,
stimuli/rgb_scene000146_render000002.png,stimuli/rgb_scene000146_render000004.png,0,33,33,180,"[0, 1]",right,1,524,20,m,y,y,2019_Apr_29_1357,2AFC_task,59.93809952679321,
stimuli/rgb_scene000146_render000002.png,stimuli/rgb_scene000146_render000003.png,0,34,34,179,"[0, 1]",right,1,524,20,m,y,y,2019_Apr_29_1357,2AFC_task,59.93809952679321,
stimuli/rgb_scene000195_render000000.png,stimuli/rgb_scene000195_render000005.png,0,35,35,193,"[1, 0]",left,1,524,20,m,y,y,2019_Apr_29_1357,2AFC_task,59.93809952679321,
stimuli/rgb_scene000096_render000000.png,stimuli/rgb_scene000096_render000003.png,0,36,36,107,"[0, 1]",right,1,524,20,m,y,y,2019_Apr_29_1357,2AFC_task,59.93809952679321,
stimuli/rgb_scene000012_render000002.png,stimuli/rgb_scene000012_render000003.png,0,37,37,53,"[0, 1]",right,1,524,20,m,y,y,2019_Apr_29_1357,2AFC_task,59.93809952679321,
stimuli/rgb_scene000004_render000000.png,stimuli/rgb_scene000004_render000003.png,0,38,38,2,"[1, 0]",left,1,524,20,m,y,y,2019_Apr_29_1357,2AFC_task,59.93809952679321,
stimuli/rgb_scene000096_render000004.png,stimuli/rgb_scene000096_render000005.png,0,39,39,123,"[1, 0]",left,1,524,20,m,y,y,2019_Apr_29_1357,2AFC_task,59.93809952679321,
stimuli/rgb_scene000005_render000002.png,stimuli/rgb_scene000005_render000004.png,0,40,40,33,"[1, 0]",left,1,524,20,m,y,y,2019_Apr_29_1357,2AFC_task,59.93809952679321,
stimuli/rgb_scene000090_render000000.png,stimuli/rgb_scene000090_render000003.png,0,41,41,65,"[1, 0]",left,1,524,20,m,y,y,2019_Apr_29_1357,2AFC_task,59.93809952679321,
stimuli/rgb_scene000004_render000003.png,stimuli/rgb_scene000004_render000004.png,0,42,42,15,"[1, 0]",left,1,524,20,m,y,y,2019_Apr_29_1357,2AFC_task,59.93809952679321,
stimuli/rgb_scene000004_render000001.png,stimuli/rgb_scene000004_render000002.png,0,43,43,6,"[1, 0]",left,1,524,20,m,y,y,2019_Apr_29_1357,2AFC_task,59.93809952679321,
stimuli/rgb_scene000113_render000002.png,stimuli/rgb_scene000113_render000006.png,0,44,44,161,"[1, 0]",left,1,524,20,m,y,y,2019_Apr_29_1357,2AFC_task,59.93809952679321,
stimuli/rgb_scene000005_render000000.png,stimuli/rgb_scene000005_render000001.png,0,45,45,21,"[0, 1]",right,1,524,20,m,y,y,2019_Apr_29_1357,2AFC_task,59.93809952679321,
stimuli/rgb_scene000090_render000003.png,stimuli/rgb_scene000090_render000006.png,0,46,46,80,"[1, 0]",right,0,524,20,m,y,y,2019_Apr_29_1357,2AFC_task,59.93809952679321,
stimuli/rgb_scene000095_render000003.png,stimuli/rgb_scene000095_render000006.png,0,47,47,101,"[1, 0]",left,1,524,20,m,y,y,2019_Apr_29_1357,2AFC_task,59.93809952679321,
stimuli/rgb_scene000005_render000002.png,stimuli/rgb_scene000005_render000006.png,0,48,48,35,"[0, 1]",left,0,524,20,m,y,y,2019_Apr_29_1357,2AFC_task,59.93809952679321,
stimuli/rgb_scene000146_render000003.png,stimuli/rgb_scene000146_render000004.png,0,49,49,183,"[0, 1]",right,1,524,20,m,y,y,2019_Apr_29_1357,2AFC_task,59.93809952679321,
stimuli/rgb_scene000146_render000000.png,stimuli/rgb_scene000146_render000002.png,0,50,50,169,"[1, 0]",left,1,524,20,m,y,y,2019_Apr_29_1357,2AFC_task,59.93809952679321,
stimuli/rgb_scene000113_render000005.png,stimuli/rgb_scene000113_render000006.png,0,51,51,167,"[1, 0]",left,1,524,20,m,y,y,2019_Apr_29_1357,2AFC_task,59.93809952679321,
stimuli/rgb_scene000113_render000003.png,stimuli/rgb_scene000113_render000006.png,0,52,52,164,"[1, 0]",left,1,524,20,m,y,y,2019_Apr_29_1357,2AFC_task,59.93809952679321,
stimuli/rgb_scene000146_render000002.png,stimuli/rgb_scene000146_render000006.png,0,53,53,182,"[1, 0]",left,1,524,20,m,y,y,2019_Apr_29_1357,2AFC_task,59.93809952679321,
stimuli/rgb_scene000102_render000001.png,stimuli/rgb_scene000102_render000006.png,0,54,54,136,"[1, 0]",left,1,524,20,m,y,y,2019_Apr_29_1357,2AFC_task,59.93809952679321,
stimuli/rgb_scene000095_render000002.png,stimuli/rgb_scene000095_render000003.png,0,55,55,95,"[1, 0]",left,1,524,20,m,y,y,2019_Apr_29_1357,2AFC_task,59.93809952679321,
stimuli/rgb_scene000096_render000001.png,stimuli/rgb_scene000096_render000002.png,0,56,56,111,"[0, 1]",right,1,524,20,m,y,y,2019_Apr_29_1357,2AFC_task,59.93809952679321,
stimuli/rgb_scene000005_render000005.png,stimuli/rgb_scene000005_render000006.png,0,57,57,41,"[1, 0]",right,0,524,20,m,y,y,2019_Apr_29_1357,2AFC_task,59.93809952679321,
stimuli/rgb_scene000146_render000004.png,stimuli/rgb_scene000146_render000006.png,0,58,58,187,"[0, 1]",right,1,524,20,m,y,y,2019_Apr_29_1357,2AFC_task,59.93809952679321,
stimuli/rgb_scene000195_render000001.png,stimuli/rgb_scene000195_render000006.png,0,59,59,199,"[0, 1]",right,1,524,20,m,y,y,2019_Apr_29_1357,2AFC_task,59.93809952679321,
stimuli/rgb_scene000102_render000002.png,stimuli/rgb_scene000102_render000005.png,0,60,60,139,"[1, 0]",left,1,524,20,m,y,y,2019_Apr_29_1357,2AFC_task,59.93809952679321,
stimuli/rgb_scene000012_render000000.png,stimuli/rgb_scene000012_render000002.png,0,61,61,43,"[1, 0]",left,1,524,20,m,y,y,2019_Apr_29_1357,2AFC_task,59.93809952679321,
stimuli/rgb_scene000095_render000002.png,stimuli/rgb_scene000095_render000006.png,0,62,62,98,"[1, 0]",left,1,524,20,m,y,y,2019_Apr_29_1357,2AFC_task,59.93809952679321,
stimuli/rgb_scene000113_render000001.png,stimuli/rgb_scene000113_render000004.png,0,63,63,155,"[1, 0]",left,1,524,20,m,y,y,2019_Apr_29_1357,2AFC_task,59.93809952679321,
stimuli/rgb_scene000090_render000001.png,stimuli/rgb_scene000090_render000006.png,0,64,64,73,"[0, 1]",right,1,524,20,m,y,y,2019_Apr_29_1357,2AFC_task,59.93809952679321,
stimuli/rgb_scene000012_render000003.png,stimuli/rgb_scene000012_render000006.png,0,65,65,59,"[0, 1]",right,1,524,20,m,y,y,2019_Apr_29_1357,2AFC_task,59.93809952679321,
stimuli/rgb_scene000113_render000000.png,stimuli/rgb_scene000113_render000001.png,0,66,66,147,"[1, 0]",left,1,524,20,m,y,y,2019_Apr_29_1357,2AFC_task,59.93809952679321,
stimuli/rgb_scene000095_render000000.png,stimuli/rgb_scene000095_render000001.png,0,67,67,84,"[0, 1]",right,1,524,20,m,y,y,2019_Apr_29_1357,2AFC_task,59.93809952679321,
stimuli/rgb_scene000004_render000005.png,stimuli/rgb_scene000004_render000006.png,0,68,68,20,"[1, 0]",left,1,524,20,m,y,y,2019_Apr_29_1357,2AFC_task,59.93809952679321,
stimuli/rgb_scene000004_render000002.png,stimuli/rgb_scene000004_render000004.png,0,69,69,12,"[0, 1]",right,1,524,20,m,y,y,2019_Apr_29_1357,2AFC_task,59.93809952679321,
stimuli/rgb_scene000004_render000000.png,stimuli/rgb_scene000004_render000004.png,0,70,70,3,"[0, 1]",right,1,524,20,m,y,y,2019_Apr_29_1357,2AFC_task,59.93809952679321,
stimuli/rgb_scene000146_render000000.png,stimuli/rgb_scene000146_render000006.png,0,71,71,173,"[0, 1]",right,1,524,20,m,y,y,2019_Apr_29_1357,2AFC_task,59.93809952679321,
stimuli/rgb_scene000012_render000001.png,stimuli/rgb_scene000012_render000005.png,0,72,72,51,"[1, 0]",left,1,524,20,m,y,y,2019_Apr_29_1357,2AFC_task,59.93809952679321,
stimuli/rgb_scene000096_render000000.png,stimuli/rgb_scene000096_render000006.png,0,73,73,110,"[0, 1]",right,1,524,20,m,y,y,2019_Apr_29_1357,2AFC_task,59.93809952679321,
stimuli/rgb_scene000005_render000000.png,stimuli/rgb_scene000005_render000006.png,0,74,74,26,"[0, 1]",right,1,524,20,m,y,y,2019_Apr_29_1357,2AFC_task,59.93809952679321,
stimuli/rgb_scene000095_render000001.png,stimuli/rgb_scene000095_render000002.png,0,75,75,90,"[0, 1]",right,1,524,20,m,y,y,2019_Apr_29_1357,2AFC_task,59.93809952679321,
stimuli/rgb_scene000146_render000000.png,stimuli/rgb_scene000146_render000004.png,0,76,76,171,"[1, 0]",left,1,524,20,m,y,y,2019_Apr_29_1357,2AFC_task,59.93809952679321,
stimuli/rgb_scene000012_render000003.png,stimuli/rgb_scene000012_render000004.png,0,77,77,57,"[0, 1]",right,1,524,20,m,y,y,2019_Apr_29_1357,2AFC_task,59.93809952679321,
stimuli/rgb_scene000012_render000002.png,stimuli/rgb_scene000012_render000005.png,0,78,78,55,"[0, 1]",right,1,524,20,m,y,y,2019_Apr_29_1357,2AFC_task,59.93809952679321,
stimuli/rgb_scene000005_render000004.png,stimuli/rgb_scene000005_render000006.png,0,79,79,40,"[0, 1]",left,0,524,20,m,y,y,2019_Apr_29_1357,2AFC_task,59.93809952679321,
stimuli/rgb_scene000090_render000005.png,stimuli/rgb_scene000090_render000006.png,0,80,80,83,"[1, 0]",left,1,524,20,m,y,y,2019_Apr_29_1357,2AFC_task,59.93809952679321,
stimuli/rgb_scene000004_render000003.png,stimuli/rgb_scene000004_render000006.png,0,81,81,17,"[0, 1]",right,1,524,20,m,y,y,2019_Apr_29_1357,2AFC_task,59.93809952679321,
stimuli/rgb_scene000113_render000004.png,stimuli/rgb_scene000113_render000005.png,0,82,82,165,"[1, 0]",left,1,524,20,m,y,y,2019_Apr_29_1357,2AFC_task,59.93809952679321,
stimuli/rgb_scene000195_render000000.png,stimuli/rgb_scene000195_render000001.png,0,83,83,189,"[0, 1]",right,1,524,20,m,y,y,2019_Apr_29_1357,2AFC_task,59.93809952679321,
stimuli/rgb_scene000004_render000001.png,stimuli/rgb_scene000004_render000005.png,0,84,84,9,"[1, 0]",left,1,524,20,m,y,y,2019_Apr_29_1357,2AFC_task,59.93809952679321,
stimuli/rgb_scene000195_render000003.png,stimuli/rgb_scene000195_render000005.png,0,85,85,205,"[0, 1]",right,1,524,20,m,y,y,2019_Apr_29_1357,2AFC_task,59.93809952679321,
stimuli/rgb_scene000102_render000000.png,stimuli/rgb_scene000102_render000003.png,0,86,86,128,"[0, 1]",right,1,524,20,m,y,y,2019_Apr_29_1357,2AFC_task,59.93809952679321,
stimuli/rgb_scene000146_render000001.png,stimuli/rgb_scene000146_render000004.png,0,87,87,176,"[0, 1]",right,1,524,20,m,y,y,2019_Apr_29_1357,2AFC_task,59.93809952679321,
stimuli/rgb_scene000090_render000001.png,stimuli/rgb_scene000090_render000002.png,0,88,88,69,"[1, 0]",left,1,524,20,m,y,y,2019_Apr_29_1357,2AFC_task,59.93809952679321,
stimuli/rgb_scene000096_render000001.png,stimuli/rgb_scene000096_render000004.png,0,89,89,113,"[1, 0]",left,1,524,20,m,y,y,2019_Apr_29_1357,2AFC_task,59.93809952679321,
stimuli/rgb_scene000102_render000001.png,stimuli/rgb_scene000102_render000003.png,0,90,90,133,"[0, 1]",right,1,524,20,m,y,y,2019_Apr_29_1357,2AFC_task,59.93809952679321,
stimuli/rgb_scene000102_render000000.png,stimuli/rgb_scene000102_render000004.png,0,91,91,129,"[1, 0]",left,1,524,20,m,y,y,2019_Apr_29_1357,2AFC_task,59.93809952679321,
stimuli/rgb_scene000004_render000004.png,stimuli/rgb_scene000004_render000005.png,0,92,92,18,"[1, 0]",left,1,524,20,m,y,y,2019_Apr_29_1357,2AFC_task,59.93809952679321,
stimuli/rgb_scene000090_render000004.png,stimuli/rgb_scene000090_render000005.png,0,93,93,81,"[1, 0]",right,0,524,20,m,y,y,2019_Apr_29_1357,2AFC_task,59.93809952679321,
stimuli/rgb_scene000113_render000002.png,stimuli/rgb_scene000113_render000003.png,0,94,94,158,"[1, 0]",left,1,524,20,m,y,y,2019_Apr_29_1357,2AFC_task,59.93809952679321,
stimuli/rgb_scene000146_render000003.png,stimuli/rgb_scene000146_render000006.png,0,95,95,185,"[0, 1]",right,1,524,20,m,y,y,2019_Apr_29_1357,2AFC_task,59.93809952679321,
stimuli/rgb_scene000004_render000000.png,stimuli/rgb_scene000004_render000001.png,0,96,96,0,"[1, 0]",left,1,524,20,m,y,y,2019_Apr_29_1357,2AFC_task,59.93809952679321,
stimuli/rgb_scene000012_render000000.png,stimuli/rgb_scene000012_render000006.png,0,97,97,47,"[1, 0]",left,1,524,20,m,y,y,2019_Apr_29_1357,2AFC_task,59.93809952679321,
stimuli/rgb_scene000195_render000000.png,stimuli/rgb_scene000195_render000003.png,0,98,98,191,"[0, 1]",right,1,524,20,m,y,y,2019_Apr_29_1357,2AFC_task,59.93809952679321,
stimuli/rgb_scene000096_render000002.png,stimuli/rgb_scene000096_render000003.png,0,99,99,116,"[0, 1]",right,1,524,20,m,y,y,2019_Apr_29_1357,2AFC_task,59.93809952679321,
stimuli/rgb_scene000096_render000005.png,stimuli/rgb_scene000096_render000006.png,0,100,100,125,"[1, 0]",left,1,524,20,m,y,y,2019_Apr_29_1357,2AFC_task,59.93809952679321,
stimuli/rgb_scene000096_render000002.png,stimuli/rgb_scene000096_render000005.png,0,101,101,118,"[1, 0]",left,1,524,20,m,y,y,2019_Apr_29_1357,2AFC_task,59.93809952679321,
stimuli/rgb_scene000096_render000000.png,stimuli/rgb_scene000096_render000004.png,0,102,102,108,"[0, 1]",right,1,524,20,m,y,y,2019_Apr_29_1357,2AFC_task,59.93809952679321,
stimuli/rgb_scene000095_render000001.png,stimuli/rgb_scene000095_render000005.png,0,103,103,93,"[1, 0]",left,1,524,20,m,y,y,2019_Apr_29_1357,2AFC_task,59.93809952679321,
stimuli/rgb_scene000095_render000000.png,stimuli/rgb_scene000095_render000006.png,0,104,104,89,"[0, 1]",right,1,524,20,m,y,y,2019_Apr_29_1357,2AFC_task,59.93809952679321,
stimuli/rgb_scene000113_render000001.png,stimuli/rgb_scene000113_render000006.png,0,105,105,157,"[1, 0]",left,1,524,20,m,y,y,2019_Apr_29_1357,2AFC_task,59.93809952679321,
stimuli/rgb_scene000102_render000001.png,stimuli/rgb_scene000102_render000002.png,0,106,106,132,"[0, 1]",right,1,524,20,m,y,y,2019_Apr_29_1357,2AFC_task,59.93809952679321,
stimuli/rgb_scene000005_render000001.png,stimuli/rgb_scene000005_render000003.png,0,107,107,28,"[1, 0]",left,1,524,20,m,y,y,2019_Apr_29_1357,2AFC_task,59.93809952679321,
stimuli/rgb_scene000195_render000001.png,stimuli/rgb_scene000195_render000005.png,0,108,108,198,"[1, 0]",left,1,524,20,m,y,y,2019_Apr_29_1357,2AFC_task,59.93809952679321,
stimuli/rgb_scene000095_render000000.png,stimuli/rgb_scene000095_render000003.png,0,109,109,86,"[1, 0]",left,1,524,20,m,y,y,2019_Apr_29_1357,2AFC_task,59.93809952679321,
stimuli/rgb_scene000005_render000000.png,stimuli/rgb_scene000005_render000004.png,0,110,110,24,"[0, 1]",right,1,524,20,m,y,y,2019_Apr_29_1357,2AFC_task,59.93809952679321,
stimuli/rgb_scene000102_render000002.png,stimuli/rgb_scene000102_render000004.png,0,111,111,138,"[0, 1]",right,1,524,20,m,y,y,2019_Apr_29_1357,2AFC_task,59.93809952679321,
stimuli/rgb_scene000146_render000001.png,stimuli/rgb_scene000146_render000005.png,0,112,112,177,"[0, 1]",right,1,524,20,m,y,y,2019_Apr_29_1357,2AFC_task,59.93809952679321,
stimuli/rgb_scene000096_render000000.png,stimuli/rgb_scene000096_render000002.png,0,113,113,106,"[0, 1]",right,1,524,20,m,y,y,2019_Apr_29_1357,2AFC_task,59.93809952679321,
stimuli/rgb_scene000090_render000000.png,stimuli/rgb_scene000090_render000006.png,0,114,114,68,"[1, 0]",left,1,524,20,m,y,y,2019_Apr_29_1357,2AFC_task,59.93809952679321,
stimuli/rgb_scene000090_render000001.png,stimuli/rgb_scene000090_render000005.png,0,115,115,72,"[0, 1]",right,1,524,20,m,y,y,2019_Apr_29_1357,2AFC_task,59.93809952679321,
stimuli/rgb_scene000113_render000000.png,stimuli/rgb_scene000113_render000005.png,0,116,116,151,"[0, 1]",right,1,524,20,m,y,y,2019_Apr_29_1357,2AFC_task,59.93809952679321,
stimuli/rgb_scene000005_render000001.png,stimuli/rgb_scene000005_render000004.png,0,117,117,29,"[0, 1]",right,1,524,20,m,y,y,2019_Apr_29_1357,2AFC_task,59.93809952679321,
stimuli/rgb_scene000012_render000001.png,stimuli/rgb_scene000012_render000002.png,0,118,118,48,"[0, 1]",right,1,524,20,m,y,y,2019_Apr_29_1357,2AFC_task,59.93809952679321,
stimuli/rgb_scene000102_render000002.png,stimuli/rgb_scene000102_render000006.png,0,119,119,140,"[0, 1]",right,1,524,20,m,y,y,2019_Apr_29_1357,2AFC_task,59.93809952679321,
stimuli/rgb_scene000146_render000002.png,stimuli/rgb_scene000146_render000005.png,0,120,120,181,"[0, 1]",right,1,524,20,m,y,y,2019_Apr_29_1357,2AFC_task,59.93809952679321,
stimuli/rgb_scene000012_render000000.png,stimuli/rgb_scene000012_render000001.png,0,121,121,42,"[1, 0]",left,1,524,20,m,y,y,2019_Apr_29_1357,2AFC_task,59.93809952679321,
stimuli/rgb_scene000096_render000003.png,stimuli/rgb_scene000096_render000004.png,0,122,122,120,"[1, 0]",left,1,524,20,m,y,y,2019_Apr_29_1357,2AFC_task,59.93809952679321,
stimuli/rgb_scene000090_render000002.png,stimuli/rgb_scene000090_render000005.png,0,123,123,76,"[1, 0]",right,0,524,20,m,y,y,2019_Apr_29_1357,2AFC_task,59.93809952679321,
stimuli/rgb_scene000005_render000001.png,stimuli/rgb_scene000005_render000002.png,0,124,124,27,"[1, 0]",left,1,524,20,m,y,y,2019_Apr_29_1357,2AFC_task,59.93809952679321,
stimuli/rgb_scene000096_render000002.png,stimuli/rgb_scene000096_render000006.png,0,125,125,119,"[0, 1]",right,1,524,20,m,y,y,2019_Apr_29_1357,2AFC_task,59.93809952679321,
stimuli/rgb_scene000005_render000001.png,stimuli/rgb_scene000005_render000005.png,0,126,126,30,"[1, 0]",left,1,524,20,m,y,y,2019_Apr_29_1357,2AFC_task,59.93809952679321,
stimuli/rgb_scene000012_render000001.png,stimuli/rgb_scene000012_render000006.png,0,127,127,52,"[0, 1]",right,1,524,20,m,y,y,2019_Apr_29_1357,2AFC_task,59.93809952679321,
stimuli/rgb_scene000095_render000003.png,stimuli/rgb_scene000095_render000005.png,0,128,128,100,"[1, 0]",left,1,524,20,m,y,y,2019_Apr_29_1357,2AFC_task,59.93809952679321,
stimuli/rgb_scene000095_render000003.png,stimuli/rgb_scene000095_render000004.png,0,129,129,99,"[0, 1]",right,1,524,20,m,y,y,2019_Apr_29_1357,2AFC_task,59.93809952679321,
stimuli/rgb_scene000146_render000001.png,stimuli/rgb_scene000146_render000002.png,0,130,130,174,"[0, 1]",right,1,524,20,m,y,y,2019_Apr_29_1357,2AFC_task,59.93809952679321,
stimuli/rgb_scene000095_render000002.png,stimuli/rgb_scene000095_render000004.png,0,131,131,96,"[0, 1]",right,1,524,20,m,y,y,2019_Apr_29_1357,2AFC_task,59.93809952679321,
stimuli/rgb_scene000102_render000000.png,stimuli/rgb_scene000102_render000006.png,0,132,132,131,"[0, 1]",right,1,524,20,m,y,y,2019_Apr_29_1357,2AFC_task,59.93809952679321,
stimuli/rgb_scene000004_render000004.png,stimuli/rgb_scene000004_render000006.png,0,133,133,19,"[1, 0]",left,1,524,20,m,y,y,2019_Apr_29_1357,2AFC_task,59.93809952679321,
stimuli/rgb_scene000090_render000000.png,stimuli/rgb_scene000090_render000001.png,0,134,134,63,"[0, 1]",right,1,524,20,m,y,y,2019_Apr_29_1357,2AFC_task,59.93809952679321,
stimuli/rgb_scene000102_render000000.png,stimuli/rgb_scene000102_render000002.png,0,135,135,127,"[1, 0]",left,1,524,20,m,y,y,2019_Apr_29_1357,2AFC_task,59.93809952679321,
stimuli/rgb_scene000102_render000000.png,stimuli/rgb_scene000102_render000005.png,0,136,136,130,"[0, 1]",right,1,524,20,m,y,y,2019_Apr_29_1357,2AFC_task,59.93809952679321,
stimuli/rgb_scene000195_render000001.png,stimuli/rgb_scene000195_render000004.png,0,137,137,197,"[0, 1]",right,1,524,20,m,y,y,2019_Apr_29_1357,2AFC_task,59.93809952679321,
stimuli/rgb_scene000113_render000001.png,stimuli/rgb_scene000113_render000005.png,0,138,138,156,"[0, 1]",right,1,524,20,m,y,y,2019_Apr_29_1357,2AFC_task,59.93809952679321,
stimuli/rgb_scene000005_render000000.png,stimuli/rgb_scene000005_render000002.png,0,139,139,22,"[1, 0]",left,1,524,20,m,y,y,2019_Apr_29_1357,2AFC_task,59.93809952679321,
stimuli/rgb_scene000095_render000004.png,stimuli/rgb_scene000095_render000005.png,0,140,140,102,"[0, 1]",right,1,524,20,m,y,y,2019_Apr_29_1357,2AFC_task,59.93809952679321,
stimuli/rgb_scene000102_render000004.png,stimuli/rgb_scene000102_render000005.png,0,141,141,144,"[1, 0]",left,1,524,20,m,y,y,2019_Apr_29_1357,2AFC_task,59.93809952679321,
stimuli/rgb_scene000004_render000000.png,stimuli/rgb_scene000004_render000006.png,0,142,142,5,"[1, 0]",left,1,524,20,m,y,y,2019_Apr_29_1357,2AFC_task,59.93809952679321,
stimuli/rgb_scene000195_render000001.png,stimuli/rgb_scene000195_render000002.png,0,143,143,195,"[0, 1]",right,1,524,20,m,y,y,2019_Apr_29_1357,2AFC_task,59.93809952679321,
stimuli/rgb_scene000102_render000003.png,stimuli/rgb_scene000102_render000006.png,0,144,144,143,"[1, 0]",left,1,524,20,m,y,y,2019_Apr_29_1357,2AFC_task,59.93809952679321,
stimuli/rgb_scene000012_render000001.png,stimuli/rgb_scene000012_render000004.png,0,145,145,50,"[1, 0]",left,1,524,20,m,y,y,2019_Apr_29_1357,2AFC_task,59.93809952679321,
stimuli/rgb_scene000096_render000002.png,stimuli/rgb_scene000096_render000004.png,0,146,146,117,"[0, 1]",right,1,524,20,m,y,y,2019_Apr_29_1357,2AFC_task,59.93809952679321,
stimuli/rgb_scene000095_render000004.png,stimuli/rgb_scene000095_render000006.png,0,147,147,103,"[1, 0]",left,1,524,20,m,y,y,2019_Apr_29_1357,2AFC_task,59.93809952679321,
stimuli/rgb_scene000146_render000003.png,stimuli/rgb_scene000146_render000005.png,0,148,148,184,"[1, 0]",left,1,524,20,m,y,y,2019_Apr_29_1357,2AFC_task,59.93809952679321,
stimuli/rgb_scene000004_render000002.png,stimuli/rgb_scene000004_render000006.png,0,149,149,14,"[0, 1]",right,1,524,20,m,y,y,2019_Apr_29_1357,2AFC_task,59.93809952679321,
stimuli/rgb_scene000095_render000001.png,stimuli/rgb_scene000095_render000004.png,0,150,150,92,"[1, 0]",left,1,524,20,m,y,y,2019_Apr_29_1357,2AFC_task,59.93809952679321,
stimuli/rgb_scene000095_render000002.png,stimuli/rgb_scene000095_render000005.png,0,151,151,97,"[0, 1]",right,1,524,20,m,y,y,2019_Apr_29_1357,2AFC_task,59.93809952679321,
stimuli/rgb_scene000095_render000000.png,stimuli/rgb_scene000095_render000005.png,0,152,152,88,"[0, 1]",right,1,524,20,m,y,y,2019_Apr_29_1357,2AFC_task,59.93809952679321,
stimuli/rgb_scene000090_render000001.png,stimuli/rgb_scene000090_render000004.png,0,153,153,71,"[1, 0]",left,1,524,20,m,y,y,2019_Apr_29_1357,2AFC_task,59.93809952679321,
stimuli/rgb_scene000102_render000001.png,stimuli/rgb_scene000102_render000005.png,0,154,154,135,"[1, 0]",left,1,524,20,m,y,y,2019_Apr_29_1357,2AFC_task,59.93809952679321,
stimuli/rgb_scene000090_render000000.png,stimuli/rgb_scene000090_render000005.png,0,155,155,67,"[0, 1]",right,1,524,20,m,y,y,2019_Apr_29_1357,2AFC_task,59.93809952679321,
stimuli/rgb_scene000005_render000002.png,stimuli/rgb_scene000005_render000003.png,0,156,156,32,"[1, 0]",left,1,524,20,m,y,y,2019_Apr_29_1357,2AFC_task,59.93809952679321,
stimuli/rgb_scene000090_render000003.png,stimuli/rgb_scene000090_render000004.png,0,157,157,78,"[1, 0]",right,0,524,20,m,y,y,2019_Apr_29_1357,2AFC_task,59.93809952679321,
stimuli/rgb_scene000195_render000003.png,stimuli/rgb_scene000195_render000004.png,0,158,158,204,"[1, 0]",left,1,524,20,m,y,y,2019_Apr_29_1357,2AFC_task,59.93809952679321,
stimuli/rgb_scene000004_render000001.png,stimuli/rgb_scene000004_render000003.png,0,159,159,7,"[1, 0]",left,1,524,20,m,y,y,2019_Apr_29_1357,2AFC_task,59.93809952679321,
stimuli/rgb_scene000102_render000004.png,stimuli/rgb_scene000102_render000006.png,0,160,160,145,"[1, 0]",left,1,524,20,m,y,y,2019_Apr_29_1357,2AFC_task,59.93809952679321,
stimuli/rgb_scene000102_render000005.png,stimuli/rgb_scene000102_render000006.png,0,161,161,146,"[1, 0]",left,1,524,20,m,y,y,2019_Apr_29_1357,2AFC_task,59.93809952679321,
stimuli/rgb_scene000005_render000000.png,stimuli/rgb_scene000005_render000005.png,0,162,162,25,"[1, 0]",right,0,524,20,m,y,y,2019_Apr_29_1357,2AFC_task,59.93809952679321,
stimuli/rgb_scene000146_render000004.png,stimuli/rgb_scene000146_render000005.png,0,163,163,186,"[0, 1]",right,1,524,20,m,y,y,2019_Apr_29_1357,2AFC_task,59.93809952679321,
stimuli/rgb_scene000096_render000000.png,stimuli/rgb_scene000096_render000001.png,0,164,164,105,"[0, 1]",right,1,524,20,m,y,y,2019_Apr_29_1357,2AFC_task,59.93809952679321,
stimuli/rgb_scene000195_render000003.png,stimuli/rgb_scene000195_render000006.png,0,165,165,206,"[0, 1]",right,1,524,20,m,y,y,2019_Apr_29_1357,2AFC_task,59.93809952679321,
stimuli/rgb_scene000113_render000001.png,stimuli/rgb_scene000113_render000002.png,0,166,166,153,"[1, 0]",left,1,524,20,m,y,y,2019_Apr_29_1357,2AFC_task,59.93809952679321,
stimuli/rgb_scene000102_render000001.png,stimuli/rgb_scene000102_render000004.png,0,167,167,134,"[0, 1]",right,1,524,20,m,y,y,2019_Apr_29_1357,2AFC_task,59.93809952679321,
stimuli/rgb_scene000113_render000000.png,stimuli/rgb_scene000113_render000006.png,0,168,168,152,"[0, 1]",right,1,524,20,m,y,y,2019_Apr_29_1357,2AFC_task,59.93809952679321,
stimuli/rgb_scene000102_render000002.png,stimuli/rgb_scene000102_render000003.png,0,169,169,137,"[1, 0]",left,1,524,20,m,y,y,2019_Apr_29_1357,2AFC_task,59.93809952679321,
stimuli/rgb_scene000146_render000001.png,stimuli/rgb_scene000146_render000003.png,0,170,170,175,"[1, 0]",left,1,524,20,m,y,y,2019_Apr_29_1357,2AFC_task,59.93809952679321,
stimuli/rgb_scene000102_render000003.png,stimuli/rgb_scene000102_render000005.png,0,171,171,142,"[0, 1]",right,1,524,20,m,y,y,2019_Apr_29_1357,2AFC_task,59.93809952679321,
stimuli/rgb_scene000012_render000002.png,stimuli/rgb_scene000012_render000006.png,0,172,172,56,"[0, 1]",right,1,524,20,m,y,y,2019_Apr_29_1357,2AFC_task,59.93809952679321,
stimuli/rgb_scene000012_render000004.png,stimuli/rgb_scene000012_render000005.png,0,173,173,60,"[1, 0]",left,1,524,20,m,y,y,2019_Apr_29_1357,2AFC_task,59.93809952679321,
stimuli/rgb_scene000012_render000000.png,stimuli/rgb_scene000012_render000003.png,0,174,174,44,"[0, 1]",right,1,524,20,m,y,y,2019_Apr_29_1357,2AFC_task,59.93809952679321,
stimuli/rgb_scene000113_render000003.png,stimuli/rgb_scene000113_render000005.png,0,175,175,163,"[0, 1]",right,1,524,20,m,y,y,2019_Apr_29_1357,2AFC_task,59.93809952679321,
stimuli/rgb_scene000012_render000002.png,stimuli/rgb_scene000012_render000004.png,0,176,176,54,"[0, 1]",right,1,524,20,m,y,y,2019_Apr_29_1357,2AFC_task,59.93809952679321,
stimuli/rgb_scene000090_render000004.png,stimuli/rgb_scene000090_render000006.png,0,177,177,82,"[1, 0]",right,0,524,20,m,y,y,2019_Apr_29_1357,2AFC_task,59.93809952679321,
stimuli/rgb_scene000095_render000005.png,stimuli/rgb_scene000095_render000006.png,0,178,178,104,"[1, 0]",right,0,524,20,m,y,y,2019_Apr_29_1357,2AFC_task,59.93809952679321,
stimuli/rgb_scene000113_render000004.png,stimuli/rgb_scene000113_render000006.png,0,179,179,166,"[0, 1]",right,1,524,20,m,y,y,2019_Apr_29_1357,2AFC_task,59.93809952679321,
stimuli/rgb_scene000005_render000004.png,stimuli/rgb_scene000005_render000005.png,0,180,180,39,"[1, 0]",right,0,524,20,m,y,y,2019_Apr_29_1357,2AFC_task,59.93809952679321,
stimuli/rgb_scene000095_render000000.png,stimuli/rgb_scene000095_render000004.png,0,181,181,87,"[1, 0]",left,1,524,20,m,y,y,2019_Apr_29_1357,2AFC_task,59.93809952679321,
stimuli/rgb_scene000195_render000005.png,stimuli/rgb_scene000195_render000006.png,0,182,182,209,"[0, 1]",left,0,524,20,m,y,y,2019_Apr_29_1357,2AFC_task,59.93809952679321,
stimuli/rgb_scene000113_render000000.png,stimuli/rgb_scene000113_render000004.png,0,183,183,150,"[0, 1]",right,1,524,20,m,y,y,2019_Apr_29_1357,2AFC_task,59.93809952679321,
stimuli/rgb_scene000195_render000000.png,stimuli/rgb_scene000195_render000006.png,0,184,184,194,"[1, 0]",left,1,524,20,m,y,y,2019_Apr_29_1357,2AFC_task,59.93809952679321,
stimuli/rgb_scene000090_render000000.png,stimuli/rgb_scene000090_render000004.png,0,185,185,66,"[0, 1]",left,0,524,20,m,y,y,2019_Apr_29_1357,2AFC_task,59.93809952679321,
stimuli/rgb_scene000102_render000000.png,stimuli/rgb_scene000102_render000001.png,0,186,186,126,"[1, 0]",left,1,524,20,m,y,y,2019_Apr_29_1357,2AFC_task,59.93809952679321,
stimuli/rgb_scene000012_render000005.png,stimuli/rgb_scene000012_render000006.png,0,187,187,62,"[1, 0]",left,1,524,20,m,y,y,2019_Apr_29_1357,2AFC_task,59.93809952679321,
stimuli/rgb_scene000005_render000001.png,stimuli/rgb_scene000005_render000006.png,0,188,188,31,"[0, 1]",left,0,524,20,m,y,y,2019_Apr_29_1357,2AFC_task,59.93809952679321,
stimuli/rgb_scene000195_render000004.png,stimuli/rgb_scene000195_render000005.png,0,189,189,207,"[0, 1]",right,1,524,20,m,y,y,2019_Apr_29_1357,2AFC_task,59.93809952679321,
stimuli/rgb_scene000102_render000003.png,stimuli/rgb_scene000102_render000004.png,0,190,190,141,"[0, 1]",right,1,524,20,m,y,y,2019_Apr_29_1357,2AFC_task,59.93809952679321,
stimuli/rgb_scene000090_render000002.png,stimuli/rgb_scene000090_render000004.png,0,191,191,75,"[1, 0]",left,1,524,20,m,y,y,2019_Apr_29_1357,2AFC_task,59.93809952679321,
stimuli/rgb_scene000004_render000003.png,stimuli/rgb_scene000004_render000005.png,0,192,192,16,"[0, 1]",right,1,524,20,m,y,y,2019_Apr_29_1357,2AFC_task,59.93809952679321,
stimuli/rgb_scene000096_render000004.png,stimuli/rgb_scene000096_render000006.png,0,193,193,124,"[0, 1]",right,1,524,20,m,y,y,2019_Apr_29_1357,2AFC_task,59.93809952679321,
stimuli/rgb_scene000096_render000001.png,stimuli/rgb_scene000096_render000005.png,0,194,194,114,"[1, 0]",left,1,524,20,m,y,y,2019_Apr_29_1357,2AFC_task,59.93809952679321,
stimuli/rgb_scene000004_render000000.png,stimuli/rgb_scene000004_render000002.png,0,195,195,1,"[1, 0]",left,1,524,20,m,y,y,2019_Apr_29_1357,2AFC_task,59.93809952679321,
stimuli/rgb_scene000195_render000000.png,stimuli/rgb_scene000195_render000004.png,0,196,196,192,"[0, 1]",right,1,524,20,m,y,y,2019_Apr_29_1357,2AFC_task,59.93809952679321,
stimuli/rgb_scene000090_render000001.png,stimuli/rgb_scene000090_render000003.png,0,197,197,70,"[1, 0]",left,1,524,20,m,y,y,2019_Apr_29_1357,2AFC_task,59.93809952679321,
stimuli/rgb_scene000090_render000002.png,stimuli/rgb_scene000090_render000006.png,0,198,198,77,"[1, 0]",left,1,524,20,m,y,y,2019_Apr_29_1357,2AFC_task,59.93809952679321,
stimuli/rgb_scene000195_render000002.png,stimuli/rgb_scene000195_render000006.png,0,199,199,203,"[0, 1]",right,1,524,20,m,y,y,2019_Apr_29_1357,2AFC_task,59.93809952679321,
stimuli/rgb_scene000195_render000002.png,stimuli/rgb_scene000195_render000004.png,0,200,200,201,"[0, 1]",right,1,524,20,m,y,y,2019_Apr_29_1357,2AFC_task,59.93809952679321,
stimuli/rgb_scene000004_render000001.png,stimuli/rgb_scene000004_render000006.png,0,201,201,10,"[1, 0]",left,1,524,20,m,y,y,2019_Apr_29_1357,2AFC_task,59.93809952679321,
stimuli/rgb_scene000146_render000000.png,stimuli/rgb_scene000146_render000001.png,0,202,202,168,"[0, 1]",right,1,524,20,m,y,y,2019_Apr_29_1357,2AFC_task,59.93809952679321,
stimuli/rgb_scene000096_render000000.png,stimuli/rgb_scene000096_render000005.png,0,203,203,109,"[1, 0]",left,1,524,20,m,y,y,2019_Apr_29_1357,2AFC_task,59.93809952679321,
stimuli/rgb_scene000095_render000001.png,stimuli/rgb_scene000095_render000003.png,0,204,204,91,"[0, 1]",right,1,524,20,m,y,y,2019_Apr_29_1357,2AFC_task,59.93809952679321,
stimuli/rgb_scene000096_render000003.png,stimuli/rgb_scene000096_render000006.png,0,205,205,122,"[1, 0]",left,1,524,20,m,y,y,2019_Apr_29_1357,2AFC_task,59.93809952679321,
stimuli/rgb_scene000146_render000000.png,stimuli/rgb_scene000146_render000005.png,0,206,206,172,"[1, 0]",left,1,524,20,m,y,y,2019_Apr_29_1357,2AFC_task,59.93809952679321,
stimuli/rgb_scene000004_render000002.png,stimuli/rgb_scene000004_render000005.png,0,207,207,13,"[0, 1]",right,1,524,20,m,y,y,2019_Apr_29_1357,2AFC_task,59.93809952679321,
stimuli/rgb_scene000195_render000001.png,stimuli/rgb_scene000195_render000003.png,0,208,208,196,"[1, 0]",left,1,524,20,m,y,y,2019_Apr_29_1357,2AFC_task,59.93809952679321,
stimuli/rgb_scene000090_render000002.png,stimuli/rgb_scene000090_render000003.png,0,209,209,74,"[0, 1]",right,1,524,20,m,y,y,2019_Apr_29_1357,2AFC_task,59.93809952679321,
stimuli/rgb_scene000195_render000002.png,stimuli/rgb_scene000195_render000006.png,1,0,210,203,"[1, 0]",left,1,524,20,m,y,y,2019_Apr_29_1357,2AFC_task,59.93809952679321,
stimuli/rgb_scene000090_render000001.png,stimuli/rgb_scene000090_render000003.png,1,1,211,70,"[1, 0]",left,1,524,20,m,y,y,2019_Apr_29_1357,2AFC_task,59.93809952679321,
stimuli/rgb_scene000090_render000000.png,stimuli/rgb_scene000090_render000003.png,1,2,212,65,"[0, 1]",right,1,524,20,m,y,y,2019_Apr_29_1357,2AFC_task,59.93809952679321,
stimuli/rgb_scene000195_render000000.png,stimuli/rgb_scene000195_render000001.png,1,3,213,189,"[0, 1]",right,1,524,20,m,y,y,2019_Apr_29_1357,2AFC_task,59.93809952679321,
stimuli/rgb_scene000095_render000000.png,stimuli/rgb_scene000095_render000005.png,1,4,214,88,"[1, 0]",left,1,524,20,m,y,y,2019_Apr_29_1357,2AFC_task,59.93809952679321,
stimuli/rgb_scene000146_render000001.png,stimuli/rgb_scene000146_render000006.png,1,5,215,178,"[1, 0]",left,1,524,20,m,y,y,2019_Apr_29_1357,2AFC_task,59.93809952679321,
stimuli/rgb_scene000004_render000000.png,stimuli/rgb_scene000004_render000005.png,1,6,216,4,"[1, 0]",left,1,524,20,m,y,y,2019_Apr_29_1357,2AFC_task,59.93809952679321,
stimuli/rgb_scene000090_render000001.png,stimuli/rgb_scene000090_render000004.png,1,7,217,71,"[1, 0]",left,1,524,20,m,y,y,2019_Apr_29_1357,2AFC_task,59.93809952679321,
stimuli/rgb_scene000090_render000000.png,stimuli/rgb_scene000090_render000006.png,1,8,218,68,"[0, 1]",right,1,524,20,m,y,y,2019_Apr_29_1357,2AFC_task,59.93809952679321,
stimuli/rgb_scene000113_render000003.png,stimuli/rgb_scene000113_render000005.png,1,9,219,163,"[0, 1]",right,1,524,20,m,y,y,2019_Apr_29_1357,2AFC_task,59.93809952679321,
stimuli/rgb_scene000004_render000003.png,stimuli/rgb_scene000004_render000006.png,1,10,220,17,"[1, 0]",left,1,524,20,m,y,y,2019_Apr_29_1357,2AFC_task,59.93809952679321,
stimuli/rgb_scene000095_render000002.png,stimuli/rgb_scene000095_render000003.png,1,11,221,95,"[1, 0]",left,1,524,20,m,y,y,2019_Apr_29_1357,2AFC_task,59.93809952679321,
stimuli/rgb_scene000012_render000000.png,stimuli/rgb_scene000012_render000005.png,1,12,222,46,"[1, 0]",left,1,524,20,m,y,y,2019_Apr_29_1357,2AFC_task,59.93809952679321,
stimuli/rgb_scene000102_render000000.png,stimuli/rgb_scene000102_render000003.png,1,13,223,128,"[0, 1]",right,1,524,20,m,y,y,2019_Apr_29_1357,2AFC_task,59.93809952679321,
stimuli/rgb_scene000012_render000001.png,stimuli/rgb_scene000012_render000004.png,1,14,224,50,"[1, 0]",left,1,524,20,m,y,y,2019_Apr_29_1357,2AFC_task,59.93809952679321,
stimuli/rgb_scene000096_render000002.png,stimuli/rgb_scene000096_render000003.png,1,15,225,116,"[1, 0]",left,1,524,20,m,y,y,2019_Apr_29_1357,2AFC_task,59.93809952679321,
stimuli/rgb_scene000146_render000003.png,stimuli/rgb_scene000146_render000006.png,1,16,226,185,"[1, 0]",left,1,524,20,m,y,y,2019_Apr_29_1357,2AFC_task,59.93809952679321,
stimuli/rgb_scene000005_render000003.png,stimuli/rgb_scene000005_render000004.png,1,17,227,36,"[0, 1]",right,1,524,20,m,y,y,2019_Apr_29_1357,2AFC_task,59.93809952679321,
stimuli/rgb_scene000195_render000000.png,stimuli/rgb_scene000195_render000006.png,1,18,228,194,"[1, 0]",left,1,524,20,m,y,y,2019_Apr_29_1357,2AFC_task,59.93809952679321,
stimuli/rgb_scene000102_render000003.png,stimuli/rgb_scene000102_render000006.png,1,19,229,143,"[0, 1]",right,1,524,20,m,y,y,2019_Apr_29_1357,2AFC_task,59.93809952679321,
stimuli/rgb_scene000113_render000001.png,stimuli/rgb_scene000113_render000002.png,1,20,230,153,"[1, 0]",left,1,524,20,m,y,y,2019_Apr_29_1357,2AFC_task,59.93809952679321,
stimuli/rgb_scene000004_render000001.png,stimuli/rgb_scene000004_render000003.png,1,21,231,7,"[1, 0]",left,1,524,20,m,y,y,2019_Apr_29_1357,2AFC_task,59.93809952679321,
stimuli/rgb_scene000096_render000000.png,stimuli/rgb_scene000096_render000001.png,1,22,232,105,"[1, 0]",left,1,524,20,m,y,y,2019_Apr_29_1357,2AFC_task,59.93809952679321,
stimuli/rgb_scene000005_render000002.png,stimuli/rgb_scene000005_render000003.png,1,23,233,32,"[0, 1]",right,1,524,20,m,y,y,2019_Apr_29_1357,2AFC_task,59.93809952679321,
stimuli/rgb_scene000090_render000000.png,stimuli/rgb_scene000090_render000004.png,1,24,234,66,"[1, 0]",left,1,524,20,m,y,y,2019_Apr_29_1357,2AFC_task,59.93809952679321,
stimuli/rgb_scene000095_render000002.png,stimuli/rgb_scene000095_render000004.png,1,25,235,96,"[0, 1]",right,1,524,20,m,y,y,2019_Apr_29_1357,2AFC_task,59.93809952679321,
stimuli/rgb_scene000195_render000001.png,stimuli/rgb_scene000195_render000005.png,1,26,236,198,"[1, 0]",left,1,524,20,m,y,y,2019_Apr_29_1357,2AFC_task,59.93809952679321,
stimuli/rgb_scene000095_render000001.png,stimuli/rgb_scene000095_render000005.png,1,27,237,93,"[0, 1]",right,1,524,20,m,y,y,2019_Apr_29_1357,2AFC_task,59.93809952679321,
stimuli/rgb_scene000146_render000000.png,stimuli/rgb_scene000146_render000006.png,1,28,238,173,"[1, 0]",left,1,524,20,m,y,y,2019_Apr_29_1357,2AFC_task,59.93809952679321,
stimuli/rgb_scene000096_render000000.png,stimuli/rgb_scene000096_render000004.png,1,29,239,108,"[0, 1]",right,1,524,20,m,y,y,2019_Apr_29_1357,2AFC_task,59.93809952679321,
stimuli/rgb_scene000005_render000000.png,stimuli/rgb_scene000005_render000004.png,1,30,240,24,"[1, 0]",left,1,524,20,m,y,y,2019_Apr_29_1357,2AFC_task,59.93809952679321,
stimuli/rgb_scene000012_render000000.png,stimuli/rgb_scene000012_render000003.png,1,31,241,44,"[0, 1]",right,1,524,20,m,y,y,2019_Apr_29_1357,2AFC_task,59.93809952679321,
stimuli/rgb_scene000005_render000003.png,stimuli/rgb_scene000005_render000005.png,1,32,242,37,"[0, 1]",right,1,524,20,m,y,y,2019_Apr_29_1357,2AFC_task,59.93809952679321,
stimuli/rgb_scene000090_render000002.png,stimuli/rgb_scene000090_render000004.png,1,33,243,75,"[1, 0]",left,1,524,20,m,y,y,2019_Apr_29_1357,2AFC_task,59.93809952679321,
stimuli/rgb_scene000146_render000000.png,stimuli/rgb_scene000146_render000004.png,1,34,244,171,"[0, 1]",right,1,524,20,m,y,y,2019_Apr_29_1357,2AFC_task,59.93809952679321,
stimuli/rgb_scene000096_render000004.png,stimuli/rgb_scene000096_render000006.png,1,35,245,124,"[1, 0]",left,1,524,20,m,y,y,2019_Apr_29_1357,2AFC_task,59.93809952679321,
stimuli/rgb_scene000195_render000004.png,stimuli/rgb_scene000195_render000005.png,1,36,246,207,"[0, 1]",right,1,524,20,m,y,y,2019_Apr_29_1357,2AFC_task,59.93809952679321,
stimuli/rgb_scene000113_render000001.png,stimuli/rgb_scene000113_render000005.png,1,37,247,156,"[1, 0]",left,1,524,20,m,y,y,2019_Apr_29_1357,2AFC_task,59.93809952679321,
stimuli/rgb_scene000005_render000001.png,stimuli/rgb_scene000005_render000005.png,1,38,248,30,"[0, 1]",right,1,524,20,m,y,y,2019_Apr_29_1357,2AFC_task,59.93809952679321,
stimuli/rgb_scene000113_render000000.png,stimuli/rgb_scene000113_render000002.png,1,39,249,148,"[1, 0]",left,1,524,20,m,y,y,2019_Apr_29_1357,2AFC_task,59.93809952679321,
stimuli/rgb_scene000146_render000002.png,stimuli/rgb_scene000146_render000004.png,1,40,250,180,"[0, 1]",right,1,524,20,m,y,y,2019_Apr_29_1357,2AFC_task,59.93809952679321,
stimuli/rgb_scene000005_render000000.png,stimuli/rgb_scene000005_render000001.png,1,41,251,21,"[0, 1]",right,1,524,20,m,y,y,2019_Apr_29_1357,2AFC_task,59.93809952679321,
stimuli/rgb_scene000113_render000002.png,stimuli/rgb_scene000113_render000006.png,1,42,252,161,"[1, 0]",left,1,524,20,m,y,y,2019_Apr_29_1357,2AFC_task,59.93809952679321,
stimuli/rgb_scene000113_render000000.png,stimuli/rgb_scene000113_render000001.png,1,43,253,147,"[0, 1]",right,1,524,20,m,y,y,2019_Apr_29_1357,2AFC_task,59.93809952679321,
stimuli/rgb_scene000096_render000003.png,stimuli/rgb_scene000096_render000006.png,1,44,254,122,"[0, 1]",right,1,524,20,m,y,y,2019_Apr_29_1357,2AFC_task,59.93809952679321,
stimuli/rgb_scene000113_render000002.png,stimuli/rgb_scene000113_render000005.png,1,45,255,160,"[0, 1]",right,1,524,20,m,y,y,2019_Apr_29_1357,2AFC_task,59.93809952679321,
stimuli/rgb_scene000113_render000000.png,stimuli/rgb_scene000113_render000006.png,1,46,256,152,"[0, 1]",right,1,524,20,m,y,y,2019_Apr_29_1357,2AFC_task,59.93809952679321,
stimuli/rgb_scene000146_render000001.png,stimuli/rgb_scene000146_render000004.png,1,47,257,176,"[1, 0]",left,1,524,20,m,y,y,2019_Apr_29_1357,2AFC_task,59.93809952679321,
stimuli/rgb_scene000012_render000003.png,stimuli/rgb_scene000012_render000005.png,1,48,258,58,"[0, 1]",right,1,524,20,m,y,y,2019_Apr_29_1357,2AFC_task,59.93809952679321,
stimuli/rgb_scene000005_render000000.png,stimuli/rgb_scene000005_render000005.png,1,49,259,25,"[0, 1]",right,1,524,20,m,y,y,2019_Apr_29_1357,2AFC_task,59.93809952679321,
stimuli/rgb_scene000146_render000001.png,stimuli/rgb_scene000146_render000003.png,1,50,260,175,"[1, 0]",left,1,524,20,m,y,y,2019_Apr_29_1357,2AFC_task,59.93809952679321,
stimuli/rgb_scene000005_render000004.png,stimuli/rgb_scene000005_render000005.png,1,51,261,39,"[1, 0]",left,1,524,20,m,y,y,2019_Apr_29_1357,2AFC_task,59.93809952679321,
stimuli/rgb_scene000096_render000004.png,stimuli/rgb_scene000096_render000005.png,1,52,262,123,"[0, 1]",right,1,524,20,m,y,y,2019_Apr_29_1357,2AFC_task,59.93809952679321,
stimuli/rgb_scene000005_render000001.png,stimuli/rgb_scene000005_render000004.png,1,53,263,29,"[0, 1]",right,1,524,20,m,y,y,2019_Apr_29_1357,2AFC_task,59.93809952679321,
stimuli/rgb_scene000146_render000000.png,stimuli/rgb_scene000146_render000002.png,1,54,264,169,"[0, 1]",right,1,524,20,m,y,y,2019_Apr_29_1357,2AFC_task,59.93809952679321,
stimuli/rgb_scene000090_render000000.png,stimuli/rgb_scene000090_render000002.png,1,55,265,64,"[0, 1]",right,1,524,20,m,y,y,2019_Apr_29_1357,2AFC_task,59.93809952679321,
stimuli/rgb_scene000090_render000002.png,stimuli/rgb_scene000090_render000005.png,1,56,266,76,"[0, 1]",right,1,524,20,m,y,y,2019_Apr_29_1357,2AFC_task,59.93809952679321,
stimuli/rgb_scene000195_render000000.png,stimuli/rgb_scene000195_render000004.png,1,57,267,192,"[0, 1]",right,1,524,20,m,y,y,2019_Apr_29_1357,2AFC_task,59.93809952679321,
stimuli/rgb_scene000195_render000000.png,stimuli/rgb_scene000195_render000002.png,1,58,268,190,"[1, 0]",left,1,524,20,m,y,y,2019_Apr_29_1357,2AFC_task,59.93809952679321,
stimuli/rgb_scene000096_render000002.png,stimuli/rgb_scene000096_render000005.png,1,59,269,118,"[0, 1]",right,1,524,20,m,y,y,2019_Apr_29_1357,2AFC_task,59.93809952679321,
stimuli/rgb_scene000012_render000000.png,stimuli/rgb_scene000012_render000004.png,1,60,270,45,"[0, 1]",right,1,524,20,m,y,y,2019_Apr_29_1357,2AFC_task,59.93809952679321,
stimuli/rgb_scene000102_render000005.png,stimuli/rgb_scene000102_render000006.png,1,61,271,146,"[1, 0]",right,0,524,20,m,y,y,2019_Apr_29_1357,2AFC_task,59.93809952679321,
stimuli/rgb_scene000004_render000002.png,stimuli/rgb_scene000004_render000006.png,1,62,272,14,"[0, 1]",right,1,524,20,m,y,y,2019_Apr_29_1357,2AFC_task,59.93809952679321,
stimuli/rgb_scene000095_render000001.png,stimuli/rgb_scene000095_render000004.png,1,63,273,92,"[0, 1]",right,1,524,20,m,y,y,2019_Apr_29_1357,2AFC_task,59.93809952679321,
stimuli/rgb_scene000195_render000001.png,stimuli/rgb_scene000195_render000003.png,1,64,274,196,"[1, 0]",left,1,524,20,m,y,y,2019_Apr_29_1357,2AFC_task,59.93809952679321,
stimuli/rgb_scene000095_render000000.png,stimuli/rgb_scene000095_render000006.png,1,65,275,89,"[0, 1]",right,1,524,20,m,y,y,2019_Apr_29_1357,2AFC_task,59.93809952679321,
stimuli/rgb_scene000012_render000001.png,stimuli/rgb_scene000012_render000005.png,1,66,276,51,"[0, 1]",right,1,524,20,m,y,y,2019_Apr_29_1357,2AFC_task,59.93809952679321,
stimuli/rgb_scene000113_render000004.png,stimuli/rgb_scene000113_render000006.png,1,67,277,166,"[0, 1]",right,1,524,20,m,y,y,2019_Apr_29_1357,2AFC_task,59.93809952679321,
stimuli/rgb_scene000005_render000005.png,stimuli/rgb_scene000005_render000006.png,1,68,278,41,"[0, 1]",left,0,524,20,m,y,y,2019_Apr_29_1357,2AFC_task,59.93809952679321,
stimuli/rgb_scene000096_render000000.png,stimuli/rgb_scene000096_render000005.png,1,69,279,109,"[0, 1]",right,1,524,20,m,y,y,2019_Apr_29_1357,2AFC_task,59.93809952679321,
stimuli/rgb_scene000146_render000005.png,stimuli/rgb_scene000146_render000006.png,1,70,280,188,"[0, 1]",right,1,524,20,m,y,y,2019_Apr_29_1357,2AFC_task,59.93809952679321,
stimuli/rgb_scene000146_render000004.png,stimuli/rgb_scene000146_render000005.png,1,71,281,186,"[0, 1]",right,1,524,20,m,y,y,2019_Apr_29_1357,2AFC_task,59.93809952679321,
stimuli/rgb_scene000090_render000000.png,stimuli/rgb_scene000090_render000001.png,1,72,282,63,"[1, 0]",left,1,524,20,m,y,y,2019_Apr_29_1357,2AFC_task,59.93809952679321,
stimuli/rgb_scene000146_render000001.png,stimuli/rgb_scene000146_render000002.png,1,73,283,174,"[1, 0]",left,1,524,20,m,y,y,2019_Apr_29_1357,2AFC_task,59.93809952679321,
stimuli/rgb_scene000102_render000001.png,stimuli/rgb_scene000102_render000006.png,1,74,284,136,"[0, 1]",right,1,524,20,m,y,y,2019_Apr_29_1357,2AFC_task,59.93809952679321,
stimuli/rgb_scene000195_render000003.png,stimuli/rgb_scene000195_render000005.png,1,75,285,205,"[0, 1]",right,1,524,20,m,y,y,2019_Apr_29_1357,2AFC_task,59.93809952679321,
stimuli/rgb_scene000146_render000002.png,stimuli/rgb_scene000146_render000003.png,1,76,286,179,"[1, 0]",left,1,524,20,m,y,y,2019_Apr_29_1357,2AFC_task,59.93809952679321,
stimuli/rgb_scene000012_render000001.png,stimuli/rgb_scene000012_render000006.png,1,77,287,52,"[0, 1]",right,1,524,20,m,y,y,2019_Apr_29_1357,2AFC_task,59.93809952679321,
stimuli/rgb_scene000095_render000000.png,stimuli/rgb_scene000095_render000002.png,1,78,288,85,"[1, 0]",left,1,524,20,m,y,y,2019_Apr_29_1357,2AFC_task,59.93809952679321,
stimuli/rgb_scene000012_render000002.png,stimuli/rgb_scene000012_render000004.png,1,79,289,54,"[0, 1]",right,1,524,20,m,y,y,2019_Apr_29_1357,2AFC_task,59.93809952679321,
stimuli/rgb_scene000195_render000001.png,stimuli/rgb_scene000195_render000006.png,1,80,290,199,"[1, 0]",left,1,524,20,m,y,y,2019_Apr_29_1357,2AFC_task,59.93809952679321,
stimuli/rgb_scene000090_render000001.png,stimuli/rgb_scene000090_render000006.png,1,81,291,73,"[1, 0]",left,1,524,20,m,y,y,2019_Apr_29_1357,2AFC_task,59.93809952679321,
stimuli/rgb_scene000004_render000005.png,stimuli/rgb_scene000004_render000006.png,1,82,292,20,"[1, 0]",left,1,524,20,m,y,y,2019_Apr_29_1357,2AFC_task,59.93809952679321,
stimuli/rgb_scene000005_render000002.png,stimuli/rgb_scene000005_render000005.png,1,83,293,34,"[0, 1]",right,1,524,20,m,y,y,2019_Apr_29_1357,2AFC_task,59.93809952679321,
stimuli/rgb_scene000005_render000001.png,stimuli/rgb_scene000005_render000003.png,1,84,294,28,"[0, 1]",right,1,524,20,m,y,y,2019_Apr_29_1357,2AFC_task,59.93809952679321,
stimuli/rgb_scene000090_render000001.png,stimuli/rgb_scene000090_render000002.png,1,85,295,69,"[1, 0]",left,1,524,20,m,y,y,2019_Apr_29_1357,2AFC_task,59.93809952679321,
stimuli/rgb_scene000195_render000004.png,stimuli/rgb_scene000195_render000006.png,1,86,296,208,"[1, 0]",right,0,524,20,m,y,y,2019_Apr_29_1357,2AFC_task,59.93809952679321,
stimuli/rgb_scene000102_render000003.png,stimuli/rgb_scene000102_render000004.png,1,87,297,141,"[0, 1]",right,1,524,20,m,y,y,2019_Apr_29_1357,2AFC_task,59.93809952679321,
stimuli/rgb_scene000195_render000002.png,stimuli/rgb_scene000195_render000003.png,1,88,298,200,"[0, 1]",left,0,524,20,m,y,y,2019_Apr_29_1357,2AFC_task,59.93809952679321,
stimuli/rgb_scene000195_render000001.png,stimuli/rgb_scene000195_render000002.png,1,89,299,195,"[1, 0]",left,1,524,20,m,y,y,2019_Apr_29_1357,2AFC_task,59.93809952679321,
stimuli/rgb_scene000005_render000000.png,stimuli/rgb_scene000005_render000006.png,1,90,300,26,"[0, 1]",right,1,524,20,m,y,y,2019_Apr_29_1357,2AFC_task,59.93809952679321,
stimuli/rgb_scene000012_render000004.png,stimuli/rgb_scene000012_render000005.png,1,91,301,60,"[1, 0]",left,1,524,20,m,y,y,2019_Apr_29_1357,2AFC_task,59.93809952679321,
stimuli/rgb_scene000005_render000002.png,stimuli/rgb_scene000005_render000004.png,1,92,302,33,"[1, 0]",left,1,524,20,m,y,y,2019_Apr_29_1357,2AFC_task,59.93809952679321,
stimuli/rgb_scene000113_render000004.png,stimuli/rgb_scene000113_render000005.png,1,93,303,165,"[0, 1]",right,1,524,20,m,y,y,2019_Apr_29_1357,2AFC_task,59.93809952679321,
stimuli/rgb_scene000096_render000001.png,stimuli/rgb_scene000096_render000004.png,1,94,304,113,"[1, 0]",left,1,524,20,m,y,y,2019_Apr_29_1357,2AFC_task,59.93809952679321,
stimuli/rgb_scene000096_render000001.png,stimuli/rgb_scene000096_render000006.png,1,95,305,115,"[1, 0]",left,1,524,20,m,y,y,2019_Apr_29_1357,2AFC_task,59.93809952679321,
stimuli/rgb_scene000012_render000003.png,stimuli/rgb_scene000012_render000004.png,1,96,306,57,"[1, 0]",left,1,524,20,m,y,y,2019_Apr_29_1357,2AFC_task,59.93809952679321,
stimuli/rgb_scene000004_render000001.png,stimuli/rgb_scene000004_render000005.png,1,97,307,9,"[0, 1]",right,1,524,20,m,y,y,2019_Apr_29_1357,2AFC_task,59.93809952679321,
stimuli/rgb_scene000012_render000004.png,stimuli/rgb_scene000012_render000006.png,1,98,308,61,"[0, 1]",right,1,524,20,m,y,y,2019_Apr_29_1357,2AFC_task,59.93809952679321,
stimuli/rgb_scene000113_render000002.png,stimuli/rgb_scene000113_render000004.png,1,99,309,159,"[0, 1]",right,1,524,20,m,y,y,2019_Apr_29_1357,2AFC_task,59.93809952679321,
stimuli/rgb_scene000146_render000000.png,stimuli/rgb_scene000146_render000003.png,1,100,310,170,"[0, 1]",right,1,524,20,m,y,y,2019_Apr_29_1357,2AFC_task,59.93809952679321,
stimuli/rgb_scene000005_render000000.png,stimuli/rgb_scene000005_render000002.png,1,101,311,22,"[0, 1]",right,1,524,20,m,y,y,2019_Apr_29_1357,2AFC_task,59.93809952679321,
stimuli/rgb_scene000096_render000003.png,stimuli/rgb_scene000096_render000005.png,1,102,312,121,"[1, 0]",left,1,524,20,m,y,y,2019_Apr_29_1357,2AFC_task,59.93809952679321,
stimuli/rgb_scene000146_render000000.png,stimuli/rgb_scene000146_render000005.png,1,103,313,172,"[0, 1]",right,1,524,20,m,y,y,2019_Apr_29_1357,2AFC_task,59.93809952679321,
stimuli/rgb_scene000004_render000000.png,stimuli/rgb_scene000004_render000006.png,1,104,314,5,"[1, 0]",left,1,524,20,m,y,y,2019_Apr_29_1357,2AFC_task,59.93809952679321,
stimuli/rgb_scene000090_render000005.png,stimuli/rgb_scene000090_render000006.png,1,105,315,83,"[0, 1]",left,0,524,20,m,y,y,2019_Apr_29_1357,2AFC_task,59.93809952679321,
stimuli/rgb_scene000095_render000004.png,stimuli/rgb_scene000095_render000005.png,1,106,316,102,"[0, 1]",right,1,524,20,m,y,y,2019_Apr_29_1357,2AFC_task,59.93809952679321,
stimuli/rgb_scene000102_render000000.png,stimuli/rgb_scene000102_render000005.png,1,107,317,130,"[1, 0]",left,1,524,20,m,y,y,2019_Apr_29_1357,2AFC_task,59.93809952679321,
stimuli/rgb_scene000102_render000001.png,stimuli/rgb_scene000102_render000003.png,1,108,318,133,"[1, 0]",left,1,524,20,m,y,y,2019_Apr_29_1357,2AFC_task,59.93809952679321,
stimuli/rgb_scene000095_render000002.png,stimuli/rgb_scene000095_render000005.png,1,109,319,97,"[0, 1]",right,1,524,20,m,y,y,2019_Apr_29_1357,2AFC_task,59.93809952679321,
stimuli/rgb_scene000012_render000001.png,stimuli/rgb_scene000012_render000002.png,1,110,320,48,"[1, 0]",left,1,524,20,m,y,y,2019_Apr_29_1357,2AFC_task,59.93809952679321,
stimuli/rgb_scene000012_render000002.png,stimuli/rgb_scene000012_render000005.png,1,111,321,55,"[1, 0]",left,1,524,20,m,y,y,2019_Apr_29_1357,2AFC_task,59.93809952679321,
stimuli/rgb_scene000102_render000002.png,stimuli/rgb_scene000102_render000005.png,1,112,322,139,"[0, 1]",right,1,524,20,m,y,y,2019_Apr_29_1357,2AFC_task,59.93809952679321,
stimuli/rgb_scene000090_render000002.png,stimuli/rgb_scene000090_render000006.png,1,113,323,77,"[0, 1]",right,1,524,20,m,y,y,2019_Apr_29_1357,2AFC_task,59.93809952679321,
stimuli/rgb_scene000146_render000000.png,stimuli/rgb_scene000146_render000001.png,1,114,324,168,"[1, 0]",left,1,524,20,m,y,y,2019_Apr_29_1357,2AFC_task,59.93809952679321,
stimuli/rgb_scene000090_render000003.png,stimuli/rgb_scene000090_render000004.png,1,115,325,78,"[0, 1]",right,1,524,20,m,y,y,2019_Apr_29_1357,2AFC_task,59.93809952679321,
stimuli/rgb_scene000012_render000002.png,stimuli/rgb_scene000012_render000003.png,1,116,326,53,"[1, 0]",left,1,524,20,m,y,y,2019_Apr_29_1357,2AFC_task,59.93809952679321,
stimuli/rgb_scene000004_render000003.png,stimuli/rgb_scene000004_render000005.png,1,117,327,16,"[0, 1]",right,1,524,20,m,y,y,2019_Apr_29_1357,2AFC_task,59.93809952679321,
stimuli/rgb_scene000102_render000000.png,stimuli/rgb_scene000102_render000001.png,1,118,328,126,"[1, 0]",left,1,524,20,m,y,y,2019_Apr_29_1357,2AFC_task,59.93809952679321,
stimuli/rgb_scene000004_render000003.png,stimuli/rgb_scene000004_render000004.png,1,119,329,15,"[1, 0]",left,1,524,20,m,y,y,2019_Apr_29_1357,2AFC_task,59.93809952679321,
stimuli/rgb_scene000004_render000001.png,stimuli/rgb_scene000004_render000006.png,1,120,330,10,"[1, 0]",left,1,524,20,m,y,y,2019_Apr_29_1357,2AFC_task,59.93809952679321,
stimuli/rgb_scene000195_render000002.png,stimuli/rgb_scene000195_render000004.png,1,121,331,201,"[1, 0]",left,1,524,20,m,y,y,2019_Apr_29_1357,2AFC_task,59.93809952679321,
stimuli/rgb_scene000195_render000001.png,stimuli/rgb_scene000195_render000004.png,1,122,332,197,"[1, 0]",left,1,524,20,m,y,y,2019_Apr_29_1357,2AFC_task,59.93809952679321,
stimuli/rgb_scene000195_render000000.png,stimuli/rgb_scene000195_render000003.png,1,123,333,191,"[0, 1]",right,1,524,20,m,y,y,2019_Apr_29_1357,2AFC_task,59.93809952679321,
stimuli/rgb_scene000195_render000000.png,stimuli/rgb_scene000195_render000005.png,1,124,334,193,"[1, 0]",left,1,524,20,m,y,y,2019_Apr_29_1357,2AFC_task,59.93809952679321,
stimuli/rgb_scene000095_render000003.png,stimuli/rgb_scene000095_render000004.png,1,125,335,99,"[1, 0]",left,1,524,20,m,y,y,2019_Apr_29_1357,2AFC_task,59.93809952679321,
stimuli/rgb_scene000096_render000000.png,stimuli/rgb_scene000096_render000002.png,1,126,336,106,"[0, 1]",right,1,524,20,m,y,y,2019_Apr_29_1357,2AFC_task,59.93809952679321,
stimuli/rgb_scene000004_render000001.png,stimuli/rgb_scene000004_render000002.png,1,127,337,6,"[0, 1]",right,1,524,20,m,y,y,2019_Apr_29_1357,2AFC_task,59.93809952679321,
stimuli/rgb_scene000095_render000002.png,stimuli/rgb_scene000095_render000006.png,1,128,338,98,"[1, 0]",left,1,524,20,m,y,y,2019_Apr_29_1357,2AFC_task,59.93809952679321,
stimuli/rgb_scene000004_render000002.png,stimuli/rgb_scene000004_render000003.png,1,129,339,11,"[0, 1]",right,1,524,20,m,y,y,2019_Apr_29_1357,2AFC_task,59.93809952679321,
stimuli/rgb_scene000102_render000002.png,stimuli/rgb_scene000102_render000006.png,1,130,340,140,"[0, 1]",right,1,524,20,m,y,y,2019_Apr_29_1357,2AFC_task,59.93809952679321,
stimuli/rgb_scene000113_render000003.png,stimuli/rgb_scene000113_render000004.png,1,131,341,162,"[0, 1]",right,1,524,20,m,y,y,2019_Apr_29_1357,2AFC_task,59.93809952679321,
stimuli/rgb_scene000004_render000000.png,stimuli/rgb_scene000004_render000003.png,1,132,342,2,"[0, 1]",right,1,524,20,m,y,y,2019_Apr_29_1357,2AFC_task,59.93809952679321,
stimuli/rgb_scene000095_render000001.png,stimuli/rgb_scene000095_render000006.png,1,133,343,94,"[1, 0]",left,1,524,20,m,y,y,2019_Apr_29_1357,2AFC_task,59.93809952679321,
stimuli/rgb_scene000012_render000000.png,stimuli/rgb_scene000012_render000001.png,1,134,344,42,"[1, 0]",left,1,524,20,m,y,y,2019_Apr_29_1357,2AFC_task,59.93809952679321,
stimuli/rgb_scene000012_render000000.png,stimuli/rgb_scene000012_render000006.png,1,135,345,47,"[0, 1]",right,1,524,20,m,y,y,2019_Apr_29_1357,2AFC_task,59.93809952679321,
stimuli/rgb_scene000113_render000001.png,stimuli/rgb_scene000113_render000004.png,1,136,346,155,"[1, 0]",left,1,524,20,m,y,y,2019_Apr_29_1357,2AFC_task,59.93809952679321,
stimuli/rgb_scene000195_render000002.png,stimuli/rgb_scene000195_render000005.png,1,137,347,202,"[1, 0]",left,1,524,20,m,y,y,2019_Apr_29_1357,2AFC_task,59.93809952679321,
stimuli/rgb_scene000004_render000002.png,stimuli/rgb_scene000004_render000004.png,1,138,348,12,"[0, 1]",right,1,524,20,m,y,y,2019_Apr_29_1357,2AFC_task,59.93809952679321,
stimuli/rgb_scene000113_render000000.png,stimuli/rgb_scene000113_render000005.png,1,139,349,151,"[0, 1]",right,1,524,20,m,y,y,2019_Apr_29_1357,2AFC_task,59.93809952679321,
stimuli/rgb_scene000005_render000001.png,stimuli/rgb_scene000005_render000006.png,1,140,350,31,"[0, 1]",right,1,524,20,m,y,y,2019_Apr_29_1357,2AFC_task,59.93809952679321,
stimuli/rgb_scene000095_render000003.png,stimuli/rgb_scene000095_render000006.png,1,141,351,101,"[1, 0]",left,1,524,20,m,y,y,2019_Apr_29_1357,2AFC_task,59.93809952679321,
stimuli/rgb_scene000096_render000002.png,stimuli/rgb_scene000096_render000004.png,1,142,352,117,"[0, 1]",right,1,524,20,m,y,y,2019_Apr_29_1357,2AFC_task,59.93809952679321,
stimuli/rgb_scene000012_render000002.png,stimuli/rgb_scene000012_render000006.png,1,143,353,56,"[0, 1]",right,1,524,20,m,y,y,2019_Apr_29_1357,2AFC_task,59.93809952679321,
stimuli/rgb_scene000146_render000004.png,stimuli/rgb_scene000146_render000006.png,1,144,354,187,"[0, 1]",right,1,524,20,m,y,y,2019_Apr_29_1357,2AFC_task,59.93809952679321,
stimuli/rgb_scene000090_render000002.png,stimuli/rgb_scene000090_render000003.png,1,145,355,74,"[1, 0]",left,1,524,20,m,y,y,2019_Apr_29_1357,2AFC_task,59.93809952679321,
stimuli/rgb_scene000146_render000003.png,stimuli/rgb_scene000146_render000005.png,1,146,356,184,"[0, 1]",right,1,524,20,m,y,y,2019_Apr_29_1357,2AFC_task,59.93809952679321,
stimuli/rgb_scene000095_render000000.png,stimuli/rgb_scene000095_render000001.png,1,147,357,84,"[1, 0]",left,1,524,20,m,y,y,2019_Apr_29_1357,2AFC_task,59.93809952679321,
stimuli/rgb_scene000146_render000002.png,stimuli/rgb_scene000146_render000005.png,1,148,358,181,"[1, 0]",left,1,524,20,m,y,y,2019_Apr_29_1357,2AFC_task,59.93809952679321,
stimuli/rgb_scene000102_render000001.png,stimuli/rgb_scene000102_render000005.png,1,149,359,135,"[0, 1]",right,1,524,20,m,y,y,2019_Apr_29_1357,2AFC_task,59.93809952679321,
stimuli/rgb_scene000102_render000000.png,stimuli/rgb_scene000102_render000006.png,1,150,360,131,"[1, 0]",left,1,524,20,m,y,y,2019_Apr_29_1357,2AFC_task,59.93809952679321,
stimuli/rgb_scene000005_render000004.png,stimuli/rgb_scene000005_render000006.png,1,151,361,40,"[0, 1]",left,0,524,20,m,y,y,2019_Apr_29_1357,2AFC_task,59.93809952679321,
stimuli/rgb_scene000102_render000000.png,stimuli/rgb_scene000102_render000002.png,1,152,362,127,"[1, 0]",left,1,524,20,m,y,y,2019_Apr_29_1357,2AFC_task,59.93809952679321,
stimuli/rgb_scene000113_render000001.png,stimuli/rgb_scene000113_render000003.png,1,153,363,154,"[1, 0]",left,1,524,20,m,y,y,2019_Apr_29_1357,2AFC_task,59.93809952679321,
stimuli/rgb_scene000004_render000004.png,stimuli/rgb_scene000004_render000006.png,1,154,364,19,"[0, 1]",right,1,524,20,m,y,y,2019_Apr_29_1357,2AFC_task,59.93809952679321,
stimuli/rgb_scene000096_render000000.png,stimuli/rgb_scene000096_render000006.png,1,155,365,110,"[0, 1]",right,1,524,20,m,y,y,2019_Apr_29_1357,2AFC_task,59.93809952679321,
stimuli/rgb_scene000113_render000001.png,stimuli/rgb_scene000113_render000006.png,1,156,366,157,"[0, 1]",right,1,524,20,m,y,y,2019_Apr_29_1357,2AFC_task,59.93809952679321,
stimuli/rgb_scene000095_render000001.png,stimuli/rgb_scene000095_render000002.png,1,157,367,90,"[1, 0]",left,1,524,20,m,y,y,2019_Apr_29_1357,2AFC_task,59.93809952679321,
stimuli/rgb_scene000004_render000000.png,stimuli/rgb_scene000004_render000002.png,1,158,368,1,"[0, 1]",right,1,524,20,m,y,y,2019_Apr_29_1357,2AFC_task,59.93809952679321,
stimuli/rgb_scene000005_render000002.png,stimuli/rgb_scene000005_render000006.png,1,159,369,35,"[1, 0]",left,1,524,20,m,y,y,2019_Apr_29_1357,2AFC_task,59.93809952679321,
stimuli/rgb_scene000146_render000002.png,stimuli/rgb_scene000146_render000006.png,1,160,370,182,"[0, 1]",right,1,524,20,m,y,y,2019_Apr_29_1357,2AFC_task,59.93809952679321,
stimuli/rgb_scene000090_render000004.png,stimuli/rgb_scene000090_render000006.png,1,161,371,82,"[0, 1]",left,0,524,20,m,y,y,2019_Apr_29_1357,2AFC_task,59.93809952679321,
stimuli/rgb_scene000113_render000000.png,stimuli/rgb_scene000113_render000004.png,1,162,372,150,"[0, 1]",right,1,524,20,m,y,y,2019_Apr_29_1357,2AFC_task,59.93809952679321,
stimuli/rgb_scene000096_render000001.png,stimuli/rgb_scene000096_render000003.png,1,163,373,112,"[1, 0]",left,1,524,20,m,y,y,2019_Apr_29_1357,2AFC_task,59.93809952679321,
stimuli/rgb_scene000195_render000003.png,stimuli/rgb_scene000195_render000004.png,1,164,374,204,"[0, 1]",right,1,524,20,m,y,y,2019_Apr_29_1357,2AFC_task,59.93809952679321,
stimuli/rgb_scene000095_render000005.png,stimuli/rgb_scene000095_render000006.png,1,165,375,104,"[1, 0]",left,1,524,20,m,y,y,2019_Apr_29_1357,2AFC_task,59.93809952679321,
stimuli/rgb_scene000004_render000000.png,stimuli/rgb_scene000004_render000001.png,1,166,376,0,"[1, 0]",left,1,524,20,m,y,y,2019_Apr_29_1357,2AFC_task,59.93809952679321,
stimuli/rgb_scene000102_render000000.png,stimuli/rgb_scene000102_render000004.png,1,167,377,129,"[1, 0]",left,1,524,20,m,y,y,2019_Apr_29_1357,2AFC_task,59.93809952679321,
stimuli/rgb_scene000095_render000001.png,stimuli/rgb_scene000095_render000003.png,1,168,378,91,"[0, 1]",right,1,524,20,m,y,y,2019_Apr_29_1357,2AFC_task,59.93809952679321,
stimuli/rgb_scene000004_render000002.png,stimuli/rgb_scene000004_render000005.png,1,169,379,13,"[1, 0]",left,1,524,20,m,y,y,2019_Apr_29_1357,2AFC_task,59.93809952679321,
stimuli/rgb_scene000005_render000000.png,stimuli/rgb_scene000005_render000003.png,1,170,380,23,"[0, 1]",right,1,524,20,m,y,y,2019_Apr_29_1357,2AFC_task,59.93809952679321,
stimuli/rgb_scene000113_render000003.png,stimuli/rgb_scene000113_render000006.png,1,171,381,164,"[0, 1]",left,0,524,20,m,y,y,2019_Apr_29_1357,2AFC_task,59.93809952679321,
stimuli/rgb_scene000102_render000001.png,stimuli/rgb_scene000102_render000002.png,1,172,382,132,"[0, 1]",right,1,524,20,m,y,y,2019_Apr_29_1357,2AFC_task,59.93809952679321,
stimuli/rgb_scene000096_render000005.png,stimuli/rgb_scene000096_render000006.png,1,173,383,125,"[1, 0]",left,1,524,20,m,y,y,2019_Apr_29_1357,2AFC_task,59.93809952679321,
stimuli/rgb_scene000095_render000000.png,stimuli/rgb_scene000095_render000004.png,1,174,384,87,"[0, 1]",right,1,524,20,m,y,y,2019_Apr_29_1357,2AFC_task,59.93809952679321,
stimuli/rgb_scene000090_render000001.png,stimuli/rgb_scene000090_render000005.png,1,175,385,72,"[0, 1]",right,1,524,20,m,y,y,2019_Apr_29_1357,2AFC_task,59.93809952679321,
stimuli/rgb_scene000012_render000001.png,stimuli/rgb_scene000012_render000003.png,1,176,386,49,"[0, 1]",right,1,524,20,m,y,y,2019_Apr_29_1357,2AFC_task,59.93809952679321,
stimuli/rgb_scene000102_render000004.png,stimuli/rgb_scene000102_render000006.png,1,177,387,145,"[0, 1]",left,0,524,20,m,y,y,2019_Apr_29_1357,2AFC_task,59.93809952679321,
stimuli/rgb_scene000096_render000000.png,stimuli/rgb_scene000096_render000003.png,1,178,388,107,"[1, 0]",left,1,524,20,m,y,y,2019_Apr_29_1357,2AFC_task,59.93809952679321,
stimuli/rgb_scene000012_render000000.png,stimuli/rgb_scene000012_render000002.png,1,179,389,43,"[0, 1]",right,1,524,20,m,y,y,2019_Apr_29_1357,2AFC_task,59.93809952679321,
stimuli/rgb_scene000195_render000005.png,stimuli/rgb_scene000195_render000006.png,1,180,390,209,"[1, 0]",right,0,524,20,m,y,y,2019_Apr_29_1357,2AFC_task,59.93809952679321,
stimuli/rgb_scene000102_render000004.png,stimuli/rgb_scene000102_render000005.png,1,181,391,144,"[1, 0]",left,1,524,20,m,y,y,2019_Apr_29_1357,2AFC_task,59.93809952679321,
stimuli/rgb_scene000012_render000003.png,stimuli/rgb_scene000012_render000006.png,1,182,392,59,"[1, 0]",left,1,524,20,m,y,y,2019_Apr_29_1357,2AFC_task,59.93809952679321,
stimuli/rgb_scene000004_render000004.png,stimuli/rgb_scene000004_render000005.png,1,183,393,18,"[1, 0]",right,0,524,20,m,y,y,2019_Apr_29_1357,2AFC_task,59.93809952679321,
stimuli/rgb_scene000096_render000002.png,stimuli/rgb_scene000096_render000006.png,1,184,394,119,"[1, 0]",left,1,524,20,m,y,y,2019_Apr_29_1357,2AFC_task,59.93809952679321,
stimuli/rgb_scene000005_render000001.png,stimuli/rgb_scene000005_render000002.png,1,185,395,27,"[1, 0]",left,1,524,20,m,y,y,2019_Apr_29_1357,2AFC_task,59.93809952679321,
stimuli/rgb_scene000004_render000001.png,stimuli/rgb_scene000004_render000004.png,1,186,396,8,"[0, 1]",right,1,524,20,m,y,y,2019_Apr_29_1357,2AFC_task,59.93809952679321,
stimuli/rgb_scene000195_render000003.png,stimuli/rgb_scene000195_render000006.png,1,187,397,206,"[0, 1]",left,0,524,20,m,y,y,2019_Apr_29_1357,2AFC_task,59.93809952679321,
stimuli/rgb_scene000004_render000000.png,stimuli/rgb_scene000004_render000004.png,1,188,398,3,"[1, 0]",left,1,524,20,m,y,y,2019_Apr_29_1357,2AFC_task,59.93809952679321,
stimuli/rgb_scene000090_render000000.png,stimuli/rgb_scene000090_render000005.png,1,189,399,67,"[0, 1]",right,1,524,20,m,y,y,2019_Apr_29_1357,2AFC_task,59.93809952679321,
stimuli/rgb_scene000113_render000000.png,stimuli/rgb_scene000113_render000003.png,1,190,400,149,"[0, 1]",right,1,524,20,m,y,y,2019_Apr_29_1357,2AFC_task,59.93809952679321,
stimuli/rgb_scene000096_render000001.png,stimuli/rgb_scene000096_render000005.png,1,191,401,114,"[1, 0]",left,1,524,20,m,y,y,2019_Apr_29_1357,2AFC_task,59.93809952679321,
stimuli/rgb_scene000096_render000003.png,stimuli/rgb_scene000096_render000004.png,1,192,402,120,"[1, 0]",left,1,524,20,m,y,y,2019_Apr_29_1357,2AFC_task,59.93809952679321,
stimuli/rgb_scene000146_render000001.png,stimuli/rgb_scene000146_render000005.png,1,193,403,177,"[1, 0]",left,1,524,20,m,y,y,2019_Apr_29_1357,2AFC_task,59.93809952679321,
stimuli/rgb_scene000102_render000002.png,stimuli/rgb_scene000102_render000003.png,1,194,404,137,"[0, 1]",right,1,524,20,m,y,y,2019_Apr_29_1357,2AFC_task,59.93809952679321,
stimuli/rgb_scene000090_render000004.png,stimuli/rgb_scene000090_render000005.png,1,195,405,81,"[1, 0]",left,1,524,20,m,y,y,2019_Apr_29_1357,2AFC_task,59.93809952679321,
stimuli/rgb_scene000102_render000002.png,stimuli/rgb_scene000102_render000004.png,1,196,406,138,"[1, 0]",left,1,524,20,m,y,y,2019_Apr_29_1357,2AFC_task,59.93809952679321,
stimuli/rgb_scene000113_render000002.png,stimuli/rgb_scene000113_render000003.png,1,197,407,158,"[0, 1]",right,1,524,20,m,y,y,2019_Apr_29_1357,2AFC_task,59.93809952679321,
stimuli/rgb_scene000095_render000004.png,stimuli/rgb_scene000095_render000006.png,1,198,408,103,"[1, 0]",left,1,524,20,m,y,y,2019_Apr_29_1357,2AFC_task,59.93809952679321,
stimuli/rgb_scene000113_render000005.png,stimuli/rgb_scene000113_render000006.png,1,199,409,167,"[0, 1]",left,0,524,20,m,y,y,2019_Apr_29_1357,2AFC_task,59.93809952679321,
stimuli/rgb_scene000090_render000003.png,stimuli/rgb_scene000090_render000005.png,1,200,410,79,"[0, 1]",left,0,524,20,m,y,y,2019_Apr_29_1357,2AFC_task,59.93809952679321,
stimuli/rgb_scene000090_render000003.png,stimuli/rgb_scene000090_render000006.png,1,201,411,80,"[1, 0]",right,0,524,20,m,y,y,2019_Apr_29_1357,2AFC_task,59.93809952679321,
stimuli/rgb_scene000095_render000003.png,stimuli/rgb_scene000095_render000005.png,1,202,412,100,"[0, 1]",right,1,524,20,m,y,y,2019_Apr_29_1357,2AFC_task,59.93809952679321,
stimuli/rgb_scene000095_render000000.png,stimuli/rgb_scene000095_render000003.png,1,203,413,86,"[0, 1]",right,1,524,20,m,y,y,2019_Apr_29_1357,2AFC_task,59.93809952679321,
stimuli/rgb_scene000146_render000003.png,stimuli/rgb_scene000146_render000004.png,1,204,414,183,"[1, 0]",left,1,524,20,m,y,y,2019_Apr_29_1357,2AFC_task,59.93809952679321,
stimuli/rgb_scene000012_render000005.png,stimuli/rgb_scene000012_render000006.png,1,205,415,62,"[1, 0]",right,0,524,20,m,y,y,2019_Apr_29_1357,2AFC_task,59.93809952679321,
stimuli/rgb_scene000096_render000001.png,stimuli/rgb_scene000096_render000002.png,1,206,416,111,"[0, 1]",right,1,524,20,m,y,y,2019_Apr_29_1357,2AFC_task,59.93809952679321,
stimuli/rgb_scene000102_render000001.png,stimuli/rgb_scene000102_render000004.png,1,207,417,134,"[0, 1]",right,1,524,20,m,y,y,2019_Apr_29_1357,2AFC_task,59.93809952679321,
stimuli/rgb_scene000005_render000003.png,stimuli/rgb_scene000005_render000006.png,1,208,418,38,"[0, 1]",left,0,524,20,m,y,y,2019_Apr_29_1357,2AFC_task,59.93809952679321,
stimuli/rgb_scene000102_render000003.png,stimuli/rgb_scene000102_render000005.png,1,209,419,142,"[1, 0]",left,1,524,20,m,y,y,2019_Apr_29_1357,2AFC_task,59.93809952679321,
