stimOne,stimTwo,trials_1.thisRepN,trials_1.thisTrialN,trials_1.thisN,trials_1.thisIndex,presentation_positions,resp_key,corresponding_image,participant ID (two digits, e.g. 01),age,gender (m/f/-),normal or corrected-to-normal vision (y/n),normal colour vision (y/n),date,expName,frameRate,
stimuli/rgb_scene000146_render000000.png,stimuli/rgb_scene000146_render000001.png,0,0,0,168,"[0, 1]",right,1,525,25,m,y,y,2019_Apr_30_1308,2AFC_task,59.905273823882204,
stimuli/rgb_scene000004_render000000.png,stimuli/rgb_scene000004_render000005.png,0,1,1,4,"[1, 0]",left,1,525,25,m,y,y,2019_Apr_30_1308,2AFC_task,59.905273823882204,
stimuli/rgb_scene000012_render000003.png,stimuli/rgb_scene000012_render000005.png,0,2,2,58,"[1, 0]",left,1,525,25,m,y,y,2019_Apr_30_1308,2AFC_task,59.905273823882204,
stimuli/rgb_scene000113_render000000.png,stimuli/rgb_scene000113_render000002.png,0,3,3,148,"[0, 1]",right,1,525,25,m,y,y,2019_Apr_30_1308,2AFC_task,59.905273823882204,
stimuli/rgb_scene000090_render000001.png,stimuli/rgb_scene000090_render000005.png,0,4,4,72,"[1, 0]",right,0,525,25,m,y,y,2019_Apr_30_1308,2AFC_task,59.905273823882204,
stimuli/rgb_scene000195_render000004.png,stimuli/rgb_scene000195_render000005.png,0,5,5,207,"[0, 1]",right,1,525,25,m,y,y,2019_Apr_30_1308,2AFC_task,59.905273823882204,
stimuli/rgb_scene000005_render000003.png,stimuli/rgb_scene000005_render000006.png,0,6,6,38,"[1, 0]",right,0,525,25,m,y,y,2019_Apr_30_1308,2AFC_task,59.905273823882204,
stimuli/rgb_scene000113_render000000.png,stimuli/rgb_scene000113_render000006.png,0,7,7,152,"[1, 0]",left,1,525,25,m,y,y,2019_Apr_30_1308,2AFC_task,59.905273823882204,
stimuli/rgb_scene000146_render000002.png,stimuli/rgb_scene000146_render000004.png,0,8,8,180,"[1, 0]",left,1,525,25,m,y,y,2019_Apr_30_1308,2AFC_task,59.905273823882204,
stimuli/rgb_scene000012_render000001.png,stimuli/rgb_scene000012_render000002.png,0,9,9,48,"[1, 0]",left,1,525,25,m,y,y,2019_Apr_30_1308,2AFC_task,59.905273823882204,
stimuli/rgb_scene000095_render000004.png,stimuli/rgb_scene000095_render000005.png,0,10,10,102,"[1, 0]",left,1,525,25,m,y,y,2019_Apr_30_1308,2AFC_task,59.905273823882204,
stimuli/rgb_scene000113_render000002.png,stimuli/rgb_scene000113_render000006.png,0,11,11,161,"[1, 0]",left,1,525,25,m,y,y,2019_Apr_30_1308,2AFC_task,59.905273823882204,
stimuli/rgb_scene000146_render000001.png,stimuli/rgb_scene000146_render000002.png,0,12,12,174,"[1, 0]",left,1,525,25,m,y,y,2019_Apr_30_1308,2AFC_task,59.905273823882204,
stimuli/rgb_scene000004_render000001.png,stimuli/rgb_scene000004_render000004.png,0,13,13,8,"[1, 0]",left,1,525,25,m,y,y,2019_Apr_30_1308,2AFC_task,59.905273823882204,
stimuli/rgb_scene000096_render000000.png,stimuli/rgb_scene000096_render000001.png,0,14,14,105,"[0, 1]",right,1,525,25,m,y,y,2019_Apr_30_1308,2AFC_task,59.905273823882204,
stimuli/rgb_scene000096_render000001.png,stimuli/rgb_scene000096_render000006.png,0,15,15,115,"[0, 1]",right,1,525,25,m,y,y,2019_Apr_30_1308,2AFC_task,59.905273823882204,
stimuli/rgb_scene000195_render000001.png,stimuli/rgb_scene000195_render000006.png,0,16,16,199,"[0, 1]",right,1,525,25,m,y,y,2019_Apr_30_1308,2AFC_task,59.905273823882204,
stimuli/rgb_scene000005_render000004.png,stimuli/rgb_scene000005_render000005.png,0,17,17,39,"[1, 0]",right,0,525,25,m,y,y,2019_Apr_30_1308,2AFC_task,59.905273823882204,
stimuli/rgb_scene000004_render000001.png,stimuli/rgb_scene000004_render000002.png,0,18,18,6,"[1, 0]",left,1,525,25,m,y,y,2019_Apr_30_1308,2AFC_task,59.905273823882204,
stimuli/rgb_scene000096_render000003.png,stimuli/rgb_scene000096_render000004.png,0,19,19,120,"[0, 1]",right,1,525,25,m,y,y,2019_Apr_30_1308,2AFC_task,59.905273823882204,
stimuli/rgb_scene000113_render000003.png,stimuli/rgb_scene000113_render000006.png,0,20,20,164,"[0, 1]",right,1,525,25,m,y,y,2019_Apr_30_1308,2AFC_task,59.905273823882204,
stimuli/rgb_scene000195_render000004.png,stimuli/rgb_scene000195_render000006.png,0,21,21,208,"[0, 1]",left,0,525,25,m,y,y,2019_Apr_30_1308,2AFC_task,59.905273823882204,
stimuli/rgb_scene000004_render000004.png,stimuli/rgb_scene000004_render000005.png,0,22,22,18,"[1, 0]",left,1,525,25,m,y,y,2019_Apr_30_1308,2AFC_task,59.905273823882204,
stimuli/rgb_scene000004_render000002.png,stimuli/rgb_scene000004_render000003.png,0,23,23,11,"[1, 0]",left,1,525,25,m,y,y,2019_Apr_30_1308,2AFC_task,59.905273823882204,
stimuli/rgb_scene000102_render000001.png,stimuli/rgb_scene000102_render000004.png,0,24,24,134,"[1, 0]",left,1,525,25,m,y,y,2019_Apr_30_1308,2AFC_task,59.905273823882204,
stimuli/rgb_scene000090_render000000.png,stimuli/rgb_scene000090_render000002.png,0,25,25,64,"[1, 0]",left,1,525,25,m,y,y,2019_Apr_30_1308,2AFC_task,59.905273823882204,
stimuli/rgb_scene000012_render000001.png,stimuli/rgb_scene000012_render000005.png,0,26,26,51,"[0, 1]",right,1,525,25,m,y,y,2019_Apr_30_1308,2AFC_task,59.905273823882204,
stimuli/rgb_scene000146_render000000.png,stimuli/rgb_scene000146_render000005.png,0,27,27,172,"[1, 0]",left,1,525,25,m,y,y,2019_Apr_30_1308,2AFC_task,59.905273823882204,
stimuli/rgb_scene000095_render000003.png,stimuli/rgb_scene000095_render000004.png,0,28,28,99,"[0, 1]",right,1,525,25,m,y,y,2019_Apr_30_1308,2AFC_task,59.905273823882204,
stimuli/rgb_scene000095_render000005.png,stimuli/rgb_scene000095_render000006.png,0,29,29,104,"[1, 0]",left,1,525,25,m,y,y,2019_Apr_30_1308,2AFC_task,59.905273823882204,
stimuli/rgb_scene000005_render000001.png,stimuli/rgb_scene000005_render000003.png,0,30,30,28,"[0, 1]",right,1,525,25,m,y,y,2019_Apr_30_1308,2AFC_task,59.905273823882204,
stimuli/rgb_scene000113_render000001.png,stimuli/rgb_scene000113_render000006.png,0,31,31,157,"[1, 0]",left,1,525,25,m,y,y,2019_Apr_30_1308,2AFC_task,59.905273823882204,
stimuli/rgb_scene000004_render000001.png,stimuli/rgb_scene000004_render000003.png,0,32,32,7,"[0, 1]",right,1,525,25,m,y,y,2019_Apr_30_1308,2AFC_task,59.905273823882204,
stimuli/rgb_scene000090_render000004.png,stimuli/rgb_scene000090_render000005.png,0,33,33,81,"[1, 0]",right,0,525,25,m,y,y,2019_Apr_30_1308,2AFC_task,59.905273823882204,
stimuli/rgb_scene000146_render000004.png,stimuli/rgb_scene000146_render000006.png,0,34,34,187,"[1, 0]",left,1,525,25,m,y,y,2019_Apr_30_1308,2AFC_task,59.905273823882204,
stimuli/rgb_scene000012_render000000.png,stimuli/rgb_scene000012_render000001.png,0,35,35,42,"[1, 0]",left,1,525,25,m,y,y,2019_Apr_30_1308,2AFC_task,59.905273823882204,
stimuli/rgb_scene000090_render000002.png,stimuli/rgb_scene000090_render000005.png,0,36,36,76,"[0, 1]",right,1,525,25,m,y,y,2019_Apr_30_1308,2AFC_task,59.905273823882204,
stimuli/rgb_scene000146_render000001.png,stimuli/rgb_scene000146_render000004.png,0,37,37,176,"[0, 1]",right,1,525,25,m,y,y,2019_Apr_30_1308,2AFC_task,59.905273823882204,
stimuli/rgb_scene000095_render000001.png,stimuli/rgb_scene000095_render000003.png,0,38,38,91,"[1, 0]",left,1,525,25,m,y,y,2019_Apr_30_1308,2AFC_task,59.905273823882204,
stimuli/rgb_scene000146_render000003.png,stimuli/rgb_scene000146_render000004.png,0,39,39,183,"[1, 0]",left,1,525,25,m,y,y,2019_Apr_30_1308,2AFC_task,59.905273823882204,
stimuli/rgb_scene000090_render000001.png,stimuli/rgb_scene000090_render000006.png,0,40,40,73,"[1, 0]",left,1,525,25,m,y,y,2019_Apr_30_1308,2AFC_task,59.905273823882204,
stimuli/rgb_scene000146_render000000.png,stimuli/rgb_scene000146_render000003.png,0,41,41,170,"[0, 1]",right,1,525,25,m,y,y,2019_Apr_30_1308,2AFC_task,59.905273823882204,
stimuli/rgb_scene000005_render000000.png,stimuli/rgb_scene000005_render000004.png,0,42,42,24,"[0, 1]",right,1,525,25,m,y,y,2019_Apr_30_1308,2AFC_task,59.905273823882204,
stimuli/rgb_scene000146_render000001.png,stimuli/rgb_scene000146_render000006.png,0,43,43,178,"[1, 0]",left,1,525,25,m,y,y,2019_Apr_30_1308,2AFC_task,59.905273823882204,
stimuli/rgb_scene000012_render000000.png,stimuli/rgb_scene000012_render000004.png,0,44,44,45,"[0, 1]",right,1,525,25,m,y,y,2019_Apr_30_1308,2AFC_task,59.905273823882204,
stimuli/rgb_scene000096_render000002.png,stimuli/rgb_scene000096_render000005.png,0,45,45,118,"[0, 1]",right,1,525,25,m,y,y,2019_Apr_30_1308,2AFC_task,59.905273823882204,
stimuli/rgb_scene000005_render000001.png,stimuli/rgb_scene000005_render000004.png,0,46,46,29,"[0, 1]",right,1,525,25,m,y,y,2019_Apr_30_1308,2AFC_task,59.905273823882204,
stimuli/rgb_scene000004_render000003.png,stimuli/rgb_scene000004_render000005.png,0,47,47,16,"[1, 0]",left,1,525,25,m,y,y,2019_Apr_30_1308,2AFC_task,59.905273823882204,
stimuli/rgb_scene000146_render000002.png,stimuli/rgb_scene000146_render000005.png,0,48,48,181,"[0, 1]",right,1,525,25,m,y,y,2019_Apr_30_1308,2AFC_task,59.905273823882204,
stimuli/rgb_scene000005_render000001.png,stimuli/rgb_scene000005_render000002.png,0,49,49,27,"[1, 0]",left,1,525,25,m,y,y,2019_Apr_30_1308,2AFC_task,59.905273823882204,
stimuli/rgb_scene000095_render000002.png,stimuli/rgb_scene000095_render000006.png,0,50,50,98,"[1, 0]",left,1,525,25,m,y,y,2019_Apr_30_1308,2AFC_task,59.905273823882204,
stimuli/rgb_scene000005_render000000.png,stimuli/rgb_scene000005_render000001.png,0,51,51,21,"[1, 0]",left,1,525,25,m,y,y,2019_Apr_30_1308,2AFC_task,59.905273823882204,
stimuli/rgb_scene000005_render000002.png,stimuli/rgb_scene000005_render000003.png,0,52,52,32,"[0, 1]",right,1,525,25,m,y,y,2019_Apr_30_1308,2AFC_task,59.905273823882204,
stimuli/rgb_scene000102_render000003.png,stimuli/rgb_scene000102_render000004.png,0,53,53,141,"[0, 1]",right,1,525,25,m,y,y,2019_Apr_30_1308,2AFC_task,59.905273823882204,
stimuli/rgb_scene000113_render000003.png,stimuli/rgb_scene000113_render000005.png,0,54,54,163,"[0, 1]",right,1,525,25,m,y,y,2019_Apr_30_1308,2AFC_task,59.905273823882204,
stimuli/rgb_scene000005_render000001.png,stimuli/rgb_scene000005_render000005.png,0,55,55,30,"[0, 1]",right,1,525,25,m,y,y,2019_Apr_30_1308,2AFC_task,59.905273823882204,
stimuli/rgb_scene000113_render000002.png,stimuli/rgb_scene000113_render000003.png,0,56,56,158,"[0, 1]",right,1,525,25,m,y,y,2019_Apr_30_1308,2AFC_task,59.905273823882204,
stimuli/rgb_scene000146_render000004.png,stimuli/rgb_scene000146_render000005.png,0,57,57,186,"[1, 0]",left,1,525,25,m,y,y,2019_Apr_30_1308,2AFC_task,59.905273823882204,
stimuli/rgb_scene000113_render000005.png,stimuli/rgb_scene000113_render000006.png,0,58,58,167,"[1, 0]",left,1,525,25,m,y,y,2019_Apr_30_1308,2AFC_task,59.905273823882204,
stimuli/rgb_scene000090_render000000.png,stimuli/rgb_scene000090_render000001.png,0,59,59,63,"[0, 1]",left,0,525,25,m,y,y,2019_Apr_30_1308,2AFC_task,59.905273823882204,
stimuli/rgb_scene000095_render000003.png,stimuli/rgb_scene000095_render000005.png,0,60,60,100,"[0, 1]",right,1,525,25,m,y,y,2019_Apr_30_1308,2AFC_task,59.905273823882204,
stimuli/rgb_scene000012_render000000.png,stimuli/rgb_scene000012_render000005.png,0,61,61,46,"[1, 0]",left,1,525,25,m,y,y,2019_Apr_30_1308,2AFC_task,59.905273823882204,
stimuli/rgb_scene000095_render000001.png,stimuli/rgb_scene000095_render000005.png,0,62,62,93,"[1, 0]",left,1,525,25,m,y,y,2019_Apr_30_1308,2AFC_task,59.905273823882204,
stimuli/rgb_scene000090_render000005.png,stimuli/rgb_scene000090_render000006.png,0,63,63,83,"[0, 1]",right,1,525,25,m,y,y,2019_Apr_30_1308,2AFC_task,59.905273823882204,
stimuli/rgb_scene000012_render000004.png,stimuli/rgb_scene000012_render000006.png,0,64,64,61,"[1, 0]",left,1,525,25,m,y,y,2019_Apr_30_1308,2AFC_task,59.905273823882204,
stimuli/rgb_scene000096_render000002.png,stimuli/rgb_scene000096_render000003.png,0,65,65,116,"[1, 0]",left,1,525,25,m,y,y,2019_Apr_30_1308,2AFC_task,59.905273823882204,
stimuli/rgb_scene000195_render000001.png,stimuli/rgb_scene000195_render000005.png,0,66,66,198,"[1, 0]",left,1,525,25,m,y,y,2019_Apr_30_1308,2AFC_task,59.905273823882204,
stimuli/rgb_scene000146_render000000.png,stimuli/rgb_scene000146_render000004.png,0,67,67,171,"[0, 1]",right,1,525,25,m,y,y,2019_Apr_30_1308,2AFC_task,59.905273823882204,
stimuli/rgb_scene000090_render000001.png,stimuli/rgb_scene000090_render000004.png,0,68,68,71,"[0, 1]",right,1,525,25,m,y,y,2019_Apr_30_1308,2AFC_task,59.905273823882204,
stimuli/rgb_scene000095_render000000.png,stimuli/rgb_scene000095_render000003.png,0,69,69,86,"[0, 1]",right,1,525,25,m,y,y,2019_Apr_30_1308,2AFC_task,59.905273823882204,
stimuli/rgb_scene000004_render000004.png,stimuli/rgb_scene000004_render000006.png,0,70,70,19,"[1, 0]",left,1,525,25,m,y,y,2019_Apr_30_1308,2AFC_task,59.905273823882204,
stimuli/rgb_scene000113_render000000.png,stimuli/rgb_scene000113_render000001.png,0,71,71,147,"[0, 1]",right,1,525,25,m,y,y,2019_Apr_30_1308,2AFC_task,59.905273823882204,
stimuli/rgb_scene000096_render000004.png,stimuli/rgb_scene000096_render000006.png,0,72,72,124,"[1, 0]",left,1,525,25,m,y,y,2019_Apr_30_1308,2AFC_task,59.905273823882204,
stimuli/rgb_scene000195_render000005.png,stimuli/rgb_scene000195_render000006.png,0,73,73,209,"[0, 1]",left,0,525,25,m,y,y,2019_Apr_30_1308,2AFC_task,59.905273823882204,
stimuli/rgb_scene000090_render000003.png,stimuli/rgb_scene000090_render000005.png,0,74,74,79,"[0, 1]",left,0,525,25,m,y,y,2019_Apr_30_1308,2AFC_task,59.905273823882204,
stimuli/rgb_scene000004_render000002.png,stimuli/rgb_scene000004_render000006.png,0,75,75,14,"[1, 0]",left,1,525,25,m,y,y,2019_Apr_30_1308,2AFC_task,59.905273823882204,
stimuli/rgb_scene000102_render000002.png,stimuli/rgb_scene000102_render000006.png,0,76,76,140,"[1, 0]",left,1,525,25,m,y,y,2019_Apr_30_1308,2AFC_task,59.905273823882204,
stimuli/rgb_scene000004_render000001.png,stimuli/rgb_scene000004_render000006.png,0,77,77,10,"[1, 0]",left,1,525,25,m,y,y,2019_Apr_30_1308,2AFC_task,59.905273823882204,
stimuli/rgb_scene000195_render000002.png,stimuli/rgb_scene000195_render000003.png,0,78,78,200,"[1, 0]",left,1,525,25,m,y,y,2019_Apr_30_1308,2AFC_task,59.905273823882204,
stimuli/rgb_scene000146_render000001.png,stimuli/rgb_scene000146_render000003.png,0,79,79,175,"[0, 1]",right,1,525,25,m,y,y,2019_Apr_30_1308,2AFC_task,59.905273823882204,
stimuli/rgb_scene000102_render000002.png,stimuli/rgb_scene000102_render000005.png,0,80,80,139,"[0, 1]",right,1,525,25,m,y,y,2019_Apr_30_1308,2AFC_task,59.905273823882204,
stimuli/rgb_scene000005_render000002.png,stimuli/rgb_scene000005_render000004.png,0,81,81,33,"[0, 1]",right,1,525,25,m,y,y,2019_Apr_30_1308,2AFC_task,59.905273823882204,
stimuli/rgb_scene000195_render000002.png,stimuli/rgb_scene000195_render000005.png,0,82,82,202,"[0, 1]",right,1,525,25,m,y,y,2019_Apr_30_1308,2AFC_task,59.905273823882204,
stimuli/rgb_scene000096_render000005.png,stimuli/rgb_scene000096_render000006.png,0,83,83,125,"[1, 0]",left,1,525,25,m,y,y,2019_Apr_30_1308,2AFC_task,59.905273823882204,
stimuli/rgb_scene000090_render000001.png,stimuli/rgb_scene000090_render000003.png,0,84,84,70,"[0, 1]",right,1,525,25,m,y,y,2019_Apr_30_1308,2AFC_task,59.905273823882204,
stimuli/rgb_scene000012_render000002.png,stimuli/rgb_scene000012_render000005.png,0,85,85,55,"[0, 1]",right,1,525,25,m,y,y,2019_Apr_30_1308,2AFC_task,59.905273823882204,
stimuli/rgb_scene000096_render000001.png,stimuli/rgb_scene000096_render000005.png,0,86,86,114,"[0, 1]",right,1,525,25,m,y,y,2019_Apr_30_1308,2AFC_task,59.905273823882204,
stimuli/rgb_scene000012_render000000.png,stimuli/rgb_scene000012_render000006.png,0,87,87,47,"[1, 0]",left,1,525,25,m,y,y,2019_Apr_30_1308,2AFC_task,59.905273823882204,
stimuli/rgb_scene000096_render000000.png,stimuli/rgb_scene000096_render000004.png,0,88,88,108,"[0, 1]",right,1,525,25,m,y,y,2019_Apr_30_1308,2AFC_task,59.905273823882204,
stimuli/rgb_scene000113_render000001.png,stimuli/rgb_scene000113_render000002.png,0,89,89,153,"[1, 0]",left,1,525,25,m,y,y,2019_Apr_30_1308,2AFC_task,59.905273823882204,
stimuli/rgb_scene000195_render000003.png,stimuli/rgb_scene000195_render000005.png,0,90,90,205,"[1, 0]",right,0,525,25,m,y,y,2019_Apr_30_1308,2AFC_task,59.905273823882204,
stimuli/rgb_scene000005_render000000.png,stimuli/rgb_scene000005_render000003.png,0,91,91,23,"[1, 0]",left,1,525,25,m,y,y,2019_Apr_30_1308,2AFC_task,59.905273823882204,
stimuli/rgb_scene000090_render000000.png,stimuli/rgb_scene000090_render000004.png,0,92,92,66,"[1, 0]",right,0,525,25,m,y,y,2019_Apr_30_1308,2AFC_task,59.905273823882204,
stimuli/rgb_scene000096_render000001.png,stimuli/rgb_scene000096_render000003.png,0,93,93,112,"[1, 0]",left,1,525,25,m,y,y,2019_Apr_30_1308,2AFC_task,59.905273823882204,
stimuli/rgb_scene000004_render000000.png,stimuli/rgb_scene000004_render000006.png,0,94,94,5,"[1, 0]",left,1,525,25,m,y,y,2019_Apr_30_1308,2AFC_task,59.905273823882204,
stimuli/rgb_scene000102_render000002.png,stimuli/rgb_scene000102_render000003.png,0,95,95,137,"[0, 1]",right,1,525,25,m,y,y,2019_Apr_30_1308,2AFC_task,59.905273823882204,
stimuli/rgb_scene000004_render000000.png,stimuli/rgb_scene000004_render000002.png,0,96,96,1,"[0, 1]",right,1,525,25,m,y,y,2019_Apr_30_1308,2AFC_task,59.905273823882204,
stimuli/rgb_scene000090_render000000.png,stimuli/rgb_scene000090_render000003.png,0,97,97,65,"[1, 0]",right,0,525,25,m,y,y,2019_Apr_30_1308,2AFC_task,59.905273823882204,
stimuli/rgb_scene000095_render000000.png,stimuli/rgb_scene000095_render000004.png,0,98,98,87,"[1, 0]",left,1,525,25,m,y,y,2019_Apr_30_1308,2AFC_task,59.905273823882204,
stimuli/rgb_scene000090_render000003.png,stimuli/rgb_scene000090_render000004.png,0,99,99,78,"[0, 1]",right,1,525,25,m,y,y,2019_Apr_30_1308,2AFC_task,59.905273823882204,
stimuli/rgb_scene000012_render000002.png,stimuli/rgb_scene000012_render000003.png,0,100,100,53,"[0, 1]",right,1,525,25,m,y,y,2019_Apr_30_1308,2AFC_task,59.905273823882204,
stimuli/rgb_scene000012_render000001.png,stimuli/rgb_scene000012_render000003.png,0,101,101,49,"[0, 1]",right,1,525,25,m,y,y,2019_Apr_30_1308,2AFC_task,59.905273823882204,
stimuli/rgb_scene000090_render000000.png,stimuli/rgb_scene000090_render000005.png,0,102,102,67,"[0, 1]",left,0,525,25,m,y,y,2019_Apr_30_1308,2AFC_task,59.905273823882204,
stimuli/rgb_scene000195_render000003.png,stimuli/rgb_scene000195_render000004.png,0,103,103,204,"[1, 0]",right,0,525,25,m,y,y,2019_Apr_30_1308,2AFC_task,59.905273823882204,
stimuli/rgb_scene000095_render000001.png,stimuli/rgb_scene000095_render000002.png,0,104,104,90,"[0, 1]",right,1,525,25,m,y,y,2019_Apr_30_1308,2AFC_task,59.905273823882204,
stimuli/rgb_scene000004_render000002.png,stimuli/rgb_scene000004_render000004.png,0,105,105,12,"[0, 1]",right,1,525,25,m,y,y,2019_Apr_30_1308,2AFC_task,59.905273823882204,
stimuli/rgb_scene000004_render000001.png,stimuli/rgb_scene000004_render000005.png,0,106,106,9,"[1, 0]",left,1,525,25,m,y,y,2019_Apr_30_1308,2AFC_task,59.905273823882204,
stimuli/rgb_scene000195_render000000.png,stimuli/rgb_scene000195_render000001.png,0,107,107,189,"[1, 0]",left,1,525,25,m,y,y,2019_Apr_30_1308,2AFC_task,59.905273823882204,
stimuli/rgb_scene000113_render000004.png,stimuli/rgb_scene000113_render000005.png,0,108,108,165,"[1, 0]",left,1,525,25,m,y,y,2019_Apr_30_1308,2AFC_task,59.905273823882204,
stimuli/rgb_scene000113_render000001.png,stimuli/rgb_scene000113_render000004.png,0,109,109,155,"[0, 1]",right,1,525,25,m,y,y,2019_Apr_30_1308,2AFC_task,59.905273823882204,
stimuli/rgb_scene000095_render000002.png,stimuli/rgb_scene000095_render000004.png,0,110,110,96,"[0, 1]",right,1,525,25,m,y,y,2019_Apr_30_1308,2AFC_task,59.905273823882204,
stimuli/rgb_scene000096_render000001.png,stimuli/rgb_scene000096_render000004.png,0,111,111,113,"[0, 1]",right,1,525,25,m,y,y,2019_Apr_30_1308,2AFC_task,59.905273823882204,
stimuli/rgb_scene000095_render000000.png,stimuli/rgb_scene000095_render000001.png,0,112,112,84,"[0, 1]",right,1,525,25,m,y,y,2019_Apr_30_1308,2AFC_task,59.905273823882204,
stimuli/rgb_scene000012_render000001.png,stimuli/rgb_scene000012_render000004.png,0,113,113,50,"[0, 1]",right,1,525,25,m,y,y,2019_Apr_30_1308,2AFC_task,59.905273823882204,
stimuli/rgb_scene000090_render000004.png,stimuli/rgb_scene000090_render000006.png,0,114,114,82,"[1, 0]",left,1,525,25,m,y,y,2019_Apr_30_1308,2AFC_task,59.905273823882204,
stimuli/rgb_scene000090_render000002.png,stimuli/rgb_scene000090_render000003.png,0,115,115,74,"[0, 1]",right,1,525,25,m,y,y,2019_Apr_30_1308,2AFC_task,59.905273823882204,
stimuli/rgb_scene000005_render000002.png,stimuli/rgb_scene000005_render000005.png,0,116,116,34,"[0, 1]",right,1,525,25,m,y,y,2019_Apr_30_1308,2AFC_task,59.905273823882204,
stimuli/rgb_scene000113_render000002.png,stimuli/rgb_scene000113_render000005.png,0,117,117,160,"[0, 1]",right,1,525,25,m,y,y,2019_Apr_30_1308,2AFC_task,59.905273823882204,
stimuli/rgb_scene000195_render000000.png,stimuli/rgb_scene000195_render000004.png,0,118,118,192,"[1, 0]",left,1,525,25,m,y,y,2019_Apr_30_1308,2AFC_task,59.905273823882204,
stimuli/rgb_scene000102_render000000.png,stimuli/rgb_scene000102_render000001.png,0,119,119,126,"[0, 1]",right,1,525,25,m,y,y,2019_Apr_30_1308,2AFC_task,59.905273823882204,
stimuli/rgb_scene000012_render000004.png,stimuli/rgb_scene000012_render000005.png,0,120,120,60,"[0, 1]",right,1,525,25,m,y,y,2019_Apr_30_1308,2AFC_task,59.905273823882204,
stimuli/rgb_scene000004_render000000.png,stimuli/rgb_scene000004_render000004.png,0,121,121,3,"[1, 0]",left,1,525,25,m,y,y,2019_Apr_30_1308,2AFC_task,59.905273823882204,
stimuli/rgb_scene000012_render000000.png,stimuli/rgb_scene000012_render000003.png,0,122,122,44,"[1, 0]",left,1,525,25,m,y,y,2019_Apr_30_1308,2AFC_task,59.905273823882204,
stimuli/rgb_scene000146_render000001.png,stimuli/rgb_scene000146_render000005.png,0,123,123,177,"[0, 1]",right,1,525,25,m,y,y,2019_Apr_30_1308,2AFC_task,59.905273823882204,
stimuli/rgb_scene000146_render000003.png,stimuli/rgb_scene000146_render000006.png,0,124,124,185,"[1, 0]",left,1,525,25,m,y,y,2019_Apr_30_1308,2AFC_task,59.905273823882204,
stimuli/rgb_scene000195_render000000.png,stimuli/rgb_scene000195_render000005.png,0,125,125,193,"[0, 1]",right,1,525,25,m,y,y,2019_Apr_30_1308,2AFC_task,59.905273823882204,
stimuli/rgb_scene000096_render000002.png,stimuli/rgb_scene000096_render000006.png,0,126,126,119,"[1, 0]",left,1,525,25,m,y,y,2019_Apr_30_1308,2AFC_task,59.905273823882204,
stimuli/rgb_scene000146_render000005.png,stimuli/rgb_scene000146_render000006.png,0,127,127,188,"[1, 0]",left,1,525,25,m,y,y,2019_Apr_30_1308,2AFC_task,59.905273823882204,
stimuli/rgb_scene000004_render000003.png,stimuli/rgb_scene000004_render000006.png,0,128,128,17,"[1, 0]",left,1,525,25,m,y,y,2019_Apr_30_1308,2AFC_task,59.905273823882204,
stimuli/rgb_scene000102_render000000.png,stimuli/rgb_scene000102_render000002.png,0,129,129,127,"[1, 0]",left,1,525,25,m,y,y,2019_Apr_30_1308,2AFC_task,59.905273823882204,
stimuli/rgb_scene000005_render000001.png,stimuli/rgb_scene000005_render000006.png,0,130,130,31,"[1, 0]",left,1,525,25,m,y,y,2019_Apr_30_1308,2AFC_task,59.905273823882204,
stimuli/rgb_scene000095_render000004.png,stimuli/rgb_scene000095_render000006.png,0,131,131,103,"[1, 0]",left,1,525,25,m,y,y,2019_Apr_30_1308,2AFC_task,59.905273823882204,
stimuli/rgb_scene000113_render000000.png,stimuli/rgb_scene000113_render000003.png,0,132,132,149,"[1, 0]",left,1,525,25,m,y,y,2019_Apr_30_1308,2AFC_task,59.905273823882204,
stimuli/rgb_scene000012_render000003.png,stimuli/rgb_scene000012_render000004.png,0,133,133,57,"[1, 0]",left,1,525,25,m,y,y,2019_Apr_30_1308,2AFC_task,59.905273823882204,
stimuli/rgb_scene000004_render000000.png,stimuli/rgb_scene000004_render000003.png,0,134,134,2,"[1, 0]",left,1,525,25,m,y,y,2019_Apr_30_1308,2AFC_task,59.905273823882204,
stimuli/rgb_scene000005_render000004.png,stimuli/rgb_scene000005_render000006.png,0,135,135,40,"[0, 1]",left,0,525,25,m,y,y,2019_Apr_30_1308,2AFC_task,59.905273823882204,
stimuli/rgb_scene000095_render000001.png,stimuli/rgb_scene000095_render000004.png,0,136,136,92,"[1, 0]",left,1,525,25,m,y,y,2019_Apr_30_1308,2AFC_task,59.905273823882204,
stimuli/rgb_scene000113_render000004.png,stimuli/rgb_scene000113_render000006.png,0,137,137,166,"[1, 0]",left,1,525,25,m,y,y,2019_Apr_30_1308,2AFC_task,59.905273823882204,
stimuli/rgb_scene000005_render000003.png,stimuli/rgb_scene000005_render000005.png,0,138,138,37,"[0, 1]",left,0,525,25,m,y,y,2019_Apr_30_1308,2AFC_task,59.905273823882204,
stimuli/rgb_scene000012_render000005.png,stimuli/rgb_scene000012_render000006.png,0,139,139,62,"[0, 1]",right,1,525,25,m,y,y,2019_Apr_30_1308,2AFC_task,59.905273823882204,
stimuli/rgb_scene000005_render000000.png,stimuli/rgb_scene000005_render000002.png,0,140,140,22,"[1, 0]",left,1,525,25,m,y,y,2019_Apr_30_1308,2AFC_task,59.905273823882204,
stimuli/rgb_scene000102_render000005.png,stimuli/rgb_scene000102_render000006.png,0,141,141,146,"[0, 1]",right,1,525,25,m,y,y,2019_Apr_30_1308,2AFC_task,59.905273823882204,
stimuli/rgb_scene000005_render000000.png,stimuli/rgb_scene000005_render000005.png,0,142,142,25,"[1, 0]",left,1,525,25,m,y,y,2019_Apr_30_1308,2AFC_task,59.905273823882204,
stimuli/rgb_scene000090_render000001.png,stimuli/rgb_scene000090_render000002.png,0,143,143,69,"[1, 0]",right,0,525,25,m,y,y,2019_Apr_30_1308,2AFC_task,59.905273823882204,
stimuli/rgb_scene000095_render000000.png,stimuli/rgb_scene000095_render000006.png,0,144,144,89,"[1, 0]",left,1,525,25,m,y,y,2019_Apr_30_1308,2AFC_task,59.905273823882204,
stimuli/rgb_scene000146_render000003.png,stimuli/rgb_scene000146_render000005.png,0,145,145,184,"[1, 0]",left,1,525,25,m,y,y,2019_Apr_30_1308,2AFC_task,59.905273823882204,
stimuli/rgb_scene000090_render000000.png,stimuli/rgb_scene000090_render000006.png,0,146,146,68,"[1, 0]",left,1,525,25,m,y,y,2019_Apr_30_1308,2AFC_task,59.905273823882204,
stimuli/rgb_scene000102_render000004.png,stimuli/rgb_scene000102_render000006.png,0,147,147,145,"[0, 1]",right,1,525,25,m,y,y,2019_Apr_30_1308,2AFC_task,59.905273823882204,
stimuli/rgb_scene000096_render000000.png,stimuli/rgb_scene000096_render000006.png,0,148,148,110,"[0, 1]",right,1,525,25,m,y,y,2019_Apr_30_1308,2AFC_task,59.905273823882204,
stimuli/rgb_scene000012_render000002.png,stimuli/rgb_scene000012_render000006.png,0,149,149,56,"[1, 0]",left,1,525,25,m,y,y,2019_Apr_30_1308,2AFC_task,59.905273823882204,
stimuli/rgb_scene000004_render000000.png,stimuli/rgb_scene000004_render000001.png,0,150,150,0,"[0, 1]",right,1,525,25,m,y,y,2019_Apr_30_1308,2AFC_task,59.905273823882204,
stimuli/rgb_scene000113_render000001.png,stimuli/rgb_scene000113_render000003.png,0,151,151,154,"[0, 1]",right,1,525,25,m,y,y,2019_Apr_30_1308,2AFC_task,59.905273823882204,
stimuli/rgb_scene000195_render000002.png,stimuli/rgb_scene000195_render000004.png,0,152,152,201,"[0, 1]",right,1,525,25,m,y,y,2019_Apr_30_1308,2AFC_task,59.905273823882204,
stimuli/rgb_scene000004_render000005.png,stimuli/rgb_scene000004_render000006.png,0,153,153,20,"[1, 0]",left,1,525,25,m,y,y,2019_Apr_30_1308,2AFC_task,59.905273823882204,
stimuli/rgb_scene000096_render000003.png,stimuli/rgb_scene000096_render000005.png,0,154,154,121,"[1, 0]",left,1,525,25,m,y,y,2019_Apr_30_1308,2AFC_task,59.905273823882204,
stimuli/rgb_scene000195_render000000.png,stimuli/rgb_scene000195_render000003.png,0,155,155,191,"[0, 1]",right,1,525,25,m,y,y,2019_Apr_30_1308,2AFC_task,59.905273823882204,
stimuli/rgb_scene000195_render000001.png,stimuli/rgb_scene000195_render000002.png,0,156,156,195,"[0, 1]",right,1,525,25,m,y,y,2019_Apr_30_1308,2AFC_task,59.905273823882204,
stimuli/rgb_scene000102_render000003.png,stimuli/rgb_scene000102_render000005.png,0,157,157,142,"[1, 0]",left,1,525,25,m,y,y,2019_Apr_30_1308,2AFC_task,59.905273823882204,
stimuli/rgb_scene000113_render000000.png,stimuli/rgb_scene000113_render000004.png,0,158,158,150,"[0, 1]",right,1,525,25,m,y,y,2019_Apr_30_1308,2AFC_task,59.905273823882204,
stimuli/rgb_scene000095_render000002.png,stimuli/rgb_scene000095_render000003.png,0,159,159,95,"[0, 1]",right,1,525,25,m,y,y,2019_Apr_30_1308,2AFC_task,59.905273823882204,
stimuli/rgb_scene000095_render000001.png,stimuli/rgb_scene000095_render000006.png,0,160,160,94,"[1, 0]",left,1,525,25,m,y,y,2019_Apr_30_1308,2AFC_task,59.905273823882204,
stimuli/rgb_scene000195_render000001.png,stimuli/rgb_scene000195_render000003.png,0,161,161,196,"[1, 0]",left,1,525,25,m,y,y,2019_Apr_30_1308,2AFC_task,59.905273823882204,
stimuli/rgb_scene000096_render000003.png,stimuli/rgb_scene000096_render000006.png,0,162,162,122,"[1, 0]",left,1,525,25,m,y,y,2019_Apr_30_1308,2AFC_task,59.905273823882204,
stimuli/rgb_scene000005_render000005.png,stimuli/rgb_scene000005_render000006.png,0,163,163,41,"[0, 1]",left,0,525,25,m,y,y,2019_Apr_30_1308,2AFC_task,59.905273823882204,
stimuli/rgb_scene000146_render000000.png,stimuli/rgb_scene000146_render000006.png,0,164,164,173,"[0, 1]",right,1,525,25,m,y,y,2019_Apr_30_1308,2AFC_task,59.905273823882204,
stimuli/rgb_scene000096_render000000.png,stimuli/rgb_scene000096_render000002.png,0,165,165,106,"[0, 1]",right,1,525,25,m,y,y,2019_Apr_30_1308,2AFC_task,59.905273823882204,
stimuli/rgb_scene000146_render000002.png,stimuli/rgb_scene000146_render000006.png,0,166,166,182,"[0, 1]",right,1,525,25,m,y,y,2019_Apr_30_1308,2AFC_task,59.905273823882204,
stimuli/rgb_scene000004_render000002.png,stimuli/rgb_scene000004_render000005.png,0,167,167,13,"[1, 0]",left,1,525,25,m,y,y,2019_Apr_30_1308,2AFC_task,59.905273823882204,
stimuli/rgb_scene000102_render000003.png,stimuli/rgb_scene000102_render000006.png,0,168,168,143,"[0, 1]",right,1,525,25,m,y,y,2019_Apr_30_1308,2AFC_task,59.905273823882204,
stimuli/rgb_scene000195_render000000.png,stimuli/rgb_scene000195_render000002.png,0,169,169,190,"[1, 0]",left,1,525,25,m,y,y,2019_Apr_30_1308,2AFC_task,59.905273823882204,
stimuli/rgb_scene000102_render000001.png,stimuli/rgb_scene000102_render000003.png,0,170,170,133,"[0, 1]",right,1,525,25,m,y,y,2019_Apr_30_1308,2AFC_task,59.905273823882204,
stimuli/rgb_scene000102_render000000.png,stimuli/rgb_scene000102_render000003.png,0,171,171,128,"[0, 1]",right,1,525,25,m,y,y,2019_Apr_30_1308,2AFC_task,59.905273823882204,
stimuli/rgb_scene000095_render000003.png,stimuli/rgb_scene000095_render000006.png,0,172,172,101,"[1, 0]",left,1,525,25,m,y,y,2019_Apr_30_1308,2AFC_task,59.905273823882204,
stimuli/rgb_scene000096_render000000.png,stimuli/rgb_scene000096_render000003.png,0,173,173,107,"[1, 0]",left,1,525,25,m,y,y,2019_Apr_30_1308,2AFC_task,59.905273823882204,
stimuli/rgb_scene000096_render000004.png,stimuli/rgb_scene000096_render000005.png,0,174,174,123,"[1, 0]",left,1,525,25,m,y,y,2019_Apr_30_1308,2AFC_task,59.905273823882204,
stimuli/rgb_scene000004_render000003.png,stimuli/rgb_scene000004_render000004.png,0,175,175,15,"[0, 1]",right,1,525,25,m,y,y,2019_Apr_30_1308,2AFC_task,59.905273823882204,
stimuli/rgb_scene000090_render000002.png,stimuli/rgb_scene000090_render000006.png,0,176,176,77,"[1, 0]",left,1,525,25,m,y,y,2019_Apr_30_1308,2AFC_task,59.905273823882204,
stimuli/rgb_scene000195_render000002.png,stimuli/rgb_scene000195_render000006.png,0,177,177,203,"[0, 1]",right,1,525,25,m,y,y,2019_Apr_30_1308,2AFC_task,59.905273823882204,
stimuli/rgb_scene000195_render000001.png,stimuli/rgb_scene000195_render000004.png,0,178,178,197,"[1, 0]",left,1,525,25,m,y,y,2019_Apr_30_1308,2AFC_task,59.905273823882204,
stimuli/rgb_scene000102_render000001.png,stimuli/rgb_scene000102_render000005.png,0,179,179,135,"[0, 1]",right,1,525,25,m,y,y,2019_Apr_30_1308,2AFC_task,59.905273823882204,
stimuli/rgb_scene000005_render000003.png,stimuli/rgb_scene000005_render000004.png,0,180,180,36,"[0, 1]",left,0,525,25,m,y,y,2019_Apr_30_1308,2AFC_task,59.905273823882204,
stimuli/rgb_scene000095_render000002.png,stimuli/rgb_scene000095_render000005.png,0,181,181,97,"[0, 1]",right,1,525,25,m,y,y,2019_Apr_30_1308,2AFC_task,59.905273823882204,
stimuli/rgb_scene000146_render000000.png,stimuli/rgb_scene000146_render000002.png,0,182,182,169,"[1, 0]",left,1,525,25,m,y,y,2019_Apr_30_1308,2AFC_task,59.905273823882204,
stimuli/rgb_scene000113_render000001.png,stimuli/rgb_scene000113_render000005.png,0,183,183,156,"[1, 0]",left,1,525,25,m,y,y,2019_Apr_30_1308,2AFC_task,59.905273823882204,
stimuli/rgb_scene000005_render000000.png,stimuli/rgb_scene000005_render000006.png,0,184,184,26,"[1, 0]",left,1,525,25,m,y,y,2019_Apr_30_1308,2AFC_task,59.905273823882204,
stimuli/rgb_scene000090_render000002.png,stimuli/rgb_scene000090_render000004.png,0,185,185,75,"[0, 1]",right,1,525,25,m,y,y,2019_Apr_30_1308,2AFC_task,59.905273823882204,
stimuli/rgb_scene000012_render000001.png,stimuli/rgb_scene000012_render000006.png,0,186,186,52,"[1, 0]",left,1,525,25,m,y,y,2019_Apr_30_1308,2AFC_task,59.905273823882204,
stimuli/rgb_scene000102_render000000.png,stimuli/rgb_scene000102_render000004.png,0,187,187,129,"[0, 1]",right,1,525,25,m,y,y,2019_Apr_30_1308,2AFC_task,59.905273823882204,
stimuli/rgb_scene000096_render000001.png,stimuli/rgb_scene000096_render000002.png,0,188,188,111,"[0, 1]",left,0,525,25,m,y,y,2019_Apr_30_1308,2AFC_task,59.905273823882204,
stimuli/rgb_scene000113_render000002.png,stimuli/rgb_scene000113_render000004.png,0,189,189,159,"[1, 0]",left,1,525,25,m,y,y,2019_Apr_30_1308,2AFC_task,59.905273823882204,
stimuli/rgb_scene000096_render000002.png,stimuli/rgb_scene000096_render000004.png,0,190,190,117,"[0, 1]",right,1,525,25,m,y,y,2019_Apr_30_1308,2AFC_task,59.905273823882204,
stimuli/rgb_scene000012_render000003.png,stimuli/rgb_scene000012_render000006.png,0,191,191,59,"[0, 1]",right,1,525,25,m,y,y,2019_Apr_30_1308,2AFC_task,59.905273823882204,
stimuli/rgb_scene000102_render000000.png,stimuli/rgb_scene000102_render000005.png,0,192,192,130,"[1, 0]",left,1,525,25,m,y,y,2019_Apr_30_1308,2AFC_task,59.905273823882204,
stimuli/rgb_scene000113_render000000.png,stimuli/rgb_scene000113_render000005.png,0,193,193,151,"[0, 1]",right,1,525,25,m,y,y,2019_Apr_30_1308,2AFC_task,59.905273823882204,
stimuli/rgb_scene000195_render000003.png,stimuli/rgb_scene000195_render000006.png,0,194,194,206,"[1, 0]",left,1,525,25,m,y,y,2019_Apr_30_1308,2AFC_task,59.905273823882204,
stimuli/rgb_scene000113_render000003.png,stimuli/rgb_scene000113_render000004.png,0,195,195,162,"[0, 1]",right,1,525,25,m,y,y,2019_Apr_30_1308,2AFC_task,59.905273823882204,
stimuli/rgb_scene000090_render000003.png,stimuli/rgb_scene000090_render000006.png,0,196,196,80,"[0, 1]",left,0,525,25,m,y,y,2019_Apr_30_1308,2AFC_task,59.905273823882204,
stimuli/rgb_scene000005_render000002.png,stimuli/rgb_scene000005_render000006.png,0,197,197,35,"[0, 1]",left,0,525,25,m,y,y,2019_Apr_30_1308,2AFC_task,59.905273823882204,
stimuli/rgb_scene000146_render000002.png,stimuli/rgb_scene000146_render000003.png,0,198,198,179,"[0, 1]",right,1,525,25,m,y,y,2019_Apr_30_1308,2AFC_task,59.905273823882204,
stimuli/rgb_scene000195_render000000.png,stimuli/rgb_scene000195_render000006.png,0,199,199,194,"[1, 0]",left,1,525,25,m,y,y,2019_Apr_30_1308,2AFC_task,59.905273823882204,
stimuli/rgb_scene000102_render000001.png,stimuli/rgb_scene000102_render000006.png,0,200,200,136,"[1, 0]",left,1,525,25,m,y,y,2019_Apr_30_1308,2AFC_task,59.905273823882204,
stimuli/rgb_scene000095_render000000.png,stimuli/rgb_scene000095_render000005.png,0,201,201,88,"[0, 1]",right,1,525,25,m,y,y,2019_Apr_30_1308,2AFC_task,59.905273823882204,
stimuli/rgb_scene000012_render000002.png,stimuli/rgb_scene000012_render000004.png,0,202,202,54,"[0, 1]",right,1,525,25,m,y,y,2019_Apr_30_1308,2AFC_task,59.905273823882204,
stimuli/rgb_scene000102_render000000.png,stimuli/rgb_scene000102_render000006.png,0,203,203,131,"[1, 0]",left,1,525,25,m,y,y,2019_Apr_30_1308,2AFC_task,59.905273823882204,
stimuli/rgb_scene000095_render000000.png,stimuli/rgb_scene000095_render000002.png,0,204,204,85,"[0, 1]",right,1,525,25,m,y,y,2019_Apr_30_1308,2AFC_task,59.905273823882204,
stimuli/rgb_scene000102_render000002.png,stimuli/rgb_scene000102_render000004.png,0,205,205,138,"[1, 0]",left,1,525,25,m,y,y,2019_Apr_30_1308,2AFC_task,59.905273823882204,
stimuli/rgb_scene000102_render000001.png,stimuli/rgb_scene000102_render000002.png,0,206,206,132,"[1, 0]",left,1,525,25,m,y,y,2019_Apr_30_1308,2AFC_task,59.905273823882204,
stimuli/rgb_scene000012_render000000.png,stimuli/rgb_scene000012_render000002.png,0,207,207,43,"[1, 0]",left,1,525,25,m,y,y,2019_Apr_30_1308,2AFC_task,59.905273823882204,
stimuli/rgb_scene000096_render000000.png,stimuli/rgb_scene000096_render000005.png,0,208,208,109,"[0, 1]",right,1,525,25,m,y,y,2019_Apr_30_1308,2AFC_task,59.905273823882204,
stimuli/rgb_scene000102_render000004.png,stimuli/rgb_scene000102_render000005.png,0,209,209,144,"[1, 0]",left,1,525,25,m,y,y,2019_Apr_30_1308,2AFC_task,59.905273823882204,
stimuli/rgb_scene000195_render000002.png,stimuli/rgb_scene000195_render000005.png,1,0,210,202,"[0, 1]",right,1,525,25,m,y,y,2019_Apr_30_1308,2AFC_task,59.905273823882204,
stimuli/rgb_scene000195_render000000.png,stimuli/rgb_scene000195_render000002.png,1,1,211,190,"[0, 1]",right,1,525,25,m,y,y,2019_Apr_30_1308,2AFC_task,59.905273823882204,
stimuli/rgb_scene000096_render000000.png,stimuli/rgb_scene000096_render000002.png,1,2,212,106,"[1, 0]",left,1,525,25,m,y,y,2019_Apr_30_1308,2AFC_task,59.905273823882204,
stimuli/rgb_scene000004_render000002.png,stimuli/rgb_scene000004_render000003.png,1,3,213,11,"[0, 1]",right,1,525,25,m,y,y,2019_Apr_30_1308,2AFC_task,59.905273823882204,
stimuli/rgb_scene000090_render000001.png,stimuli/rgb_scene000090_render000004.png,1,4,214,71,"[1, 0]",right,0,525,25,m,y,y,2019_Apr_30_1308,2AFC_task,59.905273823882204,
stimuli/rgb_scene000095_render000005.png,stimuli/rgb_scene000095_render000006.png,1,5,215,104,"[0, 1]",left,0,525,25,m,y,y,2019_Apr_30_1308,2AFC_task,59.905273823882204,
stimuli/rgb_scene000090_render000002.png,stimuli/rgb_scene000090_render000006.png,1,6,216,77,"[1, 0]",right,0,525,25,m,y,y,2019_Apr_30_1308,2AFC_task,59.905273823882204,
stimuli/rgb_scene000102_render000001.png,stimuli/rgb_scene000102_render000004.png,1,7,217,134,"[0, 1]",right,1,525,25,m,y,y,2019_Apr_30_1308,2AFC_task,59.905273823882204,
stimuli/rgb_scene000146_render000000.png,stimuli/rgb_scene000146_render000001.png,1,8,218,168,"[1, 0]",left,1,525,25,m,y,y,2019_Apr_30_1308,2AFC_task,59.905273823882204,
stimuli/rgb_scene000146_render000002.png,stimuli/rgb_scene000146_render000003.png,1,9,219,179,"[0, 1]",right,1,525,25,m,y,y,2019_Apr_30_1308,2AFC_task,59.905273823882204,
stimuli/rgb_scene000146_render000000.png,stimuli/rgb_scene000146_render000006.png,1,10,220,173,"[1, 0]",left,1,525,25,m,y,y,2019_Apr_30_1308,2AFC_task,59.905273823882204,
stimuli/rgb_scene000146_render000004.png,stimuli/rgb_scene000146_render000006.png,1,11,221,187,"[0, 1]",right,1,525,25,m,y,y,2019_Apr_30_1308,2AFC_task,59.905273823882204,
stimuli/rgb_scene000095_render000001.png,stimuli/rgb_scene000095_render000004.png,1,12,222,92,"[1, 0]",left,1,525,25,m,y,y,2019_Apr_30_1308,2AFC_task,59.905273823882204,
stimuli/rgb_scene000195_render000000.png,stimuli/rgb_scene000195_render000001.png,1,13,223,189,"[1, 0]",left,1,525,25,m,y,y,2019_Apr_30_1308,2AFC_task,59.905273823882204,
stimuli/rgb_scene000095_render000001.png,stimuli/rgb_scene000095_render000002.png,1,14,224,90,"[0, 1]",right,1,525,25,m,y,y,2019_Apr_30_1308,2AFC_task,59.905273823882204,
stimuli/rgb_scene000146_render000001.png,stimuli/rgb_scene000146_render000006.png,1,15,225,178,"[0, 1]",right,1,525,25,m,y,y,2019_Apr_30_1308,2AFC_task,59.905273823882204,
stimuli/rgb_scene000090_render000004.png,stimuli/rgb_scene000090_render000006.png,1,16,226,82,"[0, 1]",left,0,525,25,m,y,y,2019_Apr_30_1308,2AFC_task,59.905273823882204,
stimuli/rgb_scene000090_render000003.png,stimuli/rgb_scene000090_render000006.png,1,17,227,80,"[0, 1]",left,0,525,25,m,y,y,2019_Apr_30_1308,2AFC_task,59.905273823882204,
stimuli/rgb_scene000096_render000001.png,stimuli/rgb_scene000096_render000005.png,1,18,228,114,"[1, 0]",left,1,525,25,m,y,y,2019_Apr_30_1308,2AFC_task,59.905273823882204,
stimuli/rgb_scene000004_render000004.png,stimuli/rgb_scene000004_render000006.png,1,19,229,19,"[1, 0]",left,1,525,25,m,y,y,2019_Apr_30_1308,2AFC_task,59.905273823882204,
stimuli/rgb_scene000102_render000002.png,stimuli/rgb_scene000102_render000005.png,1,20,230,139,"[1, 0]",left,1,525,25,m,y,y,2019_Apr_30_1308,2AFC_task,59.905273823882204,
stimuli/rgb_scene000095_render000001.png,stimuli/rgb_scene000095_render000003.png,1,21,231,91,"[0, 1]",right,1,525,25,m,y,y,2019_Apr_30_1308,2AFC_task,59.905273823882204,
stimuli/rgb_scene000090_render000003.png,stimuli/rgb_scene000090_render000004.png,1,22,232,78,"[0, 1]",left,0,525,25,m,y,y,2019_Apr_30_1308,2AFC_task,59.905273823882204,
stimuli/rgb_scene000090_render000001.png,stimuli/rgb_scene000090_render000003.png,1,23,233,70,"[1, 0]",right,0,525,25,m,y,y,2019_Apr_30_1308,2AFC_task,59.905273823882204,
stimuli/rgb_scene000195_render000001.png,stimuli/rgb_scene000195_render000006.png,1,24,234,199,"[0, 1]",right,1,525,25,m,y,y,2019_Apr_30_1308,2AFC_task,59.905273823882204,
stimuli/rgb_scene000096_render000001.png,stimuli/rgb_scene000096_render000006.png,1,25,235,115,"[0, 1]",right,1,525,25,m,y,y,2019_Apr_30_1308,2AFC_task,59.905273823882204,
stimuli/rgb_scene000095_render000001.png,stimuli/rgb_scene000095_render000006.png,1,26,236,94,"[1, 0]",left,1,525,25,m,y,y,2019_Apr_30_1308,2AFC_task,59.905273823882204,
stimuli/rgb_scene000005_render000002.png,stimuli/rgb_scene000005_render000006.png,1,27,237,35,"[1, 0]",right,0,525,25,m,y,y,2019_Apr_30_1308,2AFC_task,59.905273823882204,
stimuli/rgb_scene000096_render000000.png,stimuli/rgb_scene000096_render000001.png,1,28,238,105,"[0, 1]",left,0,525,25,m,y,y,2019_Apr_30_1308,2AFC_task,59.905273823882204,
stimuli/rgb_scene000102_render000000.png,stimuli/rgb_scene000102_render000004.png,1,29,239,129,"[0, 1]",right,1,525,25,m,y,y,2019_Apr_30_1308,2AFC_task,59.905273823882204,
stimuli/rgb_scene000096_render000001.png,stimuli/rgb_scene000096_render000003.png,1,30,240,112,"[1, 0]",left,1,525,25,m,y,y,2019_Apr_30_1308,2AFC_task,59.905273823882204,
stimuli/rgb_scene000195_render000003.png,stimuli/rgb_scene000195_render000005.png,1,31,241,205,"[1, 0]",left,1,525,25,m,y,y,2019_Apr_30_1308,2AFC_task,59.905273823882204,
stimuli/rgb_scene000090_render000002.png,stimuli/rgb_scene000090_render000005.png,1,32,242,76,"[0, 1]",left,0,525,25,m,y,y,2019_Apr_30_1308,2AFC_task,59.905273823882204,
stimuli/rgb_scene000090_render000000.png,stimuli/rgb_scene000090_render000006.png,1,33,243,68,"[0, 1]",right,1,525,25,m,y,y,2019_Apr_30_1308,2AFC_task,59.905273823882204,
stimuli/rgb_scene000102_render000001.png,stimuli/rgb_scene000102_render000006.png,1,34,244,136,"[1, 0]",left,1,525,25,m,y,y,2019_Apr_30_1308,2AFC_task,59.905273823882204,
stimuli/rgb_scene000102_render000000.png,stimuli/rgb_scene000102_render000003.png,1,35,245,128,"[1, 0]",left,1,525,25,m,y,y,2019_Apr_30_1308,2AFC_task,59.905273823882204,
stimuli/rgb_scene000005_render000001.png,stimuli/rgb_scene000005_render000003.png,1,36,246,28,"[0, 1]",right,1,525,25,m,y,y,2019_Apr_30_1308,2AFC_task,59.905273823882204,
stimuli/rgb_scene000004_render000000.png,stimuli/rgb_scene000004_render000005.png,1,37,247,4,"[1, 0]",left,1,525,25,m,y,y,2019_Apr_30_1308,2AFC_task,59.905273823882204,
stimuli/rgb_scene000096_render000002.png,stimuli/rgb_scene000096_render000005.png,1,38,248,118,"[0, 1]",right,1,525,25,m,y,y,2019_Apr_30_1308,2AFC_task,59.905273823882204,
stimuli/rgb_scene000195_render000004.png,stimuli/rgb_scene000195_render000005.png,1,39,249,207,"[0, 1]",left,0,525,25,m,y,y,2019_Apr_30_1308,2AFC_task,59.905273823882204,
stimuli/rgb_scene000005_render000005.png,stimuli/rgb_scene000005_render000006.png,1,40,250,41,"[1, 0]",left,1,525,25,m,y,y,2019_Apr_30_1308,2AFC_task,59.905273823882204,
stimuli/rgb_scene000004_render000000.png,stimuli/rgb_scene000004_render000004.png,1,41,251,3,"[1, 0]",left,1,525,25,m,y,y,2019_Apr_30_1308,2AFC_task,59.905273823882204,
stimuli/rgb_scene000012_render000003.png,stimuli/rgb_scene000012_render000005.png,1,42,252,58,"[0, 1]",right,1,525,25,m,y,y,2019_Apr_30_1308,2AFC_task,59.905273823882204,
stimuli/rgb_scene000113_render000002.png,stimuli/rgb_scene000113_render000005.png,1,43,253,160,"[1, 0]",left,1,525,25,m,y,y,2019_Apr_30_1308,2AFC_task,59.905273823882204,
stimuli/rgb_scene000096_render000000.png,stimuli/rgb_scene000096_render000003.png,1,44,254,107,"[1, 0]",left,1,525,25,m,y,y,2019_Apr_30_1308,2AFC_task,59.905273823882204,
stimuli/rgb_scene000005_render000001.png,stimuli/rgb_scene000005_render000006.png,1,45,255,31,"[0, 1]",right,1,525,25,m,y,y,2019_Apr_30_1308,2AFC_task,59.905273823882204,
stimuli/rgb_scene000095_render000004.png,stimuli/rgb_scene000095_render000005.png,1,46,256,102,"[1, 0]",left,1,525,25,m,y,y,2019_Apr_30_1308,2AFC_task,59.905273823882204,
stimuli/rgb_scene000012_render000000.png,stimuli/rgb_scene000012_render000001.png,1,47,257,42,"[0, 1]",right,1,525,25,m,y,y,2019_Apr_30_1308,2AFC_task,59.905273823882204,
stimuli/rgb_scene000102_render000000.png,stimuli/rgb_scene000102_render000001.png,1,48,258,126,"[0, 1]",right,1,525,25,m,y,y,2019_Apr_30_1308,2AFC_task,59.905273823882204,
stimuli/rgb_scene000113_render000000.png,stimuli/rgb_scene000113_render000005.png,1,49,259,151,"[1, 0]",left,1,525,25,m,y,y,2019_Apr_30_1308,2AFC_task,59.905273823882204,
stimuli/rgb_scene000095_render000002.png,stimuli/rgb_scene000095_render000004.png,1,50,260,96,"[0, 1]",right,1,525,25,m,y,y,2019_Apr_30_1308,2AFC_task,59.905273823882204,
stimuli/rgb_scene000195_render000001.png,stimuli/rgb_scene000195_render000003.png,1,51,261,196,"[0, 1]",right,1,525,25,m,y,y,2019_Apr_30_1308,2AFC_task,59.905273823882204,
stimuli/rgb_scene000113_render000004.png,stimuli/rgb_scene000113_render000006.png,1,52,262,166,"[1, 0]",left,1,525,25,m,y,y,2019_Apr_30_1308,2AFC_task,59.905273823882204,
stimuli/rgb_scene000012_render000002.png,stimuli/rgb_scene000012_render000003.png,1,53,263,53,"[1, 0]",left,1,525,25,m,y,y,2019_Apr_30_1308,2AFC_task,59.905273823882204,
stimuli/rgb_scene000146_render000002.png,stimuli/rgb_scene000146_render000006.png,1,54,264,182,"[1, 0]",left,1,525,25,m,y,y,2019_Apr_30_1308,2AFC_task,59.905273823882204,
stimuli/rgb_scene000012_render000000.png,stimuli/rgb_scene000012_render000004.png,1,55,265,45,"[0, 1]",right,1,525,25,m,y,y,2019_Apr_30_1308,2AFC_task,59.905273823882204,
stimuli/rgb_scene000195_render000001.png,stimuli/rgb_scene000195_render000005.png,1,56,266,198,"[1, 0]",left,1,525,25,m,y,y,2019_Apr_30_1308,2AFC_task,59.905273823882204,
stimuli/rgb_scene000012_render000003.png,stimuli/rgb_scene000012_render000004.png,1,57,267,57,"[1, 0]",left,1,525,25,m,y,y,2019_Apr_30_1308,2AFC_task,59.905273823882204,
stimuli/rgb_scene000005_render000000.png,stimuli/rgb_scene000005_render000003.png,1,58,268,23,"[1, 0]",left,1,525,25,m,y,y,2019_Apr_30_1308,2AFC_task,59.905273823882204,
stimuli/rgb_scene000102_render000005.png,stimuli/rgb_scene000102_render000006.png,1,59,269,146,"[0, 1]",right,1,525,25,m,y,y,2019_Apr_30_1308,2AFC_task,59.905273823882204,
stimuli/rgb_scene000195_render000002.png,stimuli/rgb_scene000195_render000004.png,1,60,270,201,"[1, 0]",left,1,525,25,m,y,y,2019_Apr_30_1308,2AFC_task,59.905273823882204,
stimuli/rgb_scene000004_render000001.png,stimuli/rgb_scene000004_render000003.png,1,61,271,7,"[1, 0]",left,1,525,25,m,y,y,2019_Apr_30_1308,2AFC_task,59.905273823882204,
stimuli/rgb_scene000004_render000001.png,stimuli/rgb_scene000004_render000005.png,1,62,272,9,"[0, 1]",right,1,525,25,m,y,y,2019_Apr_30_1308,2AFC_task,59.905273823882204,
stimuli/rgb_scene000090_render000000.png,stimuli/rgb_scene000090_render000002.png,1,63,273,64,"[0, 1]",left,0,525,25,m,y,y,2019_Apr_30_1308,2AFC_task,59.905273823882204,
stimuli/rgb_scene000096_render000001.png,stimuli/rgb_scene000096_render000002.png,1,64,274,111,"[0, 1]",right,1,525,25,m,y,y,2019_Apr_30_1308,2AFC_task,59.905273823882204,
stimuli/rgb_scene000095_render000003.png,stimuli/rgb_scene000095_render000005.png,1,65,275,100,"[0, 1]",right,1,525,25,m,y,y,2019_Apr_30_1308,2AFC_task,59.905273823882204,
stimuli/rgb_scene000090_render000003.png,stimuli/rgb_scene000090_render000005.png,1,66,276,79,"[1, 0]",left,1,525,25,m,y,y,2019_Apr_30_1308,2AFC_task,59.905273823882204,
stimuli/rgb_scene000113_render000003.png,stimuli/rgb_scene000113_render000004.png,1,67,277,162,"[0, 1]",right,1,525,25,m,y,y,2019_Apr_30_1308,2AFC_task,59.905273823882204,
stimuli/rgb_scene000005_render000001.png,stimuli/rgb_scene000005_render000004.png,1,68,278,29,"[0, 1]",right,1,525,25,m,y,y,2019_Apr_30_1308,2AFC_task,59.905273823882204,
stimuli/rgb_scene000096_render000005.png,stimuli/rgb_scene000096_render000006.png,1,69,279,125,"[0, 1]",right,1,525,25,m,y,y,2019_Apr_30_1308,2AFC_task,59.905273823882204,
stimuli/rgb_scene000102_render000003.png,stimuli/rgb_scene000102_render000006.png,1,70,280,143,"[1, 0]",left,1,525,25,m,y,y,2019_Apr_30_1308,2AFC_task,59.905273823882204,
stimuli/rgb_scene000090_render000000.png,stimuli/rgb_scene000090_render000001.png,1,71,281,63,"[1, 0]",right,0,525,25,m,y,y,2019_Apr_30_1308,2AFC_task,59.905273823882204,
stimuli/rgb_scene000012_render000002.png,stimuli/rgb_scene000012_render000004.png,1,72,282,54,"[0, 1]",right,1,525,25,m,y,y,2019_Apr_30_1308,2AFC_task,59.905273823882204,
stimuli/rgb_scene000004_render000002.png,stimuli/rgb_scene000004_render000004.png,1,73,283,12,"[1, 0]",left,1,525,25,m,y,y,2019_Apr_30_1308,2AFC_task,59.905273823882204,
stimuli/rgb_scene000005_render000000.png,stimuli/rgb_scene000005_render000001.png,1,74,284,21,"[1, 0]",right,0,525,25,m,y,y,2019_Apr_30_1308,2AFC_task,59.905273823882204,
stimuli/rgb_scene000012_render000000.png,stimuli/rgb_scene000012_render000005.png,1,75,285,46,"[0, 1]",right,1,525,25,m,y,y,2019_Apr_30_1308,2AFC_task,59.905273823882204,
stimuli/rgb_scene000012_render000000.png,stimuli/rgb_scene000012_render000003.png,1,76,286,44,"[1, 0]",left,1,525,25,m,y,y,2019_Apr_30_1308,2AFC_task,59.905273823882204,
stimuli/rgb_scene000012_render000001.png,stimuli/rgb_scene000012_render000002.png,1,77,287,48,"[0, 1]",right,1,525,25,m,y,y,2019_Apr_30_1308,2AFC_task,59.905273823882204,
stimuli/rgb_scene000102_render000000.png,stimuli/rgb_scene000102_render000006.png,1,78,288,131,"[0, 1]",right,1,525,25,m,y,y,2019_Apr_30_1308,2AFC_task,59.905273823882204,
stimuli/rgb_scene000095_render000000.png,stimuli/rgb_scene000095_render000006.png,1,79,289,89,"[1, 0]",right,0,525,25,m,y,y,2019_Apr_30_1308,2AFC_task,59.905273823882204,
stimuli/rgb_scene000005_render000000.png,stimuli/rgb_scene000005_render000002.png,1,80,290,22,"[0, 1]",right,1,525,25,m,y,y,2019_Apr_30_1308,2AFC_task,59.905273823882204,
stimuli/rgb_scene000102_render000004.png,stimuli/rgb_scene000102_render000005.png,1,81,291,144,"[0, 1]",right,1,525,25,m,y,y,2019_Apr_30_1308,2AFC_task,59.905273823882204,
stimuli/rgb_scene000012_render000003.png,stimuli/rgb_scene000012_render000006.png,1,82,292,59,"[1, 0]",left,1,525,25,m,y,y,2019_Apr_30_1308,2AFC_task,59.905273823882204,
stimuli/rgb_scene000004_render000000.png,stimuli/rgb_scene000004_render000002.png,1,83,293,1,"[0, 1]",right,1,525,25,m,y,y,2019_Apr_30_1308,2AFC_task,59.905273823882204,
stimuli/rgb_scene000095_render000000.png,stimuli/rgb_scene000095_render000004.png,1,84,294,87,"[1, 0]",left,1,525,25,m,y,y,2019_Apr_30_1308,2AFC_task,59.905273823882204,
stimuli/rgb_scene000102_render000004.png,stimuli/rgb_scene000102_render000006.png,1,85,295,145,"[1, 0]",left,1,525,25,m,y,y,2019_Apr_30_1308,2AFC_task,59.905273823882204,
stimuli/rgb_scene000012_render000002.png,stimuli/rgb_scene000012_render000005.png,1,86,296,55,"[0, 1]",right,1,525,25,m,y,y,2019_Apr_30_1308,2AFC_task,59.905273823882204,
stimuli/rgb_scene000096_render000003.png,stimuli/rgb_scene000096_render000006.png,1,87,297,122,"[1, 0]",left,1,525,25,m,y,y,2019_Apr_30_1308,2AFC_task,59.905273823882204,
stimuli/rgb_scene000113_render000000.png,stimuli/rgb_scene000113_render000004.png,1,88,298,150,"[1, 0]",left,1,525,25,m,y,y,2019_Apr_30_1308,2AFC_task,59.905273823882204,
stimuli/rgb_scene000090_render000005.png,stimuli/rgb_scene000090_render000006.png,1,89,299,83,"[0, 1]",left,0,525,25,m,y,y,2019_Apr_30_1308,2AFC_task,59.905273823882204,
stimuli/rgb_scene000090_render000002.png,stimuli/rgb_scene000090_render000004.png,1,90,300,75,"[1, 0]",left,1,525,25,m,y,y,2019_Apr_30_1308,2AFC_task,59.905273823882204,
stimuli/rgb_scene000096_render000000.png,stimuli/rgb_scene000096_render000004.png,1,91,301,108,"[0, 1]",right,1,525,25,m,y,y,2019_Apr_30_1308,2AFC_task,59.905273823882204,
stimuli/rgb_scene000012_render000005.png,stimuli/rgb_scene000012_render000006.png,1,92,302,62,"[0, 1]",left,0,525,25,m,y,y,2019_Apr_30_1308,2AFC_task,59.905273823882204,
stimuli/rgb_scene000102_render000002.png,stimuli/rgb_scene000102_render000003.png,1,93,303,137,"[1, 0]",left,1,525,25,m,y,y,2019_Apr_30_1308,2AFC_task,59.905273823882204,
stimuli/rgb_scene000005_render000003.png,stimuli/rgb_scene000005_render000004.png,1,94,304,36,"[1, 0]",left,1,525,25,m,y,y,2019_Apr_30_1308,2AFC_task,59.905273823882204,
stimuli/rgb_scene000102_render000002.png,stimuli/rgb_scene000102_render000004.png,1,95,305,138,"[1, 0]",left,1,525,25,m,y,y,2019_Apr_30_1308,2AFC_task,59.905273823882204,
stimuli/rgb_scene000102_render000002.png,stimuli/rgb_scene000102_render000006.png,1,96,306,140,"[0, 1]",right,1,525,25,m,y,y,2019_Apr_30_1308,2AFC_task,59.905273823882204,
stimuli/rgb_scene000005_render000002.png,stimuli/rgb_scene000005_render000005.png,1,97,307,34,"[1, 0]",right,0,525,25,m,y,y,2019_Apr_30_1308,2AFC_task,59.905273823882204,
stimuli/rgb_scene000004_render000003.png,stimuli/rgb_scene000004_render000005.png,1,98,308,16,"[0, 1]",right,1,525,25,m,y,y,2019_Apr_30_1308,2AFC_task,59.905273823882204,
stimuli/rgb_scene000004_render000002.png,stimuli/rgb_scene000004_render000005.png,1,99,309,13,"[0, 1]",right,1,525,25,m,y,y,2019_Apr_30_1308,2AFC_task,59.905273823882204,
stimuli/rgb_scene000096_render000002.png,stimuli/rgb_scene000096_render000006.png,1,100,310,119,"[0, 1]",right,1,525,25,m,y,y,2019_Apr_30_1308,2AFC_task,59.905273823882204,
stimuli/rgb_scene000096_render000001.png,stimuli/rgb_scene000096_render000004.png,1,101,311,113,"[1, 0]",left,1,525,25,m,y,y,2019_Apr_30_1308,2AFC_task,59.905273823882204,
stimuli/rgb_scene000102_render000001.png,stimuli/rgb_scene000102_render000005.png,1,102,312,135,"[0, 1]",right,1,525,25,m,y,y,2019_Apr_30_1308,2AFC_task,59.905273823882204,
stimuli/rgb_scene000005_render000002.png,stimuli/rgb_scene000005_render000004.png,1,103,313,33,"[0, 1]",left,0,525,25,m,y,y,2019_Apr_30_1308,2AFC_task,59.905273823882204,
stimuli/rgb_scene000090_render000002.png,stimuli/rgb_scene000090_render000003.png,1,104,314,74,"[0, 1]",left,0,525,25,m,y,y,2019_Apr_30_1308,2AFC_task,59.905273823882204,
stimuli/rgb_scene000012_render000001.png,stimuli/rgb_scene000012_render000006.png,1,105,315,52,"[0, 1]",right,1,525,25,m,y,y,2019_Apr_30_1308,2AFC_task,59.905273823882204,
stimuli/rgb_scene000095_render000000.png,stimuli/rgb_scene000095_render000003.png,1,106,316,86,"[1, 0]",left,1,525,25,m,y,y,2019_Apr_30_1308,2AFC_task,59.905273823882204,
stimuli/rgb_scene000146_render000001.png,stimuli/rgb_scene000146_render000003.png,1,107,317,175,"[0, 1]",right,1,525,25,m,y,y,2019_Apr_30_1308,2AFC_task,59.905273823882204,
stimuli/rgb_scene000004_render000001.png,stimuli/rgb_scene000004_render000002.png,1,108,318,6,"[1, 0]",left,1,525,25,m,y,y,2019_Apr_30_1308,2AFC_task,59.905273823882204,
stimuli/rgb_scene000005_render000003.png,stimuli/rgb_scene000005_render000006.png,1,109,319,38,"[1, 0]",right,0,525,25,m,y,y,2019_Apr_30_1308,2AFC_task,59.905273823882204,
stimuli/rgb_scene000096_render000003.png,stimuli/rgb_scene000096_render000005.png,1,110,320,121,"[0, 1]",right,1,525,25,m,y,y,2019_Apr_30_1308,2AFC_task,59.905273823882204,
stimuli/rgb_scene000195_render000001.png,stimuli/rgb_scene000195_render000002.png,1,111,321,195,"[0, 1]",right,1,525,25,m,y,y,2019_Apr_30_1308,2AFC_task,59.905273823882204,
stimuli/rgb_scene000095_render000000.png,stimuli/rgb_scene000095_render000002.png,1,112,322,85,"[0, 1]",right,1,525,25,m,y,y,2019_Apr_30_1308,2AFC_task,59.905273823882204,
stimuli/rgb_scene000102_render000003.png,stimuli/rgb_scene000102_render000004.png,1,113,323,141,"[1, 0]",left,1,525,25,m,y,y,2019_Apr_30_1308,2AFC_task,59.905273823882204,
stimuli/rgb_scene000096_render000004.png,stimuli/rgb_scene000096_render000005.png,1,114,324,123,"[0, 1]",right,1,525,25,m,y,y,2019_Apr_30_1308,2AFC_task,59.905273823882204,
stimuli/rgb_scene000146_render000000.png,stimuli/rgb_scene000146_render000004.png,1,115,325,171,"[0, 1]",right,1,525,25,m,y,y,2019_Apr_30_1308,2AFC_task,59.905273823882204,
stimuli/rgb_scene000113_render000000.png,stimuli/rgb_scene000113_render000006.png,1,116,326,152,"[0, 1]",right,1,525,25,m,y,y,2019_Apr_30_1308,2AFC_task,59.905273823882204,
stimuli/rgb_scene000146_render000003.png,stimuli/rgb_scene000146_render000005.png,1,117,327,184,"[0, 1]",right,1,525,25,m,y,y,2019_Apr_30_1308,2AFC_task,59.905273823882204,
stimuli/rgb_scene000090_render000004.png,stimuli/rgb_scene000090_render000005.png,1,118,328,81,"[0, 1]",left,0,525,25,m,y,y,2019_Apr_30_1308,2AFC_task,59.905273823882204,
stimuli/rgb_scene000096_render000000.png,stimuli/rgb_scene000096_render000005.png,1,119,329,109,"[1, 0]",left,1,525,25,m,y,y,2019_Apr_30_1308,2AFC_task,59.905273823882204,
stimuli/rgb_scene000113_render000002.png,stimuli/rgb_scene000113_render000004.png,1,120,330,159,"[0, 1]",right,1,525,25,m,y,y,2019_Apr_30_1308,2AFC_task,59.905273823882204,
stimuli/rgb_scene000095_render000003.png,stimuli/rgb_scene000095_render000004.png,1,121,331,99,"[1, 0]",left,1,525,25,m,y,y,2019_Apr_30_1308,2AFC_task,59.905273823882204,
stimuli/rgb_scene000146_render000002.png,stimuli/rgb_scene000146_render000004.png,1,122,332,180,"[0, 1]",right,1,525,25,m,y,y,2019_Apr_30_1308,2AFC_task,59.905273823882204,
stimuli/rgb_scene000004_render000003.png,stimuli/rgb_scene000004_render000004.png,1,123,333,15,"[0, 1]",right,1,525,25,m,y,y,2019_Apr_30_1308,2AFC_task,59.905273823882204,
stimuli/rgb_scene000113_render000000.png,stimuli/rgb_scene000113_render000002.png,1,124,334,148,"[1, 0]",left,1,525,25,m,y,y,2019_Apr_30_1308,2AFC_task,59.905273823882204,
stimuli/rgb_scene000012_render000000.png,stimuli/rgb_scene000012_render000002.png,1,125,335,43,"[0, 1]",right,1,525,25,m,y,y,2019_Apr_30_1308,2AFC_task,59.905273823882204,
stimuli/rgb_scene000096_render000003.png,stimuli/rgb_scene000096_render000004.png,1,126,336,120,"[1, 0]",left,1,525,25,m,y,y,2019_Apr_30_1308,2AFC_task,59.905273823882204,
stimuli/rgb_scene000146_render000001.png,stimuli/rgb_scene000146_render000005.png,1,127,337,177,"[1, 0]",left,1,525,25,m,y,y,2019_Apr_30_1308,2AFC_task,59.905273823882204,
stimuli/rgb_scene000195_render000002.png,stimuli/rgb_scene000195_render000003.png,1,128,338,200,"[0, 1]",right,1,525,25,m,y,y,2019_Apr_30_1308,2AFC_task,59.905273823882204,
stimuli/rgb_scene000113_render000004.png,stimuli/rgb_scene000113_render000005.png,1,129,339,165,"[1, 0]",left,1,525,25,m,y,y,2019_Apr_30_1308,2AFC_task,59.905273823882204,
stimuli/rgb_scene000195_render000003.png,stimuli/rgb_scene000195_render000006.png,1,130,340,206,"[1, 0]",right,0,525,25,m,y,y,2019_Apr_30_1308,2AFC_task,59.905273823882204,
stimuli/rgb_scene000005_render000003.png,stimuli/rgb_scene000005_render000005.png,1,131,341,37,"[0, 1]",left,0,525,25,m,y,y,2019_Apr_30_1308,2AFC_task,59.905273823882204,
stimuli/rgb_scene000005_render000001.png,stimuli/rgb_scene000005_render000005.png,1,132,342,30,"[1, 0]",right,0,525,25,m,y,y,2019_Apr_30_1308,2AFC_task,59.905273823882204,
stimuli/rgb_scene000146_render000001.png,stimuli/rgb_scene000146_render000002.png,1,133,343,174,"[1, 0]",left,1,525,25,m,y,y,2019_Apr_30_1308,2AFC_task,59.905273823882204,
stimuli/rgb_scene000102_render000000.png,stimuli/rgb_scene000102_render000005.png,1,134,344,130,"[1, 0]",left,1,525,25,m,y,y,2019_Apr_30_1308,2AFC_task,59.905273823882204,
stimuli/rgb_scene000004_render000000.png,stimuli/rgb_scene000004_render000006.png,1,135,345,5,"[1, 0]",left,1,525,25,m,y,y,2019_Apr_30_1308,2AFC_task,59.905273823882204,
stimuli/rgb_scene000012_render000002.png,stimuli/rgb_scene000012_render000006.png,1,136,346,56,"[1, 0]",left,1,525,25,m,y,y,2019_Apr_30_1308,2AFC_task,59.905273823882204,
stimuli/rgb_scene000102_render000001.png,stimuli/rgb_scene000102_render000003.png,1,137,347,133,"[0, 1]",right,1,525,25,m,y,y,2019_Apr_30_1308,2AFC_task,59.905273823882204,
stimuli/rgb_scene000113_render000001.png,stimuli/rgb_scene000113_render000005.png,1,138,348,156,"[0, 1]",right,1,525,25,m,y,y,2019_Apr_30_1308,2AFC_task,59.905273823882204,
stimuli/rgb_scene000113_render000001.png,stimuli/rgb_scene000113_render000003.png,1,139,349,154,"[0, 1]",right,1,525,25,m,y,y,2019_Apr_30_1308,2AFC_task,59.905273823882204,
stimuli/rgb_scene000146_render000004.png,stimuli/rgb_scene000146_render000005.png,1,140,350,186,"[0, 1]",right,1,525,25,m,y,y,2019_Apr_30_1308,2AFC_task,59.905273823882204,
stimuli/rgb_scene000102_render000000.png,stimuli/rgb_scene000102_render000002.png,1,141,351,127,"[1, 0]",left,1,525,25,m,y,y,2019_Apr_30_1308,2AFC_task,59.905273823882204,
stimuli/rgb_scene000012_render000004.png,stimuli/rgb_scene000012_render000005.png,1,142,352,60,"[1, 0]",left,1,525,25,m,y,y,2019_Apr_30_1308,2AFC_task,59.905273823882204,
stimuli/rgb_scene000146_render000001.png,stimuli/rgb_scene000146_render000004.png,1,143,353,176,"[1, 0]",left,1,525,25,m,y,y,2019_Apr_30_1308,2AFC_task,59.905273823882204,
stimuli/rgb_scene000113_render000002.png,stimuli/rgb_scene000113_render000003.png,1,144,354,158,"[0, 1]",right,1,525,25,m,y,y,2019_Apr_30_1308,2AFC_task,59.905273823882204,
stimuli/rgb_scene000095_render000000.png,stimuli/rgb_scene000095_render000005.png,1,145,355,88,"[0, 1]",right,1,525,25,m,y,y,2019_Apr_30_1308,2AFC_task,59.905273823882204,
stimuli/rgb_scene000005_render000004.png,stimuli/rgb_scene000005_render000005.png,1,146,356,39,"[0, 1]",left,0,525,25,m,y,y,2019_Apr_30_1308,2AFC_task,59.905273823882204,
stimuli/rgb_scene000095_render000000.png,stimuli/rgb_scene000095_render000001.png,1,147,357,84,"[1, 0]",right,0,525,25,m,y,y,2019_Apr_30_1308,2AFC_task,59.905273823882204,
stimuli/rgb_scene000195_render000000.png,stimuli/rgb_scene000195_render000006.png,1,148,358,194,"[1, 0]",left,1,525,25,m,y,y,2019_Apr_30_1308,2AFC_task,59.905273823882204,
stimuli/rgb_scene000012_render000000.png,stimuli/rgb_scene000012_render000006.png,1,149,359,47,"[0, 1]",right,1,525,25,m,y,y,2019_Apr_30_1308,2AFC_task,59.905273823882204,
stimuli/rgb_scene000195_render000004.png,stimuli/rgb_scene000195_render000006.png,1,150,360,208,"[0, 1]",left,0,525,25,m,y,y,2019_Apr_30_1308,2AFC_task,59.905273823882204,
stimuli/rgb_scene000005_render000001.png,stimuli/rgb_scene000005_render000002.png,1,151,361,27,"[0, 1]",right,1,525,25,m,y,y,2019_Apr_30_1308,2AFC_task,59.905273823882204,
stimuli/rgb_scene000090_render000000.png,stimuli/rgb_scene000090_render000003.png,1,152,362,65,"[0, 1]",left,0,525,25,m,y,y,2019_Apr_30_1308,2AFC_task,59.905273823882204,
stimuli/rgb_scene000095_render000001.png,stimuli/rgb_scene000095_render000005.png,1,153,363,93,"[0, 1]",right,1,525,25,m,y,y,2019_Apr_30_1308,2AFC_task,59.905273823882204,
stimuli/rgb_scene000005_render000000.png,stimuli/rgb_scene000005_render000004.png,1,154,364,24,"[0, 1]",right,1,525,25,m,y,y,2019_Apr_30_1308,2AFC_task,59.905273823882204,
stimuli/rgb_scene000096_render000004.png,stimuli/rgb_scene000096_render000006.png,1,155,365,124,"[1, 0]",left,1,525,25,m,y,y,2019_Apr_30_1308,2AFC_task,59.905273823882204,
stimuli/rgb_scene000004_render000001.png,stimuli/rgb_scene000004_render000004.png,1,156,366,8,"[1, 0]",left,1,525,25,m,y,y,2019_Apr_30_1308,2AFC_task,59.905273823882204,
stimuli/rgb_scene000195_render000002.png,stimuli/rgb_scene000195_render000006.png,1,157,367,203,"[0, 1]",right,1,525,25,m,y,y,2019_Apr_30_1308,2AFC_task,59.905273823882204,
stimuli/rgb_scene000005_render000004.png,stimuli/rgb_scene000005_render000006.png,1,158,368,40,"[0, 1]",left,0,525,25,m,y,y,2019_Apr_30_1308,2AFC_task,59.905273823882204,
stimuli/rgb_scene000090_render000001.png,stimuli/rgb_scene000090_render000002.png,1,159,369,69,"[1, 0]",left,1,525,25,m,y,y,2019_Apr_30_1308,2AFC_task,59.905273823882204,
stimuli/rgb_scene000096_render000002.png,stimuli/rgb_scene000096_render000003.png,1,160,370,116,"[0, 1]",right,1,525,25,m,y,y,2019_Apr_30_1308,2AFC_task,59.905273823882204,
stimuli/rgb_scene000004_render000000.png,stimuli/rgb_scene000004_render000003.png,1,161,371,2,"[1, 0]",left,1,525,25,m,y,y,2019_Apr_30_1308,2AFC_task,59.905273823882204,
stimuli/rgb_scene000102_render000003.png,stimuli/rgb_scene000102_render000005.png,1,162,372,142,"[0, 1]",right,1,525,25,m,y,y,2019_Apr_30_1308,2AFC_task,59.905273823882204,
stimuli/rgb_scene000012_render000001.png,stimuli/rgb_scene000012_render000004.png,1,163,373,50,"[0, 1]",right,1,525,25,m,y,y,2019_Apr_30_1308,2AFC_task,59.905273823882204,
stimuli/rgb_scene000195_render000000.png,stimuli/rgb_scene000195_render000004.png,1,164,374,192,"[1, 0]",left,1,525,25,m,y,y,2019_Apr_30_1308,2AFC_task,59.905273823882204,
stimuli/rgb_scene000113_render000002.png,stimuli/rgb_scene000113_render000006.png,1,165,375,161,"[0, 1]",right,1,525,25,m,y,y,2019_Apr_30_1308,2AFC_task,59.905273823882204,
stimuli/rgb_scene000090_render000000.png,stimuli/rgb_scene000090_render000005.png,1,166,376,67,"[1, 0]",left,1,525,25,m,y,y,2019_Apr_30_1308,2AFC_task,59.905273823882204,
stimuli/rgb_scene000012_render000004.png,stimuli/rgb_scene000012_render000006.png,1,167,377,61,"[0, 1]",right,1,525,25,m,y,y,2019_Apr_30_1308,2AFC_task,59.905273823882204,
stimuli/rgb_scene000090_render000001.png,stimuli/rgb_scene000090_render000006.png,1,168,378,73,"[0, 1]",left,0,525,25,m,y,y,2019_Apr_30_1308,2AFC_task,59.905273823882204,
stimuli/rgb_scene000095_render000002.png,stimuli/rgb_scene000095_render000003.png,1,169,379,95,"[1, 0]",left,1,525,25,m,y,y,2019_Apr_30_1308,2AFC_task,59.905273823882204,
stimuli/rgb_scene000095_render000002.png,stimuli/rgb_scene000095_render000006.png,1,170,380,98,"[0, 1]",right,1,525,25,m,y,y,2019_Apr_30_1308,2AFC_task,59.905273823882204,
stimuli/rgb_scene000012_render000001.png,stimuli/rgb_scene000012_render000003.png,1,171,381,49,"[0, 1]",right,1,525,25,m,y,y,2019_Apr_30_1308,2AFC_task,59.905273823882204,
stimuli/rgb_scene000096_render000002.png,stimuli/rgb_scene000096_render000004.png,1,172,382,117,"[0, 1]",left,0,525,25,m,y,y,2019_Apr_30_1308,2AFC_task,59.905273823882204,
stimuli/rgb_scene000146_render000003.png,stimuli/rgb_scene000146_render000006.png,1,173,383,185,"[0, 1]",right,1,525,25,m,y,y,2019_Apr_30_1308,2AFC_task,59.905273823882204,
stimuli/rgb_scene000004_render000004.png,stimuli/rgb_scene000004_render000005.png,1,174,384,18,"[1, 0]",left,1,525,25,m,y,y,2019_Apr_30_1308,2AFC_task,59.905273823882204,
stimuli/rgb_scene000095_render000003.png,stimuli/rgb_scene000095_render000006.png,1,175,385,101,"[1, 0]",left,1,525,25,m,y,y,2019_Apr_30_1308,2AFC_task,59.905273823882204,
stimuli/rgb_scene000005_render000002.png,stimuli/rgb_scene000005_render000003.png,1,176,386,32,"[0, 1]",right,1,525,25,m,y,y,2019_Apr_30_1308,2AFC_task,59.905273823882204,
stimuli/rgb_scene000004_render000002.png,stimuli/rgb_scene000004_render000006.png,1,177,387,14,"[0, 1]",right,1,525,25,m,y,y,2019_Apr_30_1308,2AFC_task,59.905273823882204,
stimuli/rgb_scene000146_render000000.png,stimuli/rgb_scene000146_render000003.png,1,178,388,170,"[0, 1]",right,1,525,25,m,y,y,2019_Apr_30_1308,2AFC_task,59.905273823882204,
stimuli/rgb_scene000113_render000003.png,stimuli/rgb_scene000113_render000005.png,1,179,389,163,"[1, 0]",left,1,525,25,m,y,y,2019_Apr_30_1308,2AFC_task,59.905273823882204,
stimuli/rgb_scene000195_render000005.png,stimuli/rgb_scene000195_render000006.png,1,180,390,209,"[1, 0]",left,1,525,25,m,y,y,2019_Apr_30_1308,2AFC_task,59.905273823882204,
stimuli/rgb_scene000004_render000003.png,stimuli/rgb_scene000004_render000006.png,1,181,391,17,"[1, 0]",left,1,525,25,m,y,y,2019_Apr_30_1308,2AFC_task,59.905273823882204,
stimuli/rgb_scene000113_render000005.png,stimuli/rgb_scene000113_render000006.png,1,182,392,167,"[1, 0]",left,1,525,25,m,y,y,2019_Apr_30_1308,2AFC_task,59.905273823882204,
stimuli/rgb_scene000113_render000001.png,stimuli/rgb_scene000113_render000006.png,1,183,393,157,"[0, 1]",right,1,525,25,m,y,y,2019_Apr_30_1308,2AFC_task,59.905273823882204,
stimuli/rgb_scene000004_render000000.png,stimuli/rgb_scene000004_render000001.png,1,184,394,0,"[1, 0]",left,1,525,25,m,y,y,2019_Apr_30_1308,2AFC_task,59.905273823882204,
stimuli/rgb_scene000102_render000001.png,stimuli/rgb_scene000102_render000002.png,1,185,395,132,"[0, 1]",right,1,525,25,m,y,y,2019_Apr_30_1308,2AFC_task,59.905273823882204,
stimuli/rgb_scene000012_render000001.png,stimuli/rgb_scene000012_render000005.png,1,186,396,51,"[0, 1]",right,1,525,25,m,y,y,2019_Apr_30_1308,2AFC_task,59.905273823882204,
stimuli/rgb_scene000195_render000001.png,stimuli/rgb_scene000195_render000004.png,1,187,397,197,"[1, 0]",left,1,525,25,m,y,y,2019_Apr_30_1308,2AFC_task,59.905273823882204,
stimuli/rgb_scene000195_render000003.png,stimuli/rgb_scene000195_render000004.png,1,188,398,204,"[1, 0]",right,0,525,25,m,y,y,2019_Apr_30_1308,2AFC_task,59.905273823882204,
stimuli/rgb_scene000095_render000004.png,stimuli/rgb_scene000095_render000006.png,1,189,399,103,"[0, 1]",right,1,525,25,m,y,y,2019_Apr_30_1308,2AFC_task,59.905273823882204,
stimuli/rgb_scene000146_render000002.png,stimuli/rgb_scene000146_render000005.png,1,190,400,181,"[0, 1]",right,1,525,25,m,y,y,2019_Apr_30_1308,2AFC_task,59.905273823882204,
stimuli/rgb_scene000113_render000001.png,stimuli/rgb_scene000113_render000002.png,1,191,401,153,"[0, 1]",right,1,525,25,m,y,y,2019_Apr_30_1308,2AFC_task,59.905273823882204,
stimuli/rgb_scene000004_render000005.png,stimuli/rgb_scene000004_render000006.png,1,192,402,20,"[0, 1]",right,1,525,25,m,y,y,2019_Apr_30_1308,2AFC_task,59.905273823882204,
stimuli/rgb_scene000004_render000001.png,stimuli/rgb_scene000004_render000006.png,1,193,403,10,"[1, 0]",left,1,525,25,m,y,y,2019_Apr_30_1308,2AFC_task,59.905273823882204,
stimuli/rgb_scene000005_render000000.png,stimuli/rgb_scene000005_render000005.png,1,194,404,25,"[0, 1]",right,1,525,25,m,y,y,2019_Apr_30_1308,2AFC_task,59.905273823882204,
stimuli/rgb_scene000146_render000003.png,stimuli/rgb_scene000146_render000004.png,1,195,405,183,"[1, 0]",left,1,525,25,m,y,y,2019_Apr_30_1308,2AFC_task,59.905273823882204,
stimuli/rgb_scene000090_render000001.png,stimuli/rgb_scene000090_render000005.png,1,196,406,72,"[0, 1]",right,1,525,25,m,y,y,2019_Apr_30_1308,2AFC_task,59.905273823882204,
stimuli/rgb_scene000005_render000000.png,stimuli/rgb_scene000005_render000006.png,1,197,407,26,"[0, 1]",right,1,525,25,m,y,y,2019_Apr_30_1308,2AFC_task,59.905273823882204,
stimuli/rgb_scene000113_render000003.png,stimuli/rgb_scene000113_render000006.png,1,198,408,164,"[0, 1]",right,1,525,25,m,y,y,2019_Apr_30_1308,2AFC_task,59.905273823882204,
stimuli/rgb_scene000090_render000000.png,stimuli/rgb_scene000090_render000004.png,1,199,409,66,"[0, 1]",left,0,525,25,m,y,y,2019_Apr_30_1308,2AFC_task,59.905273823882204,
stimuli/rgb_scene000095_render000002.png,stimuli/rgb_scene000095_render000005.png,1,200,410,97,"[1, 0]",left,1,525,25,m,y,y,2019_Apr_30_1308,2AFC_task,59.905273823882204,
stimuli/rgb_scene000096_render000000.png,stimuli/rgb_scene000096_render000006.png,1,201,411,110,"[1, 0]",left,1,525,25,m,y,y,2019_Apr_30_1308,2AFC_task,59.905273823882204,
stimuli/rgb_scene000146_render000000.png,stimuli/rgb_scene000146_render000005.png,1,202,412,172,"[0, 1]",right,1,525,25,m,y,y,2019_Apr_30_1308,2AFC_task,59.905273823882204,
stimuli/rgb_scene000146_render000005.png,stimuli/rgb_scene000146_render000006.png,1,203,413,188,"[1, 0]",left,1,525,25,m,y,y,2019_Apr_30_1308,2AFC_task,59.905273823882204,
stimuli/rgb_scene000113_render000001.png,stimuli/rgb_scene000113_render000004.png,1,204,414,155,"[1, 0]",left,1,525,25,m,y,y,2019_Apr_30_1308,2AFC_task,59.905273823882204,
stimuli/rgb_scene000195_render000000.png,stimuli/rgb_scene000195_render000003.png,1,205,415,191,"[1, 0]",left,1,525,25,m,y,y,2019_Apr_30_1308,2AFC_task,59.905273823882204,
stimuli/rgb_scene000113_render000000.png,stimuli/rgb_scene000113_render000003.png,1,206,416,149,"[0, 1]",right,1,525,25,m,y,y,2019_Apr_30_1308,2AFC_task,59.905273823882204,
stimuli/rgb_scene000113_render000000.png,stimuli/rgb_scene000113_render000001.png,1,207,417,147,"[0, 1]",right,1,525,25,m,y,y,2019_Apr_30_1308,2AFC_task,59.905273823882204,
stimuli/rgb_scene000146_render000000.png,stimuli/rgb_scene000146_render000002.png,1,208,418,169,"[1, 0]",left,1,525,25,m,y,y,2019_Apr_30_1308,2AFC_task,59.905273823882204,
stimuli/rgb_scene000195_render000000.png,stimuli/rgb_scene000195_render000005.png,1,209,419,193,"[1, 0]",left,1,525,25,m,y,y,2019_Apr_30_1308,2AFC_task,59.905273823882204,
