stimOne,stimTwo,trials_1.thisRepN,trials_1.thisTrialN,trials_1.thisN,trials_1.thisIndex,presentation_positions,resp_key,corresponding_image,participant ID (two digits, e.g. 01),age,gender (m/f/-),normal or corrected-to-normal vision (y/n),normal colour vision (y/n),date,expName,frameRate,
stimuli/rgb_scene000146_render000000.png,stimuli/rgb_scene000146_render000001.png,0,0,0,168,"[0, 1]",right,1,666,24,f,y,y,2019_Apr_29_1454,2AFC_task,59.927109337977306,
stimuli/rgb_scene000195_render000001.png,stimuli/rgb_scene000195_render000005.png,0,1,1,198,"[1, 0]",left,1,666,24,f,y,y,2019_Apr_29_1454,2AFC_task,59.927109337977306,
stimuli/rgb_scene000012_render000001.png,stimuli/rgb_scene000012_render000002.png,0,2,2,48,"[0, 1]",right,1,666,24,f,y,y,2019_Apr_29_1454,2AFC_task,59.927109337977306,
stimuli/rgb_scene000146_render000000.png,stimuli/rgb_scene000146_render000005.png,0,3,3,172,"[1, 0]",left,1,666,24,f,y,y,2019_Apr_29_1454,2AFC_task,59.927109337977306,
stimuli/rgb_scene000102_render000000.png,stimuli/rgb_scene000102_render000004.png,0,4,4,129,"[0, 1]",right,1,666,24,f,y,y,2019_Apr_29_1454,2AFC_task,59.927109337977306,
stimuli/rgb_scene000195_render000003.png,stimuli/rgb_scene000195_render000004.png,0,5,5,204,"[0, 1]",right,1,666,24,f,y,y,2019_Apr_29_1454,2AFC_task,59.927109337977306,
stimuli/rgb_scene000090_render000005.png,stimuli/rgb_scene000090_render000006.png,0,6,6,83,"[1, 0]",right,0,666,24,f,y,y,2019_Apr_29_1454,2AFC_task,59.927109337977306,
stimuli/rgb_scene000146_render000004.png,stimuli/rgb_scene000146_render000005.png,0,7,7,186,"[0, 1]",right,1,666,24,f,y,y,2019_Apr_29_1454,2AFC_task,59.927109337977306,
stimuli/rgb_scene000012_render000003.png,stimuli/rgb_scene000012_render000006.png,0,8,8,59,"[1, 0]",right,0,666,24,f,y,y,2019_Apr_29_1454,2AFC_task,59.927109337977306,
stimuli/rgb_scene000096_render000001.png,stimuli/rgb_scene000096_render000003.png,0,9,9,112,"[0, 1]",right,1,666,24,f,y,y,2019_Apr_29_1454,2AFC_task,59.927109337977306,
stimuli/rgb_scene000012_render000005.png,stimuli/rgb_scene000012_render000006.png,0,10,10,62,"[1, 0]",right,0,666,24,f,y,y,2019_Apr_29_1454,2AFC_task,59.927109337977306,
stimuli/rgb_scene000195_render000000.png,stimuli/rgb_scene000195_render000006.png,0,11,11,194,"[0, 1]",right,1,666,24,f,y,y,2019_Apr_29_1454,2AFC_task,59.927109337977306,
stimuli/rgb_scene000096_render000000.png,stimuli/rgb_scene000096_render000003.png,0,12,12,107,"[0, 1]",right,1,666,24,f,y,y,2019_Apr_29_1454,2AFC_task,59.927109337977306,
stimuli/rgb_scene000004_render000001.png,stimuli/rgb_scene000004_render000002.png,0,13,13,6,"[1, 0]",left,1,666,24,f,y,y,2019_Apr_29_1454,2AFC_task,59.927109337977306,
stimuli/rgb_scene000146_render000002.png,stimuli/rgb_scene000146_render000005.png,0,14,14,181,"[0, 1]",right,1,666,24,f,y,y,2019_Apr_29_1454,2AFC_task,59.927109337977306,
stimuli/rgb_scene000095_render000002.png,stimuli/rgb_scene000095_render000005.png,0,15,15,97,"[1, 0]",left,1,666,24,f,y,y,2019_Apr_29_1454,2AFC_task,59.927109337977306,
stimuli/rgb_scene000095_render000005.png,stimuli/rgb_scene000095_render000006.png,0,16,16,104,"[0, 1]",right,1,666,24,f,y,y,2019_Apr_29_1454,2AFC_task,59.927109337977306,
stimuli/rgb_scene000096_render000002.png,stimuli/rgb_scene000096_render000004.png,0,17,17,117,"[1, 0]",left,1,666,24,f,y,y,2019_Apr_29_1454,2AFC_task,59.927109337977306,
stimuli/rgb_scene000005_render000001.png,stimuli/rgb_scene000005_render000005.png,0,18,18,30,"[1, 0]",left,1,666,24,f,y,y,2019_Apr_29_1454,2AFC_task,59.927109337977306,
stimuli/rgb_scene000113_render000001.png,stimuli/rgb_scene000113_render000002.png,0,19,19,153,"[1, 0]",left,1,666,24,f,y,y,2019_Apr_29_1454,2AFC_task,59.927109337977306,
stimuli/rgb_scene000195_render000004.png,stimuli/rgb_scene000195_render000006.png,0,20,20,208,"[1, 0]",right,0,666,24,f,y,y,2019_Apr_29_1454,2AFC_task,59.927109337977306,
stimuli/rgb_scene000195_render000004.png,stimuli/rgb_scene000195_render000005.png,0,21,21,207,"[0, 1]",left,0,666,24,f,y,y,2019_Apr_29_1454,2AFC_task,59.927109337977306,
stimuli/rgb_scene000095_render000000.png,stimuli/rgb_scene000095_render000003.png,0,22,22,86,"[1, 0]",left,1,666,24,f,y,y,2019_Apr_29_1454,2AFC_task,59.927109337977306,
stimuli/rgb_scene000090_render000001.png,stimuli/rgb_scene000090_render000006.png,0,23,23,73,"[0, 1]",right,1,666,24,f,y,y,2019_Apr_29_1454,2AFC_task,59.927109337977306,
stimuli/rgb_scene000102_render000002.png,stimuli/rgb_scene000102_render000003.png,0,24,24,137,"[1, 0]",left,1,666,24,f,y,y,2019_Apr_29_1454,2AFC_task,59.927109337977306,
stimuli/rgb_scene000146_render000005.png,stimuli/rgb_scene000146_render000006.png,0,25,25,188,"[1, 0]",left,1,666,24,f,y,y,2019_Apr_29_1454,2AFC_task,59.927109337977306,
stimuli/rgb_scene000005_render000000.png,stimuli/rgb_scene000005_render000001.png,0,26,26,21,"[0, 1]",right,1,666,24,f,y,y,2019_Apr_29_1454,2AFC_task,59.927109337977306,
stimuli/rgb_scene000095_render000003.png,stimuli/rgb_scene000095_render000005.png,0,27,27,100,"[0, 1]",right,1,666,24,f,y,y,2019_Apr_29_1454,2AFC_task,59.927109337977306,
stimuli/rgb_scene000095_render000001.png,stimuli/rgb_scene000095_render000002.png,0,28,28,90,"[0, 1]",right,1,666,24,f,y,y,2019_Apr_29_1454,2AFC_task,59.927109337977306,
stimuli/rgb_scene000004_render000001.png,stimuli/rgb_scene000004_render000003.png,0,29,29,7,"[0, 1]",right,1,666,24,f,y,y,2019_Apr_29_1454,2AFC_task,59.927109337977306,
stimuli/rgb_scene000102_render000003.png,stimuli/rgb_scene000102_render000004.png,0,30,30,141,"[1, 0]",left,1,666,24,f,y,y,2019_Apr_29_1454,2AFC_task,59.927109337977306,
stimuli/rgb_scene000096_render000005.png,stimuli/rgb_scene000096_render000006.png,0,31,31,125,"[0, 1]",right,1,666,24,f,y,y,2019_Apr_29_1454,2AFC_task,59.927109337977306,
stimuli/rgb_scene000090_render000002.png,stimuli/rgb_scene000090_render000005.png,0,32,32,76,"[0, 1]",left,0,666,24,f,y,y,2019_Apr_29_1454,2AFC_task,59.927109337977306,
stimuli/rgb_scene000146_render000000.png,stimuli/rgb_scene000146_render000006.png,0,33,33,173,"[1, 0]",left,1,666,24,f,y,y,2019_Apr_29_1454,2AFC_task,59.927109337977306,
stimuli/rgb_scene000113_render000003.png,stimuli/rgb_scene000113_render000006.png,0,34,34,164,"[1, 0]",left,1,666,24,f,y,y,2019_Apr_29_1454,2AFC_task,59.927109337977306,
stimuli/rgb_scene000012_render000004.png,stimuli/rgb_scene000012_render000006.png,0,35,35,61,"[0, 1]",left,0,666,24,f,y,y,2019_Apr_29_1454,2AFC_task,59.927109337977306,
stimuli/rgb_scene000004_render000002.png,stimuli/rgb_scene000004_render000005.png,0,36,36,13,"[1, 0]",left,1,666,24,f,y,y,2019_Apr_29_1454,2AFC_task,59.927109337977306,
stimuli/rgb_scene000113_render000000.png,stimuli/rgb_scene000113_render000001.png,0,37,37,147,"[0, 1]",right,1,666,24,f,y,y,2019_Apr_29_1454,2AFC_task,59.927109337977306,
stimuli/rgb_scene000096_render000004.png,stimuli/rgb_scene000096_render000005.png,0,38,38,123,"[0, 1]",right,1,666,24,f,y,y,2019_Apr_29_1454,2AFC_task,59.927109337977306,
stimuli/rgb_scene000146_render000000.png,stimuli/rgb_scene000146_render000004.png,0,39,39,171,"[1, 0]",left,1,666,24,f,y,y,2019_Apr_29_1454,2AFC_task,59.927109337977306,
stimuli/rgb_scene000090_render000004.png,stimuli/rgb_scene000090_render000005.png,0,40,40,81,"[0, 1]",left,0,666,24,f,y,y,2019_Apr_29_1454,2AFC_task,59.927109337977306,
stimuli/rgb_scene000113_render000003.png,stimuli/rgb_scene000113_render000005.png,0,41,41,163,"[0, 1]",left,0,666,24,f,y,y,2019_Apr_29_1454,2AFC_task,59.927109337977306,
stimuli/rgb_scene000113_render000000.png,stimuli/rgb_scene000113_render000006.png,0,42,42,152,"[1, 0]",left,1,666,24,f,y,y,2019_Apr_29_1454,2AFC_task,59.927109337977306,
stimuli/rgb_scene000113_render000004.png,stimuli/rgb_scene000113_render000006.png,0,43,43,166,"[0, 1]",right,1,666,24,f,y,y,2019_Apr_29_1454,2AFC_task,59.927109337977306,
stimuli/rgb_scene000195_render000002.png,stimuli/rgb_scene000195_render000003.png,0,44,44,200,"[0, 1]",right,1,666,24,f,y,y,2019_Apr_29_1454,2AFC_task,59.927109337977306,
stimuli/rgb_scene000090_render000004.png,stimuli/rgb_scene000090_render000006.png,0,45,45,82,"[1, 0]",right,0,666,24,f,y,y,2019_Apr_29_1454,2AFC_task,59.927109337977306,
stimuli/rgb_scene000195_render000000.png,stimuli/rgb_scene000195_render000004.png,0,46,46,192,"[0, 1]",right,1,666,24,f,y,y,2019_Apr_29_1454,2AFC_task,59.927109337977306,
stimuli/rgb_scene000095_render000003.png,stimuli/rgb_scene000095_render000006.png,0,47,47,101,"[1, 0]",left,1,666,24,f,y,y,2019_Apr_29_1454,2AFC_task,59.927109337977306,
stimuli/rgb_scene000012_render000001.png,stimuli/rgb_scene000012_render000006.png,0,48,48,52,"[1, 0]",left,1,666,24,f,y,y,2019_Apr_29_1454,2AFC_task,59.927109337977306,
stimuli/rgb_scene000102_render000004.png,stimuli/rgb_scene000102_render000006.png,0,49,49,145,"[0, 1]",right,1,666,24,f,y,y,2019_Apr_29_1454,2AFC_task,59.927109337977306,
stimuli/rgb_scene000102_render000003.png,stimuli/rgb_scene000102_render000006.png,0,50,50,143,"[0, 1]",right,1,666,24,f,y,y,2019_Apr_29_1454,2AFC_task,59.927109337977306,
stimuli/rgb_scene000102_render000000.png,stimuli/rgb_scene000102_render000002.png,0,51,51,127,"[0, 1]",right,1,666,24,f,y,y,2019_Apr_29_1454,2AFC_task,59.927109337977306,
stimuli/rgb_scene000195_render000001.png,stimuli/rgb_scene000195_render000006.png,0,52,52,199,"[0, 1]",right,1,666,24,f,y,y,2019_Apr_29_1454,2AFC_task,59.927109337977306,
stimuli/rgb_scene000005_render000003.png,stimuli/rgb_scene000005_render000006.png,0,53,53,38,"[1, 0]",right,0,666,24,f,y,y,2019_Apr_29_1454,2AFC_task,59.927109337977306,
stimuli/rgb_scene000096_render000001.png,stimuli/rgb_scene000096_render000004.png,0,54,54,113,"[0, 1]",right,1,666,24,f,y,y,2019_Apr_29_1454,2AFC_task,59.927109337977306,
stimuli/rgb_scene000096_render000002.png,stimuli/rgb_scene000096_render000003.png,0,55,55,116,"[0, 1]",right,1,666,24,f,y,y,2019_Apr_29_1454,2AFC_task,59.927109337977306,
stimuli/rgb_scene000146_render000001.png,stimuli/rgb_scene000146_render000003.png,0,56,56,175,"[0, 1]",left,0,666,24,f,y,y,2019_Apr_29_1454,2AFC_task,59.927109337977306,
stimuli/rgb_scene000095_render000004.png,stimuli/rgb_scene000095_render000005.png,0,57,57,102,"[0, 1]",right,1,666,24,f,y,y,2019_Apr_29_1454,2AFC_task,59.927109337977306,
stimuli/rgb_scene000096_render000000.png,stimuli/rgb_scene000096_render000004.png,0,58,58,108,"[0, 1]",right,1,666,24,f,y,y,2019_Apr_29_1454,2AFC_task,59.927109337977306,
stimuli/rgb_scene000004_render000003.png,stimuli/rgb_scene000004_render000004.png,0,59,59,15,"[1, 0]",left,1,666,24,f,y,y,2019_Apr_29_1454,2AFC_task,59.927109337977306,
stimuli/rgb_scene000004_render000000.png,stimuli/rgb_scene000004_render000001.png,0,60,60,0,"[0, 1]",right,1,666,24,f,y,y,2019_Apr_29_1454,2AFC_task,59.927109337977306,
stimuli/rgb_scene000146_render000002.png,stimuli/rgb_scene000146_render000003.png,0,61,61,179,"[1, 0]",right,0,666,24,f,y,y,2019_Apr_29_1454,2AFC_task,59.927109337977306,
stimuli/rgb_scene000005_render000001.png,stimuli/rgb_scene000005_render000002.png,0,62,62,27,"[1, 0]",right,0,666,24,f,y,y,2019_Apr_29_1454,2AFC_task,59.927109337977306,
stimuli/rgb_scene000012_render000001.png,stimuli/rgb_scene000012_render000004.png,0,63,63,50,"[0, 1]",right,1,666,24,f,y,y,2019_Apr_29_1454,2AFC_task,59.927109337977306,
stimuli/rgb_scene000090_render000000.png,stimuli/rgb_scene000090_render000006.png,0,64,64,68,"[0, 1]",left,0,666,24,f,y,y,2019_Apr_29_1454,2AFC_task,59.927109337977306,
stimuli/rgb_scene000113_render000004.png,stimuli/rgb_scene000113_render000005.png,0,65,65,165,"[1, 0]",left,1,666,24,f,y,y,2019_Apr_29_1454,2AFC_task,59.927109337977306,
stimuli/rgb_scene000005_render000000.png,stimuli/rgb_scene000005_render000003.png,0,66,66,23,"[1, 0]",left,1,666,24,f,y,y,2019_Apr_29_1454,2AFC_task,59.927109337977306,
stimuli/rgb_scene000096_render000003.png,stimuli/rgb_scene000096_render000005.png,0,67,67,121,"[1, 0]",left,1,666,24,f,y,y,2019_Apr_29_1454,2AFC_task,59.927109337977306,
stimuli/rgb_scene000005_render000002.png,stimuli/rgb_scene000005_render000006.png,0,68,68,35,"[1, 0]",right,0,666,24,f,y,y,2019_Apr_29_1454,2AFC_task,59.927109337977306,
stimuli/rgb_scene000005_render000000.png,stimuli/rgb_scene000005_render000004.png,0,69,69,24,"[0, 1]",right,1,666,24,f,y,y,2019_Apr_29_1454,2AFC_task,59.927109337977306,
stimuli/rgb_scene000146_render000004.png,stimuli/rgb_scene000146_render000006.png,0,70,70,187,"[0, 1]",right,1,666,24,f,y,y,2019_Apr_29_1454,2AFC_task,59.927109337977306,
stimuli/rgb_scene000146_render000003.png,stimuli/rgb_scene000146_render000005.png,0,71,71,184,"[1, 0]",left,1,666,24,f,y,y,2019_Apr_29_1454,2AFC_task,59.927109337977306,
stimuli/rgb_scene000195_render000005.png,stimuli/rgb_scene000195_render000006.png,0,72,72,209,"[1, 0]",right,0,666,24,f,y,y,2019_Apr_29_1454,2AFC_task,59.927109337977306,
stimuli/rgb_scene000102_render000000.png,stimuli/rgb_scene000102_render000006.png,0,73,73,131,"[1, 0]",left,1,666,24,f,y,y,2019_Apr_29_1454,2AFC_task,59.927109337977306,
stimuli/rgb_scene000096_render000004.png,stimuli/rgb_scene000096_render000006.png,0,74,74,124,"[0, 1]",right,1,666,24,f,y,y,2019_Apr_29_1454,2AFC_task,59.927109337977306,
stimuli/rgb_scene000195_render000002.png,stimuli/rgb_scene000195_render000006.png,0,75,75,203,"[1, 0]",right,0,666,24,f,y,y,2019_Apr_29_1454,2AFC_task,59.927109337977306,
stimuli/rgb_scene000012_render000003.png,stimuli/rgb_scene000012_render000005.png,0,76,76,58,"[0, 1]",right,1,666,24,f,y,y,2019_Apr_29_1454,2AFC_task,59.927109337977306,
stimuli/rgb_scene000004_render000002.png,stimuli/rgb_scene000004_render000004.png,0,77,77,12,"[1, 0]",left,1,666,24,f,y,y,2019_Apr_29_1454,2AFC_task,59.927109337977306,
stimuli/rgb_scene000012_render000000.png,stimuli/rgb_scene000012_render000006.png,0,78,78,47,"[0, 1]",right,1,666,24,f,y,y,2019_Apr_29_1454,2AFC_task,59.927109337977306,
stimuli/rgb_scene000012_render000000.png,stimuli/rgb_scene000012_render000002.png,0,79,79,43,"[1, 0]",left,1,666,24,f,y,y,2019_Apr_29_1454,2AFC_task,59.927109337977306,
stimuli/rgb_scene000102_render000000.png,stimuli/rgb_scene000102_render000005.png,0,80,80,130,"[1, 0]",left,1,666,24,f,y,y,2019_Apr_29_1454,2AFC_task,59.927109337977306,
stimuli/rgb_scene000195_render000000.png,stimuli/rgb_scene000195_render000003.png,0,81,81,191,"[0, 1]",right,1,666,24,f,y,y,2019_Apr_29_1454,2AFC_task,59.927109337977306,
stimuli/rgb_scene000005_render000003.png,stimuli/rgb_scene000005_render000005.png,0,82,82,37,"[0, 1]",left,0,666,24,f,y,y,2019_Apr_29_1454,2AFC_task,59.927109337977306,
stimuli/rgb_scene000113_render000000.png,stimuli/rgb_scene000113_render000002.png,0,83,83,148,"[1, 0]",left,1,666,24,f,y,y,2019_Apr_29_1454,2AFC_task,59.927109337977306,
stimuli/rgb_scene000090_render000002.png,stimuli/rgb_scene000090_render000003.png,0,84,84,74,"[0, 1]",left,0,666,24,f,y,y,2019_Apr_29_1454,2AFC_task,59.927109337977306,
stimuli/rgb_scene000004_render000001.png,stimuli/rgb_scene000004_render000005.png,0,85,85,9,"[0, 1]",right,1,666,24,f,y,y,2019_Apr_29_1454,2AFC_task,59.927109337977306,
stimuli/rgb_scene000005_render000000.png,stimuli/rgb_scene000005_render000006.png,0,86,86,26,"[0, 1]",right,1,666,24,f,y,y,2019_Apr_29_1454,2AFC_task,59.927109337977306,
stimuli/rgb_scene000005_render000004.png,stimuli/rgb_scene000005_render000006.png,0,87,87,40,"[1, 0]",right,0,666,24,f,y,y,2019_Apr_29_1454,2AFC_task,59.927109337977306,
stimuli/rgb_scene000102_render000001.png,stimuli/rgb_scene000102_render000003.png,0,88,88,133,"[1, 0]",left,1,666,24,f,y,y,2019_Apr_29_1454,2AFC_task,59.927109337977306,
stimuli/rgb_scene000005_render000002.png,stimuli/rgb_scene000005_render000004.png,0,89,89,33,"[1, 0]",left,1,666,24,f,y,y,2019_Apr_29_1454,2AFC_task,59.927109337977306,
stimuli/rgb_scene000004_render000001.png,stimuli/rgb_scene000004_render000004.png,0,90,90,8,"[0, 1]",right,1,666,24,f,y,y,2019_Apr_29_1454,2AFC_task,59.927109337977306,
stimuli/rgb_scene000195_render000003.png,stimuli/rgb_scene000195_render000005.png,0,91,91,205,"[1, 0]",left,1,666,24,f,y,y,2019_Apr_29_1454,2AFC_task,59.927109337977306,
stimuli/rgb_scene000146_render000003.png,stimuli/rgb_scene000146_render000006.png,0,92,92,185,"[1, 0]",left,1,666,24,f,y,y,2019_Apr_29_1454,2AFC_task,59.927109337977306,
stimuli/rgb_scene000095_render000004.png,stimuli/rgb_scene000095_render000006.png,0,93,93,103,"[1, 0]",left,1,666,24,f,y,y,2019_Apr_29_1454,2AFC_task,59.927109337977306,
stimuli/rgb_scene000090_render000000.png,stimuli/rgb_scene000090_render000003.png,0,94,94,65,"[1, 0]",left,1,666,24,f,y,y,2019_Apr_29_1454,2AFC_task,59.927109337977306,
stimuli/rgb_scene000012_render000003.png,stimuli/rgb_scene000012_render000004.png,0,95,95,57,"[0, 1]",right,1,666,24,f,y,y,2019_Apr_29_1454,2AFC_task,59.927109337977306,
stimuli/rgb_scene000090_render000001.png,stimuli/rgb_scene000090_render000005.png,0,96,96,72,"[0, 1]",left,0,666,24,f,y,y,2019_Apr_29_1454,2AFC_task,59.927109337977306,
stimuli/rgb_scene000146_render000002.png,stimuli/rgb_scene000146_render000004.png,0,97,97,180,"[0, 1]",right,1,666,24,f,y,y,2019_Apr_29_1454,2AFC_task,59.927109337977306,
stimuli/rgb_scene000005_render000001.png,stimuli/rgb_scene000005_render000003.png,0,98,98,28,"[0, 1]",right,1,666,24,f,y,y,2019_Apr_29_1454,2AFC_task,59.927109337977306,
stimuli/rgb_scene000005_render000004.png,stimuli/rgb_scene000005_render000005.png,0,99,99,39,"[1, 0]",right,0,666,24,f,y,y,2019_Apr_29_1454,2AFC_task,59.927109337977306,
stimuli/rgb_scene000113_render000000.png,stimuli/rgb_scene000113_render000003.png,0,100,100,149,"[0, 1]",right,1,666,24,f,y,y,2019_Apr_29_1454,2AFC_task,59.927109337977306,
stimuli/rgb_scene000146_render000002.png,stimuli/rgb_scene000146_render000006.png,0,101,101,182,"[1, 0]",left,1,666,24,f,y,y,2019_Apr_29_1454,2AFC_task,59.927109337977306,
stimuli/rgb_scene000004_render000002.png,stimuli/rgb_scene000004_render000006.png,0,102,102,14,"[1, 0]",left,1,666,24,f,y,y,2019_Apr_29_1454,2AFC_task,59.927109337977306,
stimuli/rgb_scene000146_render000001.png,stimuli/rgb_scene000146_render000004.png,0,103,103,176,"[0, 1]",right,1,666,24,f,y,y,2019_Apr_29_1454,2AFC_task,59.927109337977306,
stimuli/rgb_scene000146_render000001.png,stimuli/rgb_scene000146_render000002.png,0,104,104,174,"[0, 1]",left,0,666,24,f,y,y,2019_Apr_29_1454,2AFC_task,59.927109337977306,
stimuli/rgb_scene000195_render000002.png,stimuli/rgb_scene000195_render000005.png,0,105,105,202,"[0, 1]",right,1,666,24,f,y,y,2019_Apr_29_1454,2AFC_task,59.927109337977306,
stimuli/rgb_scene000195_render000001.png,stimuli/rgb_scene000195_render000004.png,0,106,106,197,"[0, 1]",left,0,666,24,f,y,y,2019_Apr_29_1454,2AFC_task,59.927109337977306,
stimuli/rgb_scene000146_render000001.png,stimuli/rgb_scene000146_render000006.png,0,107,107,178,"[1, 0]",left,1,666,24,f,y,y,2019_Apr_29_1454,2AFC_task,59.927109337977306,
stimuli/rgb_scene000090_render000001.png,stimuli/rgb_scene000090_render000004.png,0,108,108,71,"[1, 0]",right,0,666,24,f,y,y,2019_Apr_29_1454,2AFC_task,59.927109337977306,
stimuli/rgb_scene000004_render000000.png,stimuli/rgb_scene000004_render000005.png,0,109,109,4,"[1, 0]",left,1,666,24,f,y,y,2019_Apr_29_1454,2AFC_task,59.927109337977306,
stimuli/rgb_scene000004_render000005.png,stimuli/rgb_scene000004_render000006.png,0,110,110,20,"[0, 1]",left,0,666,24,f,y,y,2019_Apr_29_1454,2AFC_task,59.927109337977306,
stimuli/rgb_scene000005_render000002.png,stimuli/rgb_scene000005_render000003.png,0,111,111,32,"[1, 0]",left,1,666,24,f,y,y,2019_Apr_29_1454,2AFC_task,59.927109337977306,
stimuli/rgb_scene000096_render000000.png,stimuli/rgb_scene000096_render000006.png,0,112,112,110,"[0, 1]",right,1,666,24,f,y,y,2019_Apr_29_1454,2AFC_task,59.927109337977306,
stimuli/rgb_scene000113_render000005.png,stimuli/rgb_scene000113_render000006.png,0,113,113,167,"[0, 1]",left,0,666,24,f,y,y,2019_Apr_29_1454,2AFC_task,59.927109337977306,
stimuli/rgb_scene000004_render000003.png,stimuli/rgb_scene000004_render000006.png,0,114,114,17,"[0, 1]",right,1,666,24,f,y,y,2019_Apr_29_1454,2AFC_task,59.927109337977306,
stimuli/rgb_scene000012_render000002.png,stimuli/rgb_scene000012_render000003.png,0,115,115,53,"[0, 1]",right,1,666,24,f,y,y,2019_Apr_29_1454,2AFC_task,59.927109337977306,
stimuli/rgb_scene000095_render000000.png,stimuli/rgb_scene000095_render000005.png,0,116,116,88,"[1, 0]",left,1,666,24,f,y,y,2019_Apr_29_1454,2AFC_task,59.927109337977306,
stimuli/rgb_scene000012_render000002.png,stimuli/rgb_scene000012_render000004.png,0,117,117,54,"[1, 0]",left,1,666,24,f,y,y,2019_Apr_29_1454,2AFC_task,59.927109337977306,
stimuli/rgb_scene000012_render000000.png,stimuli/rgb_scene000012_render000004.png,0,118,118,45,"[0, 1]",right,1,666,24,f,y,y,2019_Apr_29_1454,2AFC_task,59.927109337977306,
stimuli/rgb_scene000102_render000004.png,stimuli/rgb_scene000102_render000005.png,0,119,119,144,"[0, 1]",left,0,666,24,f,y,y,2019_Apr_29_1454,2AFC_task,59.927109337977306,
stimuli/rgb_scene000012_render000001.png,stimuli/rgb_scene000012_render000005.png,0,120,120,51,"[1, 0]",left,1,666,24,f,y,y,2019_Apr_29_1454,2AFC_task,59.927109337977306,
stimuli/rgb_scene000004_render000000.png,stimuli/rgb_scene000004_render000006.png,0,121,121,5,"[0, 1]",right,1,666,24,f,y,y,2019_Apr_29_1454,2AFC_task,59.927109337977306,
stimuli/rgb_scene000096_render000002.png,stimuli/rgb_scene000096_render000005.png,0,122,122,118,"[0, 1]",right,1,666,24,f,y,y,2019_Apr_29_1454,2AFC_task,59.927109337977306,
stimuli/rgb_scene000095_render000002.png,stimuli/rgb_scene000095_render000004.png,0,123,123,96,"[1, 0]",left,1,666,24,f,y,y,2019_Apr_29_1454,2AFC_task,59.927109337977306,
stimuli/rgb_scene000195_render000000.png,stimuli/rgb_scene000195_render000005.png,0,124,124,193,"[0, 1]",right,1,666,24,f,y,y,2019_Apr_29_1454,2AFC_task,59.927109337977306,
stimuli/rgb_scene000195_render000001.png,stimuli/rgb_scene000195_render000002.png,0,125,125,195,"[0, 1]",right,1,666,24,f,y,y,2019_Apr_29_1454,2AFC_task,59.927109337977306,
stimuli/rgb_scene000090_render000002.png,stimuli/rgb_scene000090_render000004.png,0,126,126,75,"[0, 1]",left,0,666,24,f,y,y,2019_Apr_29_1454,2AFC_task,59.927109337977306,
stimuli/rgb_scene000096_render000000.png,stimuli/rgb_scene000096_render000002.png,0,127,127,106,"[0, 1]",right,1,666,24,f,y,y,2019_Apr_29_1454,2AFC_task,59.927109337977306,
stimuli/rgb_scene000195_render000002.png,stimuli/rgb_scene000195_render000004.png,0,128,128,201,"[1, 0]",left,1,666,24,f,y,y,2019_Apr_29_1454,2AFC_task,59.927109337977306,
stimuli/rgb_scene000095_render000001.png,stimuli/rgb_scene000095_render000003.png,0,129,129,91,"[1, 0]",left,1,666,24,f,y,y,2019_Apr_29_1454,2AFC_task,59.927109337977306,
stimuli/rgb_scene000095_render000002.png,stimuli/rgb_scene000095_render000003.png,0,130,130,95,"[0, 1]",right,1,666,24,f,y,y,2019_Apr_29_1454,2AFC_task,59.927109337977306,
stimuli/rgb_scene000146_render000001.png,stimuli/rgb_scene000146_render000005.png,0,131,131,177,"[1, 0]",left,1,666,24,f,y,y,2019_Apr_29_1454,2AFC_task,59.927109337977306,
stimuli/rgb_scene000102_render000001.png,stimuli/rgb_scene000102_render000006.png,0,132,132,136,"[0, 1]",right,1,666,24,f,y,y,2019_Apr_29_1454,2AFC_task,59.927109337977306,
stimuli/rgb_scene000090_render000000.png,stimuli/rgb_scene000090_render000004.png,0,133,133,66,"[0, 1]",right,1,666,24,f,y,y,2019_Apr_29_1454,2AFC_task,59.927109337977306,
stimuli/rgb_scene000012_render000004.png,stimuli/rgb_scene000012_render000005.png,0,134,134,60,"[0, 1]",left,0,666,24,f,y,y,2019_Apr_29_1454,2AFC_task,59.927109337977306,
stimuli/rgb_scene000195_render000003.png,stimuli/rgb_scene000195_render000006.png,0,135,135,206,"[1, 0]",left,1,666,24,f,y,y,2019_Apr_29_1454,2AFC_task,59.927109337977306,
stimuli/rgb_scene000005_render000002.png,stimuli/rgb_scene000005_render000005.png,0,136,136,34,"[0, 1]",left,0,666,24,f,y,y,2019_Apr_29_1454,2AFC_task,59.927109337977306,
stimuli/rgb_scene000012_render000000.png,stimuli/rgb_scene000012_render000001.png,0,137,137,42,"[0, 1]",right,1,666,24,f,y,y,2019_Apr_29_1454,2AFC_task,59.927109337977306,
stimuli/rgb_scene000095_render000000.png,stimuli/rgb_scene000095_render000006.png,0,138,138,89,"[1, 0]",left,1,666,24,f,y,y,2019_Apr_29_1454,2AFC_task,59.927109337977306,
stimuli/rgb_scene000090_render000001.png,stimuli/rgb_scene000090_render000003.png,0,139,139,70,"[1, 0]",left,1,666,24,f,y,y,2019_Apr_29_1454,2AFC_task,59.927109337977306,
stimuli/rgb_scene000005_render000001.png,stimuli/rgb_scene000005_render000004.png,0,140,140,29,"[1, 0]",left,1,666,24,f,y,y,2019_Apr_29_1454,2AFC_task,59.927109337977306,
stimuli/rgb_scene000090_render000000.png,stimuli/rgb_scene000090_render000005.png,0,141,141,67,"[0, 1]",right,1,666,24,f,y,y,2019_Apr_29_1454,2AFC_task,59.927109337977306,
stimuli/rgb_scene000004_render000003.png,stimuli/rgb_scene000004_render000005.png,0,142,142,16,"[1, 0]",right,0,666,24,f,y,y,2019_Apr_29_1454,2AFC_task,59.927109337977306,
stimuli/rgb_scene000102_render000005.png,stimuli/rgb_scene000102_render000006.png,0,143,143,146,"[0, 1]",left,0,666,24,f,y,y,2019_Apr_29_1454,2AFC_task,59.927109337977306,
stimuli/rgb_scene000096_render000003.png,stimuli/rgb_scene000096_render000004.png,0,144,144,120,"[1, 0]",left,1,666,24,f,y,y,2019_Apr_29_1454,2AFC_task,59.927109337977306,
stimuli/rgb_scene000095_render000000.png,stimuli/rgb_scene000095_render000002.png,0,145,145,85,"[1, 0]",left,1,666,24,f,y,y,2019_Apr_29_1454,2AFC_task,59.927109337977306,
stimuli/rgb_scene000146_render000000.png,stimuli/rgb_scene000146_render000003.png,0,146,146,170,"[0, 1]",right,1,666,24,f,y,y,2019_Apr_29_1454,2AFC_task,59.927109337977306,
stimuli/rgb_scene000095_render000000.png,stimuli/rgb_scene000095_render000004.png,0,147,147,87,"[0, 1]",left,0,666,24,f,y,y,2019_Apr_29_1454,2AFC_task,59.927109337977306,
stimuli/rgb_scene000102_render000000.png,stimuli/rgb_scene000102_render000003.png,0,148,148,128,"[1, 0]",left,1,666,24,f,y,y,2019_Apr_29_1454,2AFC_task,59.927109337977306,
stimuli/rgb_scene000005_render000000.png,stimuli/rgb_scene000005_render000002.png,0,149,149,22,"[1, 0]",left,1,666,24,f,y,y,2019_Apr_29_1454,2AFC_task,59.927109337977306,
stimuli/rgb_scene000113_render000002.png,stimuli/rgb_scene000113_render000003.png,0,150,150,158,"[1, 0]",left,1,666,24,f,y,y,2019_Apr_29_1454,2AFC_task,59.927109337977306,
stimuli/rgb_scene000146_render000003.png,stimuli/rgb_scene000146_render000004.png,0,151,151,183,"[1, 0]",right,0,666,24,f,y,y,2019_Apr_29_1454,2AFC_task,59.927109337977306,
stimuli/rgb_scene000005_render000005.png,stimuli/rgb_scene000005_render000006.png,0,152,152,41,"[0, 1]",left,0,666,24,f,y,y,2019_Apr_29_1454,2AFC_task,59.927109337977306,
stimuli/rgb_scene000004_render000002.png,stimuli/rgb_scene000004_render000003.png,0,153,153,11,"[0, 1]",right,1,666,24,f,y,y,2019_Apr_29_1454,2AFC_task,59.927109337977306,
stimuli/rgb_scene000095_render000001.png,stimuli/rgb_scene000095_render000006.png,0,154,154,94,"[0, 1]",right,1,666,24,f,y,y,2019_Apr_29_1454,2AFC_task,59.927109337977306,
stimuli/rgb_scene000012_render000002.png,stimuli/rgb_scene000012_render000005.png,0,155,155,55,"[0, 1]",right,1,666,24,f,y,y,2019_Apr_29_1454,2AFC_task,59.927109337977306,
stimuli/rgb_scene000090_render000003.png,stimuli/rgb_scene000090_render000006.png,0,156,156,80,"[1, 0]",right,0,666,24,f,y,y,2019_Apr_29_1454,2AFC_task,59.927109337977306,
stimuli/rgb_scene000113_render000001.png,stimuli/rgb_scene000113_render000006.png,0,157,157,157,"[0, 1]",right,1,666,24,f,y,y,2019_Apr_29_1454,2AFC_task,59.927109337977306,
stimuli/rgb_scene000096_render000001.png,stimuli/rgb_scene000096_render000002.png,0,158,158,111,"[1, 0]",left,1,666,24,f,y,y,2019_Apr_29_1454,2AFC_task,59.927109337977306,
stimuli/rgb_scene000096_render000001.png,stimuli/rgb_scene000096_render000005.png,0,159,159,114,"[0, 1]",right,1,666,24,f,y,y,2019_Apr_29_1454,2AFC_task,59.927109337977306,
stimuli/rgb_scene000004_render000004.png,stimuli/rgb_scene000004_render000005.png,0,160,160,18,"[0, 1]",right,1,666,24,f,y,y,2019_Apr_29_1454,2AFC_task,59.927109337977306,
stimuli/rgb_scene000113_render000001.png,stimuli/rgb_scene000113_render000004.png,0,161,161,155,"[1, 0]",left,1,666,24,f,y,y,2019_Apr_29_1454,2AFC_task,59.927109337977306,
stimuli/rgb_scene000096_render000002.png,stimuli/rgb_scene000096_render000006.png,0,162,162,119,"[0, 1]",right,1,666,24,f,y,y,2019_Apr_29_1454,2AFC_task,59.927109337977306,
stimuli/rgb_scene000113_render000001.png,stimuli/rgb_scene000113_render000005.png,0,163,163,156,"[0, 1]",right,1,666,24,f,y,y,2019_Apr_29_1454,2AFC_task,59.927109337977306,
stimuli/rgb_scene000102_render000002.png,stimuli/rgb_scene000102_render000005.png,0,164,164,139,"[1, 0]",left,1,666,24,f,y,y,2019_Apr_29_1454,2AFC_task,59.927109337977306,
stimuli/rgb_scene000095_render000001.png,stimuli/rgb_scene000095_render000005.png,0,165,165,93,"[1, 0]",left,1,666,24,f,y,y,2019_Apr_29_1454,2AFC_task,59.927109337977306,
stimuli/rgb_scene000102_render000002.png,stimuli/rgb_scene000102_render000006.png,0,166,166,140,"[0, 1]",right,1,666,24,f,y,y,2019_Apr_29_1454,2AFC_task,59.927109337977306,
stimuli/rgb_scene000090_render000000.png,stimuli/rgb_scene000090_render000001.png,0,167,167,63,"[1, 0]",left,1,666,24,f,y,y,2019_Apr_29_1454,2AFC_task,59.927109337977306,
stimuli/rgb_scene000195_render000000.png,stimuli/rgb_scene000195_render000002.png,0,168,168,190,"[1, 0]",left,1,666,24,f,y,y,2019_Apr_29_1454,2AFC_task,59.927109337977306,
stimuli/rgb_scene000004_render000000.png,stimuli/rgb_scene000004_render000004.png,0,169,169,3,"[1, 0]",left,1,666,24,f,y,y,2019_Apr_29_1454,2AFC_task,59.927109337977306,
stimuli/rgb_scene000090_render000003.png,stimuli/rgb_scene000090_render000004.png,0,170,170,78,"[1, 0]",right,0,666,24,f,y,y,2019_Apr_29_1454,2AFC_task,59.927109337977306,
stimuli/rgb_scene000090_render000003.png,stimuli/rgb_scene000090_render000005.png,0,171,171,79,"[1, 0]",right,0,666,24,f,y,y,2019_Apr_29_1454,2AFC_task,59.927109337977306,
stimuli/rgb_scene000004_render000000.png,stimuli/rgb_scene000004_render000002.png,0,172,172,1,"[0, 1]",right,1,666,24,f,y,y,2019_Apr_29_1454,2AFC_task,59.927109337977306,
stimuli/rgb_scene000102_render000002.png,stimuli/rgb_scene000102_render000004.png,0,173,173,138,"[1, 0]",left,1,666,24,f,y,y,2019_Apr_29_1454,2AFC_task,59.927109337977306,
stimuli/rgb_scene000113_render000002.png,stimuli/rgb_scene000113_render000006.png,0,174,174,161,"[1, 0]",left,1,666,24,f,y,y,2019_Apr_29_1454,2AFC_task,59.927109337977306,
stimuli/rgb_scene000146_render000000.png,stimuli/rgb_scene000146_render000002.png,0,175,175,169,"[1, 0]",left,1,666,24,f,y,y,2019_Apr_29_1454,2AFC_task,59.927109337977306,
stimuli/rgb_scene000195_render000001.png,stimuli/rgb_scene000195_render000003.png,0,176,176,196,"[0, 1]",right,1,666,24,f,y,y,2019_Apr_29_1454,2AFC_task,59.927109337977306,
stimuli/rgb_scene000096_render000000.png,stimuli/rgb_scene000096_render000005.png,0,177,177,109,"[1, 0]",left,1,666,24,f,y,y,2019_Apr_29_1454,2AFC_task,59.927109337977306,
stimuli/rgb_scene000113_render000003.png,stimuli/rgb_scene000113_render000004.png,0,178,178,162,"[1, 0]",right,0,666,24,f,y,y,2019_Apr_29_1454,2AFC_task,59.927109337977306,
stimuli/rgb_scene000096_render000003.png,stimuli/rgb_scene000096_render000006.png,0,179,179,122,"[1, 0]",left,1,666,24,f,y,y,2019_Apr_29_1454,2AFC_task,59.927109337977306,
stimuli/rgb_scene000005_render000000.png,stimuli/rgb_scene000005_render000005.png,0,180,180,25,"[1, 0]",right,0,666,24,f,y,y,2019_Apr_29_1454,2AFC_task,59.927109337977306,
stimuli/rgb_scene000096_render000000.png,stimuli/rgb_scene000096_render000001.png,0,181,181,105,"[1, 0]",left,1,666,24,f,y,y,2019_Apr_29_1454,2AFC_task,59.927109337977306,
stimuli/rgb_scene000090_render000001.png,stimuli/rgb_scene000090_render000002.png,0,182,182,69,"[1, 0]",right,0,666,24,f,y,y,2019_Apr_29_1454,2AFC_task,59.927109337977306,
stimuli/rgb_scene000095_render000002.png,stimuli/rgb_scene000095_render000006.png,0,183,183,98,"[1, 0]",left,1,666,24,f,y,y,2019_Apr_29_1454,2AFC_task,59.927109337977306,
stimuli/rgb_scene000113_render000000.png,stimuli/rgb_scene000113_render000004.png,0,184,184,150,"[0, 1]",left,0,666,24,f,y,y,2019_Apr_29_1454,2AFC_task,59.927109337977306,
stimuli/rgb_scene000005_render000001.png,stimuli/rgb_scene000005_render000006.png,0,185,185,31,"[1, 0]",right,0,666,24,f,y,y,2019_Apr_29_1454,2AFC_task,59.927109337977306,
stimuli/rgb_scene000113_render000000.png,stimuli/rgb_scene000113_render000005.png,0,186,186,151,"[1, 0]",left,1,666,24,f,y,y,2019_Apr_29_1454,2AFC_task,59.927109337977306,
stimuli/rgb_scene000090_render000002.png,stimuli/rgb_scene000090_render000006.png,0,187,187,77,"[1, 0]",right,0,666,24,f,y,y,2019_Apr_29_1454,2AFC_task,59.927109337977306,
stimuli/rgb_scene000090_render000000.png,stimuli/rgb_scene000090_render000002.png,0,188,188,64,"[0, 1]",left,0,666,24,f,y,y,2019_Apr_29_1454,2AFC_task,59.927109337977306,
stimuli/rgb_scene000012_render000000.png,stimuli/rgb_scene000012_render000003.png,0,189,189,44,"[1, 0]",left,1,666,24,f,y,y,2019_Apr_29_1454,2AFC_task,59.927109337977306,
stimuli/rgb_scene000005_render000003.png,stimuli/rgb_scene000005_render000004.png,0,190,190,36,"[1, 0]",left,1,666,24,f,y,y,2019_Apr_29_1454,2AFC_task,59.927109337977306,
stimuli/rgb_scene000113_render000002.png,stimuli/rgb_scene000113_render000004.png,0,191,191,159,"[1, 0]",right,0,666,24,f,y,y,2019_Apr_29_1454,2AFC_task,59.927109337977306,
stimuli/rgb_scene000004_render000001.png,stimuli/rgb_scene000004_render000006.png,0,192,192,10,"[0, 1]",left,0,666,24,f,y,y,2019_Apr_29_1454,2AFC_task,59.927109337977306,
stimuli/rgb_scene000195_render000000.png,stimuli/rgb_scene000195_render000001.png,0,193,193,189,"[1, 0]",right,0,666,24,f,y,y,2019_Apr_29_1454,2AFC_task,59.927109337977306,
stimuli/rgb_scene000113_render000001.png,stimuli/rgb_scene000113_render000003.png,0,194,194,154,"[0, 1]",right,1,666,24,f,y,y,2019_Apr_29_1454,2AFC_task,59.927109337977306,
stimuli/rgb_scene000102_render000000.png,stimuli/rgb_scene000102_render000001.png,0,195,195,126,"[1, 0]",left,1,666,24,f,y,y,2019_Apr_29_1454,2AFC_task,59.927109337977306,
stimuli/rgb_scene000012_render000002.png,stimuli/rgb_scene000012_render000006.png,0,196,196,56,"[1, 0]",left,1,666,24,f,y,y,2019_Apr_29_1454,2AFC_task,59.927109337977306,
stimuli/rgb_scene000113_render000002.png,stimuli/rgb_scene000113_render000005.png,0,197,197,160,"[1, 0]",left,1,666,24,f,y,y,2019_Apr_29_1454,2AFC_task,59.927109337977306,
stimuli/rgb_scene000102_render000003.png,stimuli/rgb_scene000102_render000005.png,0,198,198,142,"[0, 1]",left,0,666,24,f,y,y,2019_Apr_29_1454,2AFC_task,59.927109337977306,
stimuli/rgb_scene000095_render000003.png,stimuli/rgb_scene000095_render000004.png,0,199,199,99,"[0, 1]",right,1,666,24,f,y,y,2019_Apr_29_1454,2AFC_task,59.927109337977306,
stimuli/rgb_scene000102_render000001.png,stimuli/rgb_scene000102_render000004.png,0,200,200,134,"[1, 0]",left,1,666,24,f,y,y,2019_Apr_29_1454,2AFC_task,59.927109337977306,
stimuli/rgb_scene000102_render000001.png,stimuli/rgb_scene000102_render000005.png,0,201,201,135,"[1, 0]",left,1,666,24,f,y,y,2019_Apr_29_1454,2AFC_task,59.927109337977306,
stimuli/rgb_scene000012_render000000.png,stimuli/rgb_scene000012_render000005.png,0,202,202,46,"[1, 0]",left,1,666,24,f,y,y,2019_Apr_29_1454,2AFC_task,59.927109337977306,
stimuli/rgb_scene000102_render000001.png,stimuli/rgb_scene000102_render000002.png,0,203,203,132,"[0, 1]",right,1,666,24,f,y,y,2019_Apr_29_1454,2AFC_task,59.927109337977306,
stimuli/rgb_scene000096_render000001.png,stimuli/rgb_scene000096_render000006.png,0,204,204,115,"[0, 1]",right,1,666,24,f,y,y,2019_Apr_29_1454,2AFC_task,59.927109337977306,
stimuli/rgb_scene000004_render000000.png,stimuli/rgb_scene000004_render000003.png,0,205,205,2,"[0, 1]",right,1,666,24,f,y,y,2019_Apr_29_1454,2AFC_task,59.927109337977306,
stimuli/rgb_scene000004_render000004.png,stimuli/rgb_scene000004_render000006.png,0,206,206,19,"[1, 0]",right,0,666,24,f,y,y,2019_Apr_29_1454,2AFC_task,59.927109337977306,
stimuli/rgb_scene000095_render000001.png,stimuli/rgb_scene000095_render000004.png,0,207,207,92,"[1, 0]",left,1,666,24,f,y,y,2019_Apr_29_1454,2AFC_task,59.927109337977306,
stimuli/rgb_scene000095_render000000.png,stimuli/rgb_scene000095_render000001.png,0,208,208,84,"[0, 1]",right,1,666,24,f,y,y,2019_Apr_29_1454,2AFC_task,59.927109337977306,
stimuli/rgb_scene000012_render000001.png,stimuli/rgb_scene000012_render000003.png,0,209,209,49,"[0, 1]",right,1,666,24,f,y,y,2019_Apr_29_1454,2AFC_task,59.927109337977306,
stimuli/rgb_scene000113_render000002.png,stimuli/rgb_scene000113_render000006.png,1,0,210,161,"[0, 1]",right,1,666,24,f,y,y,2019_Apr_29_1454,2AFC_task,59.927109337977306,
stimuli/rgb_scene000095_render000003.png,stimuli/rgb_scene000095_render000006.png,1,1,211,101,"[0, 1]",left,0,666,24,f,y,y,2019_Apr_29_1454,2AFC_task,59.927109337977306,
stimuli/rgb_scene000012_render000003.png,stimuli/rgb_scene000012_render000006.png,1,2,212,59,"[1, 0]",right,0,666,24,f,y,y,2019_Apr_29_1454,2AFC_task,59.927109337977306,
stimuli/rgb_scene000102_render000004.png,stimuli/rgb_scene000102_render000006.png,1,3,213,145,"[1, 0]",left,1,666,24,f,y,y,2019_Apr_29_1454,2AFC_task,59.927109337977306,
stimuli/rgb_scene000095_render000001.png,stimuli/rgb_scene000095_render000006.png,1,4,214,94,"[1, 0]",left,1,666,24,f,y,y,2019_Apr_29_1454,2AFC_task,59.927109337977306,
stimuli/rgb_scene000004_render000000.png,stimuli/rgb_scene000004_render000003.png,1,5,215,2,"[1, 0]",left,1,666,24,f,y,y,2019_Apr_29_1454,2AFC_task,59.927109337977306,
stimuli/rgb_scene000146_render000000.png,stimuli/rgb_scene000146_render000001.png,1,6,216,168,"[1, 0]",right,0,666,24,f,y,y,2019_Apr_29_1454,2AFC_task,59.927109337977306,
stimuli/rgb_scene000012_render000002.png,stimuli/rgb_scene000012_render000005.png,1,7,217,55,"[0, 1]",right,1,666,24,f,y,y,2019_Apr_29_1454,2AFC_task,59.927109337977306,
stimuli/rgb_scene000113_render000001.png,stimuli/rgb_scene000113_render000002.png,1,8,218,153,"[0, 1]",right,1,666,24,f,y,y,2019_Apr_29_1454,2AFC_task,59.927109337977306,
stimuli/rgb_scene000102_render000002.png,stimuli/rgb_scene000102_render000003.png,1,9,219,137,"[1, 0]",left,1,666,24,f,y,y,2019_Apr_29_1454,2AFC_task,59.927109337977306,
stimuli/rgb_scene000012_render000001.png,stimuli/rgb_scene000012_render000006.png,1,10,220,52,"[0, 1]",right,1,666,24,f,y,y,2019_Apr_29_1454,2AFC_task,59.927109337977306,
stimuli/rgb_scene000113_render000004.png,stimuli/rgb_scene000113_render000005.png,1,11,221,165,"[0, 1]",left,0,666,24,f,y,y,2019_Apr_29_1454,2AFC_task,59.927109337977306,
stimuli/rgb_scene000090_render000000.png,stimuli/rgb_scene000090_render000006.png,1,12,222,68,"[1, 0]",left,1,666,24,f,y,y,2019_Apr_29_1454,2AFC_task,59.927109337977306,
stimuli/rgb_scene000095_render000001.png,stimuli/rgb_scene000095_render000004.png,1,13,223,92,"[1, 0]",right,0,666,24,f,y,y,2019_Apr_29_1454,2AFC_task,59.927109337977306,
stimuli/rgb_scene000113_render000003.png,stimuli/rgb_scene000113_render000005.png,1,14,224,163,"[1, 0]",right,0,666,24,f,y,y,2019_Apr_29_1454,2AFC_task,59.927109337977306,
stimuli/rgb_scene000102_render000001.png,stimuli/rgb_scene000102_render000004.png,1,15,225,134,"[1, 0]",left,1,666,24,f,y,y,2019_Apr_29_1454,2AFC_task,59.927109337977306,
stimuli/rgb_scene000012_render000001.png,stimuli/rgb_scene000012_render000002.png,1,16,226,48,"[1, 0]",left,1,666,24,f,y,y,2019_Apr_29_1454,2AFC_task,59.927109337977306,
stimuli/rgb_scene000146_render000002.png,stimuli/rgb_scene000146_render000006.png,1,17,227,182,"[1, 0]",right,0,666,24,f,y,y,2019_Apr_29_1454,2AFC_task,59.927109337977306,
stimuli/rgb_scene000113_render000000.png,stimuli/rgb_scene000113_render000006.png,1,18,228,152,"[1, 0]",right,0,666,24,f,y,y,2019_Apr_29_1454,2AFC_task,59.927109337977306,
stimuli/rgb_scene000004_render000003.png,stimuli/rgb_scene000004_render000006.png,1,19,229,17,"[1, 0]",right,0,666,24,f,y,y,2019_Apr_29_1454,2AFC_task,59.927109337977306,
stimuli/rgb_scene000096_render000004.png,stimuli/rgb_scene000096_render000005.png,1,20,230,123,"[0, 1]",right,1,666,24,f,y,y,2019_Apr_29_1454,2AFC_task,59.927109337977306,
stimuli/rgb_scene000146_render000004.png,stimuli/rgb_scene000146_render000005.png,1,21,231,186,"[0, 1]",left,0,666,24,f,y,y,2019_Apr_29_1454,2AFC_task,59.927109337977306,
stimuli/rgb_scene000004_render000004.png,stimuli/rgb_scene000004_render000006.png,1,22,232,19,"[0, 1]",right,1,666,24,f,y,y,2019_Apr_29_1454,2AFC_task,59.927109337977306,
stimuli/rgb_scene000012_render000002.png,stimuli/rgb_scene000012_render000004.png,1,23,233,54,"[0, 1]",right,1,666,24,f,y,y,2019_Apr_29_1454,2AFC_task,59.927109337977306,
stimuli/rgb_scene000102_render000002.png,stimuli/rgb_scene000102_render000006.png,1,24,234,140,"[0, 1]",right,1,666,24,f,y,y,2019_Apr_29_1454,2AFC_task,59.927109337977306,
stimuli/rgb_scene000113_render000000.png,stimuli/rgb_scene000113_render000003.png,1,25,235,149,"[0, 1]",right,1,666,24,f,y,y,2019_Apr_29_1454,2AFC_task,59.927109337977306,
stimuli/rgb_scene000012_render000003.png,stimuli/rgb_scene000012_render000005.png,1,26,236,58,"[1, 0]",left,1,666,24,f,y,y,2019_Apr_29_1454,2AFC_task,59.927109337977306,
stimuli/rgb_scene000095_render000002.png,stimuli/rgb_scene000095_render000005.png,1,27,237,97,"[1, 0]",left,1,666,24,f,y,y,2019_Apr_29_1454,2AFC_task,59.927109337977306,
stimuli/rgb_scene000090_render000004.png,stimuli/rgb_scene000090_render000006.png,1,28,238,82,"[0, 1]",left,0,666,24,f,y,y,2019_Apr_29_1454,2AFC_task,59.927109337977306,
stimuli/rgb_scene000096_render000005.png,stimuli/rgb_scene000096_render000006.png,1,29,239,125,"[1, 0]",left,1,666,24,f,y,y,2019_Apr_29_1454,2AFC_task,59.927109337977306,
stimuli/rgb_scene000146_render000002.png,stimuli/rgb_scene000146_render000003.png,1,30,240,179,"[0, 1]",right,1,666,24,f,y,y,2019_Apr_29_1454,2AFC_task,59.927109337977306,
stimuli/rgb_scene000102_render000001.png,stimuli/rgb_scene000102_render000003.png,1,31,241,133,"[0, 1]",right,1,666,24,f,y,y,2019_Apr_29_1454,2AFC_task,59.927109337977306,
stimuli/rgb_scene000004_render000004.png,stimuli/rgb_scene000004_render000005.png,1,32,242,18,"[0, 1]",left,0,666,24,f,y,y,2019_Apr_29_1454,2AFC_task,59.927109337977306,
stimuli/rgb_scene000005_render000002.png,stimuli/rgb_scene000005_render000005.png,1,33,243,34,"[0, 1]",left,0,666,24,f,y,y,2019_Apr_29_1454,2AFC_task,59.927109337977306,
stimuli/rgb_scene000005_render000002.png,stimuli/rgb_scene000005_render000003.png,1,34,244,32,"[1, 0]",left,1,666,24,f,y,y,2019_Apr_29_1454,2AFC_task,59.927109337977306,
stimuli/rgb_scene000012_render000000.png,stimuli/rgb_scene000012_render000003.png,1,35,245,44,"[1, 0]",left,1,666,24,f,y,y,2019_Apr_29_1454,2AFC_task,59.927109337977306,
stimuli/rgb_scene000195_render000001.png,stimuli/rgb_scene000195_render000003.png,1,36,246,196,"[0, 1]",right,1,666,24,f,y,y,2019_Apr_29_1454,2AFC_task,59.927109337977306,
stimuli/rgb_scene000195_render000002.png,stimuli/rgb_scene000195_render000003.png,1,37,247,200,"[1, 0]",left,1,666,24,f,y,y,2019_Apr_29_1454,2AFC_task,59.927109337977306,
stimuli/rgb_scene000005_render000000.png,stimuli/rgb_scene000005_render000002.png,1,38,248,22,"[1, 0]",left,1,666,24,f,y,y,2019_Apr_29_1454,2AFC_task,59.927109337977306,
stimuli/rgb_scene000095_render000003.png,stimuli/rgb_scene000095_render000004.png,1,39,249,99,"[1, 0]",left,1,666,24,f,y,y,2019_Apr_29_1454,2AFC_task,59.927109337977306,
stimuli/rgb_scene000005_render000001.png,stimuli/rgb_scene000005_render000004.png,1,40,250,29,"[1, 0]",left,1,666,24,f,y,y,2019_Apr_29_1454,2AFC_task,59.927109337977306,
stimuli/rgb_scene000113_render000001.png,stimuli/rgb_scene000113_render000004.png,1,41,251,155,"[1, 0]",right,0,666,24,f,y,y,2019_Apr_29_1454,2AFC_task,59.927109337977306,
stimuli/rgb_scene000195_render000000.png,stimuli/rgb_scene000195_render000001.png,1,42,252,189,"[1, 0]",left,1,666,24,f,y,y,2019_Apr_29_1454,2AFC_task,59.927109337977306,
stimuli/rgb_scene000096_render000002.png,stimuli/rgb_scene000096_render000003.png,1,43,253,116,"[0, 1]",right,1,666,24,f,y,y,2019_Apr_29_1454,2AFC_task,59.927109337977306,
stimuli/rgb_scene000095_render000002.png,stimuli/rgb_scene000095_render000003.png,1,44,254,95,"[1, 0]",left,1,666,24,f,y,y,2019_Apr_29_1454,2AFC_task,59.927109337977306,
stimuli/rgb_scene000004_render000000.png,stimuli/rgb_scene000004_render000001.png,1,45,255,0,"[1, 0]",left,1,666,24,f,y,y,2019_Apr_29_1454,2AFC_task,59.927109337977306,
stimuli/rgb_scene000005_render000003.png,stimuli/rgb_scene000005_render000006.png,1,46,256,38,"[0, 1]",left,0,666,24,f,y,y,2019_Apr_29_1454,2AFC_task,59.927109337977306,
stimuli/rgb_scene000113_render000005.png,stimuli/rgb_scene000113_render000006.png,1,47,257,167,"[0, 1]",left,0,666,24,f,y,y,2019_Apr_29_1454,2AFC_task,59.927109337977306,
stimuli/rgb_scene000090_render000002.png,stimuli/rgb_scene000090_render000006.png,1,48,258,77,"[1, 0]",right,0,666,24,f,y,y,2019_Apr_29_1454,2AFC_task,59.927109337977306,
stimuli/rgb_scene000004_render000003.png,stimuli/rgb_scene000004_render000005.png,1,49,259,16,"[0, 1]",left,0,666,24,f,y,y,2019_Apr_29_1454,2AFC_task,59.927109337977306,
stimuli/rgb_scene000113_render000002.png,stimuli/rgb_scene000113_render000004.png,1,50,260,159,"[0, 1]",right,1,666,24,f,y,y,2019_Apr_29_1454,2AFC_task,59.927109337977306,
stimuli/rgb_scene000146_render000003.png,stimuli/rgb_scene000146_render000004.png,1,51,261,183,"[0, 1]",left,0,666,24,f,y,y,2019_Apr_29_1454,2AFC_task,59.927109337977306,
stimuli/rgb_scene000113_render000001.png,stimuli/rgb_scene000113_render000003.png,1,52,262,154,"[0, 1]",right,1,666,24,f,y,y,2019_Apr_29_1454,2AFC_task,59.927109337977306,
stimuli/rgb_scene000146_render000001.png,stimuli/rgb_scene000146_render000003.png,1,53,263,175,"[0, 1]",right,1,666,24,f,y,y,2019_Apr_29_1454,2AFC_task,59.927109337977306,
stimuli/rgb_scene000195_render000004.png,stimuli/rgb_scene000195_render000005.png,1,54,264,207,"[1, 0]",right,0,666,24,f,y,y,2019_Apr_29_1454,2AFC_task,59.927109337977306,
stimuli/rgb_scene000096_render000001.png,stimuli/rgb_scene000096_render000006.png,1,55,265,115,"[1, 0]",left,1,666,24,f,y,y,2019_Apr_29_1454,2AFC_task,59.927109337977306,
stimuli/rgb_scene000146_render000001.png,stimuli/rgb_scene000146_render000004.png,1,56,266,176,"[1, 0]",left,1,666,24,f,y,y,2019_Apr_29_1454,2AFC_task,59.927109337977306,
stimuli/rgb_scene000005_render000001.png,stimuli/rgb_scene000005_render000006.png,1,57,267,31,"[1, 0]",right,0,666,24,f,y,y,2019_Apr_29_1454,2AFC_task,59.927109337977306,
stimuli/rgb_scene000004_render000002.png,stimuli/rgb_scene000004_render000004.png,1,58,268,12,"[0, 1]",right,1,666,24,f,y,y,2019_Apr_29_1454,2AFC_task,59.927109337977306,
stimuli/rgb_scene000004_render000001.png,stimuli/rgb_scene000004_render000003.png,1,59,269,7,"[0, 1]",right,1,666,24,f,y,y,2019_Apr_29_1454,2AFC_task,59.927109337977306,
stimuli/rgb_scene000005_render000004.png,stimuli/rgb_scene000005_render000006.png,1,60,270,40,"[1, 0]",right,0,666,24,f,y,y,2019_Apr_29_1454,2AFC_task,59.927109337977306,
stimuli/rgb_scene000195_render000000.png,stimuli/rgb_scene000195_render000003.png,1,61,271,191,"[0, 1]",right,1,666,24,f,y,y,2019_Apr_29_1454,2AFC_task,59.927109337977306,
stimuli/rgb_scene000012_render000001.png,stimuli/rgb_scene000012_render000003.png,1,62,272,49,"[1, 0]",left,1,666,24,f,y,y,2019_Apr_29_1454,2AFC_task,59.927109337977306,
stimuli/rgb_scene000096_render000003.png,stimuli/rgb_scene000096_render000006.png,1,63,273,122,"[0, 1]",right,1,666,24,f,y,y,2019_Apr_29_1454,2AFC_task,59.927109337977306,
stimuli/rgb_scene000096_render000001.png,stimuli/rgb_scene000096_render000004.png,1,64,274,113,"[0, 1]",right,1,666,24,f,y,y,2019_Apr_29_1454,2AFC_task,59.927109337977306,
stimuli/rgb_scene000090_render000001.png,stimuli/rgb_scene000090_render000006.png,1,65,275,73,"[0, 1]",left,0,666,24,f,y,y,2019_Apr_29_1454,2AFC_task,59.927109337977306,
stimuli/rgb_scene000012_render000000.png,stimuli/rgb_scene000012_render000002.png,1,66,276,43,"[1, 0]",left,1,666,24,f,y,y,2019_Apr_29_1454,2AFC_task,59.927109337977306,
stimuli/rgb_scene000095_render000005.png,stimuli/rgb_scene000095_render000006.png,1,67,277,104,"[1, 0]",left,1,666,24,f,y,y,2019_Apr_29_1454,2AFC_task,59.927109337977306,
stimuli/rgb_scene000095_render000002.png,stimuli/rgb_scene000095_render000004.png,1,68,278,96,"[1, 0]",left,1,666,24,f,y,y,2019_Apr_29_1454,2AFC_task,59.927109337977306,
stimuli/rgb_scene000096_render000002.png,stimuli/rgb_scene000096_render000005.png,1,69,279,118,"[1, 0]",left,1,666,24,f,y,y,2019_Apr_29_1454,2AFC_task,59.927109337977306,
stimuli/rgb_scene000096_render000000.png,stimuli/rgb_scene000096_render000002.png,1,70,280,106,"[1, 0]",left,1,666,24,f,y,y,2019_Apr_29_1454,2AFC_task,59.927109337977306,
stimuli/rgb_scene000095_render000004.png,stimuli/rgb_scene000095_render000005.png,1,71,281,102,"[0, 1]",right,1,666,24,f,y,y,2019_Apr_29_1454,2AFC_task,59.927109337977306,
stimuli/rgb_scene000012_render000000.png,stimuli/rgb_scene000012_render000001.png,1,72,282,42,"[1, 0]",left,1,666,24,f,y,y,2019_Apr_29_1454,2AFC_task,59.927109337977306,
stimuli/rgb_scene000090_render000005.png,stimuli/rgb_scene000090_render000006.png,1,73,283,83,"[0, 1]",right,1,666,24,f,y,y,2019_Apr_29_1454,2AFC_task,59.927109337977306,
stimuli/rgb_scene000095_render000002.png,stimuli/rgb_scene000095_render000006.png,1,74,284,98,"[0, 1]",right,1,666,24,f,y,y,2019_Apr_29_1454,2AFC_task,59.927109337977306,
stimuli/rgb_scene000090_render000000.png,stimuli/rgb_scene000090_render000004.png,1,75,285,66,"[1, 0]",left,1,666,24,f,y,y,2019_Apr_29_1454,2AFC_task,59.927109337977306,
stimuli/rgb_scene000095_render000000.png,stimuli/rgb_scene000095_render000003.png,1,76,286,86,"[1, 0]",left,1,666,24,f,y,y,2019_Apr_29_1454,2AFC_task,59.927109337977306,
stimuli/rgb_scene000090_render000003.png,stimuli/rgb_scene000090_render000005.png,1,77,287,79,"[1, 0]",left,1,666,24,f,y,y,2019_Apr_29_1454,2AFC_task,59.927109337977306,
stimuli/rgb_scene000012_render000000.png,stimuli/rgb_scene000012_render000006.png,1,78,288,47,"[1, 0]",left,1,666,24,f,y,y,2019_Apr_29_1454,2AFC_task,59.927109337977306,
stimuli/rgb_scene000096_render000001.png,stimuli/rgb_scene000096_render000005.png,1,79,289,114,"[0, 1]",right,1,666,24,f,y,y,2019_Apr_29_1454,2AFC_task,59.927109337977306,
stimuli/rgb_scene000195_render000002.png,stimuli/rgb_scene000195_render000006.png,1,80,290,203,"[1, 0]",right,0,666,24,f,y,y,2019_Apr_29_1454,2AFC_task,59.927109337977306,
stimuli/rgb_scene000195_render000001.png,stimuli/rgb_scene000195_render000005.png,1,81,291,198,"[1, 0]",right,0,666,24,f,y,y,2019_Apr_29_1454,2AFC_task,59.927109337977306,
stimuli/rgb_scene000102_render000000.png,stimuli/rgb_scene000102_render000003.png,1,82,292,128,"[0, 1]",right,1,666,24,f,y,y,2019_Apr_29_1454,2AFC_task,59.927109337977306,
stimuli/rgb_scene000113_render000001.png,stimuli/rgb_scene000113_render000005.png,1,83,293,156,"[0, 1]",right,1,666,24,f,y,y,2019_Apr_29_1454,2AFC_task,59.927109337977306,
stimuli/rgb_scene000005_render000000.png,stimuli/rgb_scene000005_render000004.png,1,84,294,24,"[0, 1]",right,1,666,24,f,y,y,2019_Apr_29_1454,2AFC_task,59.927109337977306,
stimuli/rgb_scene000005_render000002.png,stimuli/rgb_scene000005_render000004.png,1,85,295,33,"[1, 0]",right,0,666,24,f,y,y,2019_Apr_29_1454,2AFC_task,59.927109337977306,
stimuli/rgb_scene000102_render000003.png,stimuli/rgb_scene000102_render000006.png,1,86,296,143,"[0, 1]",left,0,666,24,f,y,y,2019_Apr_29_1454,2AFC_task,59.927109337977306,
stimuli/rgb_scene000096_render000004.png,stimuli/rgb_scene000096_render000006.png,1,87,297,124,"[0, 1]",right,1,666,24,f,y,y,2019_Apr_29_1454,2AFC_task,59.927109337977306,
stimuli/rgb_scene000096_render000000.png,stimuli/rgb_scene000096_render000005.png,1,88,298,109,"[1, 0]",left,1,666,24,f,y,y,2019_Apr_29_1454,2AFC_task,59.927109337977306,
stimuli/rgb_scene000102_render000000.png,stimuli/rgb_scene000102_render000004.png,1,89,299,129,"[1, 0]",left,1,666,24,f,y,y,2019_Apr_29_1454,2AFC_task,59.927109337977306,
stimuli/rgb_scene000004_render000002.png,stimuli/rgb_scene000004_render000003.png,1,90,300,11,"[1, 0]",left,1,666,24,f,y,y,2019_Apr_29_1454,2AFC_task,59.927109337977306,
stimuli/rgb_scene000195_render000003.png,stimuli/rgb_scene000195_render000005.png,1,91,301,205,"[1, 0]",right,0,666,24,f,y,y,2019_Apr_29_1454,2AFC_task,59.927109337977306,
stimuli/rgb_scene000090_render000003.png,stimuli/rgb_scene000090_render000006.png,1,92,302,80,"[1, 0]",right,0,666,24,f,y,y,2019_Apr_29_1454,2AFC_task,59.927109337977306,
stimuli/rgb_scene000005_render000000.png,stimuli/rgb_scene000005_render000003.png,1,93,303,23,"[0, 1]",right,1,666,24,f,y,y,2019_Apr_29_1454,2AFC_task,59.927109337977306,
stimuli/rgb_scene000096_render000001.png,stimuli/rgb_scene000096_render000003.png,1,94,304,112,"[0, 1]",right,1,666,24,f,y,y,2019_Apr_29_1454,2AFC_task,59.927109337977306,
stimuli/rgb_scene000195_render000002.png,stimuli/rgb_scene000195_render000005.png,1,95,305,202,"[1, 0]",left,1,666,24,f,y,y,2019_Apr_29_1454,2AFC_task,59.927109337977306,
stimuli/rgb_scene000090_render000003.png,stimuli/rgb_scene000090_render000004.png,1,96,306,78,"[1, 0]",right,0,666,24,f,y,y,2019_Apr_29_1454,2AFC_task,59.927109337977306,
stimuli/rgb_scene000146_render000001.png,stimuli/rgb_scene000146_render000006.png,1,97,307,178,"[0, 1]",right,1,666,24,f,y,y,2019_Apr_29_1454,2AFC_task,59.927109337977306,
stimuli/rgb_scene000102_render000003.png,stimuli/rgb_scene000102_render000005.png,1,98,308,142,"[1, 0]",left,1,666,24,f,y,y,2019_Apr_29_1454,2AFC_task,59.927109337977306,
stimuli/rgb_scene000012_render000003.png,stimuli/rgb_scene000012_render000004.png,1,99,309,57,"[0, 1]",right,1,666,24,f,y,y,2019_Apr_29_1454,2AFC_task,59.927109337977306,
stimuli/rgb_scene000005_render000003.png,stimuli/rgb_scene000005_render000004.png,1,100,310,36,"[0, 1]",left,0,666,24,f,y,y,2019_Apr_29_1454,2AFC_task,59.927109337977306,
stimuli/rgb_scene000095_render000003.png,stimuli/rgb_scene000095_render000005.png,1,101,311,100,"[1, 0]",left,1,666,24,f,y,y,2019_Apr_29_1454,2AFC_task,59.927109337977306,
stimuli/rgb_scene000102_render000000.png,stimuli/rgb_scene000102_render000005.png,1,102,312,130,"[0, 1]",right,1,666,24,f,y,y,2019_Apr_29_1454,2AFC_task,59.927109337977306,
stimuli/rgb_scene000090_render000001.png,stimuli/rgb_scene000090_render000002.png,1,103,313,69,"[0, 1]",right,1,666,24,f,y,y,2019_Apr_29_1454,2AFC_task,59.927109337977306,
stimuli/rgb_scene000113_render000003.png,stimuli/rgb_scene000113_render000004.png,1,104,314,162,"[0, 1]",right,1,666,24,f,y,y,2019_Apr_29_1454,2AFC_task,59.927109337977306,
stimuli/rgb_scene000096_render000003.png,stimuli/rgb_scene000096_render000004.png,1,105,315,120,"[0, 1]",right,1,666,24,f,y,y,2019_Apr_29_1454,2AFC_task,59.927109337977306,
stimuli/rgb_scene000005_render000003.png,stimuli/rgb_scene000005_render000005.png,1,106,316,37,"[0, 1]",left,0,666,24,f,y,y,2019_Apr_29_1454,2AFC_task,59.927109337977306,
stimuli/rgb_scene000095_render000001.png,stimuli/rgb_scene000095_render000002.png,1,107,317,90,"[1, 0]",left,1,666,24,f,y,y,2019_Apr_29_1454,2AFC_task,59.927109337977306,
stimuli/rgb_scene000004_render000000.png,stimuli/rgb_scene000004_render000002.png,1,108,318,1,"[0, 1]",right,1,666,24,f,y,y,2019_Apr_29_1454,2AFC_task,59.927109337977306,
stimuli/rgb_scene000012_render000004.png,stimuli/rgb_scene000012_render000005.png,1,109,319,60,"[1, 0]",left,1,666,24,f,y,y,2019_Apr_29_1454,2AFC_task,59.927109337977306,
stimuli/rgb_scene000090_render000002.png,stimuli/rgb_scene000090_render000003.png,1,110,320,74,"[1, 0]",right,0,666,24,f,y,y,2019_Apr_29_1454,2AFC_task,59.927109337977306,
stimuli/rgb_scene000113_render000000.png,stimuli/rgb_scene000113_render000002.png,1,111,321,148,"[1, 0]",left,1,666,24,f,y,y,2019_Apr_29_1454,2AFC_task,59.927109337977306,
stimuli/rgb_scene000012_render000000.png,stimuli/rgb_scene000012_render000005.png,1,112,322,46,"[0, 1]",right,1,666,24,f,y,y,2019_Apr_29_1454,2AFC_task,59.927109337977306,
stimuli/rgb_scene000096_render000000.png,stimuli/rgb_scene000096_render000001.png,1,113,323,105,"[0, 1]",right,1,666,24,f,y,y,2019_Apr_29_1454,2AFC_task,59.927109337977306,
stimuli/rgb_scene000113_render000004.png,stimuli/rgb_scene000113_render000006.png,1,114,324,166,"[0, 1]",right,1,666,24,f,y,y,2019_Apr_29_1454,2AFC_task,59.927109337977306,
stimuli/rgb_scene000095_render000000.png,stimuli/rgb_scene000095_render000001.png,1,115,325,84,"[1, 0]",left,1,666,24,f,y,y,2019_Apr_29_1454,2AFC_task,59.927109337977306,
stimuli/rgb_scene000102_render000000.png,stimuli/rgb_scene000102_render000002.png,1,116,326,127,"[0, 1]",right,1,666,24,f,y,y,2019_Apr_29_1454,2AFC_task,59.927109337977306,
stimuli/rgb_scene000005_render000002.png,stimuli/rgb_scene000005_render000006.png,1,117,327,35,"[1, 0]",right,0,666,24,f,y,y,2019_Apr_29_1454,2AFC_task,59.927109337977306,
stimuli/rgb_scene000102_render000002.png,stimuli/rgb_scene000102_render000004.png,1,118,328,138,"[0, 1]",right,1,666,24,f,y,y,2019_Apr_29_1454,2AFC_task,59.927109337977306,
stimuli/rgb_scene000005_render000004.png,stimuli/rgb_scene000005_render000005.png,1,119,329,39,"[0, 1]",left,0,666,24,f,y,y,2019_Apr_29_1454,2AFC_task,59.927109337977306,
stimuli/rgb_scene000146_render000005.png,stimuli/rgb_scene000146_render000006.png,1,120,330,188,"[0, 1]",left,0,666,24,f,y,y,2019_Apr_29_1454,2AFC_task,59.927109337977306,
stimuli/rgb_scene000102_render000000.png,stimuli/rgb_scene000102_render000001.png,1,121,331,126,"[1, 0]",left,1,666,24,f,y,y,2019_Apr_29_1454,2AFC_task,59.927109337977306,
stimuli/rgb_scene000090_render000001.png,stimuli/rgb_scene000090_render000005.png,1,122,332,72,"[1, 0]",right,0,666,24,f,y,y,2019_Apr_29_1454,2AFC_task,59.927109337977306,
stimuli/rgb_scene000090_render000002.png,stimuli/rgb_scene000090_render000004.png,1,123,333,75,"[0, 1]",left,0,666,24,f,y,y,2019_Apr_29_1454,2AFC_task,59.927109337977306,
stimuli/rgb_scene000004_render000001.png,stimuli/rgb_scene000004_render000006.png,1,124,334,10,"[1, 0]",right,0,666,24,f,y,y,2019_Apr_29_1454,2AFC_task,59.927109337977306,
stimuli/rgb_scene000090_render000000.png,stimuli/rgb_scene000090_render000003.png,1,125,335,65,"[0, 1]",left,0,666,24,f,y,y,2019_Apr_29_1454,2AFC_task,59.927109337977306,
stimuli/rgb_scene000004_render000001.png,stimuli/rgb_scene000004_render000004.png,1,126,336,8,"[1, 0]",right,0,666,24,f,y,y,2019_Apr_29_1454,2AFC_task,59.927109337977306,
stimuli/rgb_scene000195_render000001.png,stimuli/rgb_scene000195_render000004.png,1,127,337,197,"[0, 1]",left,0,666,24,f,y,y,2019_Apr_29_1454,2AFC_task,59.927109337977306,
stimuli/rgb_scene000113_render000000.png,stimuli/rgb_scene000113_render000001.png,1,128,338,147,"[1, 0]",right,0,666,24,f,y,y,2019_Apr_29_1454,2AFC_task,59.927109337977306,
stimuli/rgb_scene000005_render000005.png,stimuli/rgb_scene000005_render000006.png,1,129,339,41,"[0, 1]",left,0,666,24,f,y,y,2019_Apr_29_1454,2AFC_task,59.927109337977306,
stimuli/rgb_scene000012_render000004.png,stimuli/rgb_scene000012_render000006.png,1,130,340,61,"[1, 0]",right,0,666,24,f,y,y,2019_Apr_29_1454,2AFC_task,59.927109337977306,
stimuli/rgb_scene000146_render000002.png,stimuli/rgb_scene000146_render000004.png,1,131,341,180,"[0, 1]",left,0,666,24,f,y,y,2019_Apr_29_1454,2AFC_task,59.927109337977306,
stimuli/rgb_scene000005_render000001.png,stimuli/rgb_scene000005_render000003.png,1,132,342,28,"[1, 0]",right,0,666,24,f,y,y,2019_Apr_29_1454,2AFC_task,59.927109337977306,
stimuli/rgb_scene000195_render000000.png,stimuli/rgb_scene000195_render000002.png,1,133,343,190,"[1, 0]",left,1,666,24,f,y,y,2019_Apr_29_1454,2AFC_task,59.927109337977306,
stimuli/rgb_scene000102_render000004.png,stimuli/rgb_scene000102_render000005.png,1,134,344,144,"[1, 0]",right,0,666,24,f,y,y,2019_Apr_29_1454,2AFC_task,59.927109337977306,
stimuli/rgb_scene000090_render000002.png,stimuli/rgb_scene000090_render000005.png,1,135,345,76,"[1, 0]",right,0,666,24,f,y,y,2019_Apr_29_1454,2AFC_task,59.927109337977306,
stimuli/rgb_scene000012_render000001.png,stimuli/rgb_scene000012_render000004.png,1,136,346,50,"[1, 0]",left,1,666,24,f,y,y,2019_Apr_29_1454,2AFC_task,59.927109337977306,
stimuli/rgb_scene000012_render000002.png,stimuli/rgb_scene000012_render000003.png,1,137,347,53,"[0, 1]",right,1,666,24,f,y,y,2019_Apr_29_1454,2AFC_task,59.927109337977306,
stimuli/rgb_scene000195_render000000.png,stimuli/rgb_scene000195_render000006.png,1,138,348,194,"[1, 0]",left,1,666,24,f,y,y,2019_Apr_29_1454,2AFC_task,59.927109337977306,
stimuli/rgb_scene000146_render000000.png,stimuli/rgb_scene000146_render000006.png,1,139,349,173,"[1, 0]",left,1,666,24,f,y,y,2019_Apr_29_1454,2AFC_task,59.927109337977306,
stimuli/rgb_scene000095_render000000.png,stimuli/rgb_scene000095_render000002.png,1,140,350,85,"[1, 0]",left,1,666,24,f,y,y,2019_Apr_29_1454,2AFC_task,59.927109337977306,
stimuli/rgb_scene000012_render000005.png,stimuli/rgb_scene000012_render000006.png,1,141,351,62,"[0, 1]",right,1,666,24,f,y,y,2019_Apr_29_1454,2AFC_task,59.927109337977306,
stimuli/rgb_scene000095_render000000.png,stimuli/rgb_scene000095_render000005.png,1,142,352,88,"[0, 1]",right,1,666,24,f,y,y,2019_Apr_29_1454,2AFC_task,59.927109337977306,
stimuli/rgb_scene000095_render000000.png,stimuli/rgb_scene000095_render000006.png,1,143,353,89,"[1, 0]",left,1,666,24,f,y,y,2019_Apr_29_1454,2AFC_task,59.927109337977306,
stimuli/rgb_scene000113_render000002.png,stimuli/rgb_scene000113_render000005.png,1,144,354,160,"[0, 1]",right,1,666,24,f,y,y,2019_Apr_29_1454,2AFC_task,59.927109337977306,
stimuli/rgb_scene000195_render000001.png,stimuli/rgb_scene000195_render000002.png,1,145,355,195,"[1, 0]",left,1,666,24,f,y,y,2019_Apr_29_1454,2AFC_task,59.927109337977306,
stimuli/rgb_scene000195_render000005.png,stimuli/rgb_scene000195_render000006.png,1,146,356,209,"[1, 0]",right,0,666,24,f,y,y,2019_Apr_29_1454,2AFC_task,59.927109337977306,
stimuli/rgb_scene000004_render000002.png,stimuli/rgb_scene000004_render000006.png,1,147,357,14,"[1, 0]",left,1,666,24,f,y,y,2019_Apr_29_1454,2AFC_task,59.927109337977306,
stimuli/rgb_scene000146_render000000.png,stimuli/rgb_scene000146_render000004.png,1,148,358,171,"[0, 1]",right,1,666,24,f,y,y,2019_Apr_29_1454,2AFC_task,59.927109337977306,
stimuli/rgb_scene000004_render000000.png,stimuli/rgb_scene000004_render000004.png,1,149,359,3,"[0, 1]",right,1,666,24,f,y,y,2019_Apr_29_1454,2AFC_task,59.927109337977306,
stimuli/rgb_scene000146_render000001.png,stimuli/rgb_scene000146_render000002.png,1,150,360,174,"[0, 1]",right,1,666,24,f,y,y,2019_Apr_29_1454,2AFC_task,59.927109337977306,
stimuli/rgb_scene000113_render000000.png,stimuli/rgb_scene000113_render000004.png,1,151,361,150,"[0, 1]",right,1,666,24,f,y,y,2019_Apr_29_1454,2AFC_task,59.927109337977306,
stimuli/rgb_scene000005_render000000.png,stimuli/rgb_scene000005_render000006.png,1,152,362,26,"[0, 1]",left,0,666,24,f,y,y,2019_Apr_29_1454,2AFC_task,59.927109337977306,
stimuli/rgb_scene000095_render000000.png,stimuli/rgb_scene000095_render000004.png,1,153,363,87,"[0, 1]",right,1,666,24,f,y,y,2019_Apr_29_1454,2AFC_task,59.927109337977306,
stimuli/rgb_scene000102_render000000.png,stimuli/rgb_scene000102_render000006.png,1,154,364,131,"[1, 0]",left,1,666,24,f,y,y,2019_Apr_29_1454,2AFC_task,59.927109337977306,
stimuli/rgb_scene000146_render000003.png,stimuli/rgb_scene000146_render000006.png,1,155,365,185,"[1, 0]",left,1,666,24,f,y,y,2019_Apr_29_1454,2AFC_task,59.927109337977306,
stimuli/rgb_scene000004_render000002.png,stimuli/rgb_scene000004_render000005.png,1,156,366,13,"[0, 1]",right,1,666,24,f,y,y,2019_Apr_29_1454,2AFC_task,59.927109337977306,
stimuli/rgb_scene000096_render000002.png,stimuli/rgb_scene000096_render000006.png,1,157,367,119,"[0, 1]",right,1,666,24,f,y,y,2019_Apr_29_1454,2AFC_task,59.927109337977306,
stimuli/rgb_scene000005_render000000.png,stimuli/rgb_scene000005_render000001.png,1,158,368,21,"[1, 0]",left,1,666,24,f,y,y,2019_Apr_29_1454,2AFC_task,59.927109337977306,
stimuli/rgb_scene000146_render000000.png,stimuli/rgb_scene000146_render000003.png,1,159,369,170,"[0, 1]",right,1,666,24,f,y,y,2019_Apr_29_1454,2AFC_task,59.927109337977306,
stimuli/rgb_scene000113_render000003.png,stimuli/rgb_scene000113_render000006.png,1,160,370,164,"[0, 1]",right,1,666,24,f,y,y,2019_Apr_29_1454,2AFC_task,59.927109337977306,
stimuli/rgb_scene000102_render000001.png,stimuli/rgb_scene000102_render000002.png,1,161,371,132,"[0, 1]",right,1,666,24,f,y,y,2019_Apr_29_1454,2AFC_task,59.927109337977306,
stimuli/rgb_scene000090_render000004.png,stimuli/rgb_scene000090_render000005.png,1,162,372,81,"[1, 0]",right,0,666,24,f,y,y,2019_Apr_29_1454,2AFC_task,59.927109337977306,
stimuli/rgb_scene000090_render000001.png,stimuli/rgb_scene000090_render000004.png,1,163,373,71,"[1, 0]",right,0,666,24,f,y,y,2019_Apr_29_1454,2AFC_task,59.927109337977306,
stimuli/rgb_scene000096_render000003.png,stimuli/rgb_scene000096_render000005.png,1,164,374,121,"[1, 0]",right,0,666,24,f,y,y,2019_Apr_29_1454,2AFC_task,59.927109337977306,
stimuli/rgb_scene000195_render000003.png,stimuli/rgb_scene000195_render000006.png,1,165,375,206,"[0, 1]",left,0,666,24,f,y,y,2019_Apr_29_1454,2AFC_task,59.927109337977306,
stimuli/rgb_scene000004_render000003.png,stimuli/rgb_scene000004_render000004.png,1,166,376,15,"[0, 1]",right,1,666,24,f,y,y,2019_Apr_29_1454,2AFC_task,59.927109337977306,
stimuli/rgb_scene000102_render000005.png,stimuli/rgb_scene000102_render000006.png,1,167,377,146,"[0, 1]",right,1,666,24,f,y,y,2019_Apr_29_1454,2AFC_task,59.927109337977306,
stimuli/rgb_scene000102_render000002.png,stimuli/rgb_scene000102_render000005.png,1,168,378,139,"[0, 1]",right,1,666,24,f,y,y,2019_Apr_29_1454,2AFC_task,59.927109337977306,
stimuli/rgb_scene000195_render000001.png,stimuli/rgb_scene000195_render000006.png,1,169,379,199,"[0, 1]",right,1,666,24,f,y,y,2019_Apr_29_1454,2AFC_task,59.927109337977306,
stimuli/rgb_scene000090_render000000.png,stimuli/rgb_scene000090_render000001.png,1,170,380,63,"[1, 0]",right,0,666,24,f,y,y,2019_Apr_29_1454,2AFC_task,59.927109337977306,
stimuli/rgb_scene000146_render000001.png,stimuli/rgb_scene000146_render000005.png,1,171,381,177,"[0, 1]",right,1,666,24,f,y,y,2019_Apr_29_1454,2AFC_task,59.927109337977306,
stimuli/rgb_scene000096_render000000.png,stimuli/rgb_scene000096_render000003.png,1,172,382,107,"[0, 1]",right,1,666,24,f,y,y,2019_Apr_29_1454,2AFC_task,59.927109337977306,
stimuli/rgb_scene000102_render000001.png,stimuli/rgb_scene000102_render000005.png,1,173,383,135,"[1, 0]",left,1,666,24,f,y,y,2019_Apr_29_1454,2AFC_task,59.927109337977306,
stimuli/rgb_scene000195_render000002.png,stimuli/rgb_scene000195_render000004.png,1,174,384,201,"[1, 0]",left,1,666,24,f,y,y,2019_Apr_29_1454,2AFC_task,59.927109337977306,
stimuli/rgb_scene000113_render000002.png,stimuli/rgb_scene000113_render000003.png,1,175,385,158,"[0, 1]",right,1,666,24,f,y,y,2019_Apr_29_1454,2AFC_task,59.927109337977306,
stimuli/rgb_scene000090_render000000.png,stimuli/rgb_scene000090_render000005.png,1,176,386,67,"[0, 1]",right,1,666,24,f,y,y,2019_Apr_29_1454,2AFC_task,59.927109337977306,
stimuli/rgb_scene000012_render000000.png,stimuli/rgb_scene000012_render000004.png,1,177,387,45,"[1, 0]",left,1,666,24,f,y,y,2019_Apr_29_1454,2AFC_task,59.927109337977306,
stimuli/rgb_scene000146_render000000.png,stimuli/rgb_scene000146_render000005.png,1,178,388,172,"[0, 1]",left,0,666,24,f,y,y,2019_Apr_29_1454,2AFC_task,59.927109337977306,
stimuli/rgb_scene000090_render000001.png,stimuli/rgb_scene000090_render000003.png,1,179,389,70,"[0, 1]",right,1,666,24,f,y,y,2019_Apr_29_1454,2AFC_task,59.927109337977306,
stimuli/rgb_scene000146_render000004.png,stimuli/rgb_scene000146_render000006.png,1,180,390,187,"[0, 1]",left,0,666,24,f,y,y,2019_Apr_29_1454,2AFC_task,59.927109337977306,
stimuli/rgb_scene000005_render000000.png,stimuli/rgb_scene000005_render000005.png,1,181,391,25,"[1, 0]",right,0,666,24,f,y,y,2019_Apr_29_1454,2AFC_task,59.927109337977306,
stimuli/rgb_scene000005_render000001.png,stimuli/rgb_scene000005_render000005.png,1,182,392,30,"[1, 0]",right,0,666,24,f,y,y,2019_Apr_29_1454,2AFC_task,59.927109337977306,
stimuli/rgb_scene000113_render000000.png,stimuli/rgb_scene000113_render000005.png,1,183,393,151,"[1, 0]",left,1,666,24,f,y,y,2019_Apr_29_1454,2AFC_task,59.927109337977306,
stimuli/rgb_scene000195_render000004.png,stimuli/rgb_scene000195_render000006.png,1,184,394,208,"[0, 1]",left,0,666,24,f,y,y,2019_Apr_29_1454,2AFC_task,59.927109337977306,
stimuli/rgb_scene000095_render000004.png,stimuli/rgb_scene000095_render000006.png,1,185,395,103,"[0, 1]",right,1,666,24,f,y,y,2019_Apr_29_1454,2AFC_task,59.927109337977306,
stimuli/rgb_scene000102_render000003.png,stimuli/rgb_scene000102_render000004.png,1,186,396,141,"[1, 0]",left,1,666,24,f,y,y,2019_Apr_29_1454,2AFC_task,59.927109337977306,
stimuli/rgb_scene000096_render000002.png,stimuli/rgb_scene000096_render000004.png,1,187,397,117,"[1, 0]",left,1,666,24,f,y,y,2019_Apr_29_1454,2AFC_task,59.927109337977306,
stimuli/rgb_scene000095_render000001.png,stimuli/rgb_scene000095_render000003.png,1,188,398,91,"[1, 0]",left,1,666,24,f,y,y,2019_Apr_29_1454,2AFC_task,59.927109337977306,
stimuli/rgb_scene000004_render000000.png,stimuli/rgb_scene000004_render000005.png,1,189,399,4,"[1, 0]",left,1,666,24,f,y,y,2019_Apr_29_1454,2AFC_task,59.927109337977306,
stimuli/rgb_scene000012_render000001.png,stimuli/rgb_scene000012_render000005.png,1,190,400,51,"[1, 0]",left,1,666,24,f,y,y,2019_Apr_29_1454,2AFC_task,59.927109337977306,
stimuli/rgb_scene000195_render000003.png,stimuli/rgb_scene000195_render000004.png,1,191,401,204,"[1, 0]",left,1,666,24,f,y,y,2019_Apr_29_1454,2AFC_task,59.927109337977306,
stimuli/rgb_scene000004_render000001.png,stimuli/rgb_scene000004_render000005.png,1,192,402,9,"[1, 0]",left,1,666,24,f,y,y,2019_Apr_29_1454,2AFC_task,59.927109337977306,
stimuli/rgb_scene000146_render000002.png,stimuli/rgb_scene000146_render000005.png,1,193,403,181,"[1, 0]",left,1,666,24,f,y,y,2019_Apr_29_1454,2AFC_task,59.927109337977306,
stimuli/rgb_scene000095_render000001.png,stimuli/rgb_scene000095_render000005.png,1,194,404,93,"[0, 1]",right,1,666,24,f,y,y,2019_Apr_29_1454,2AFC_task,59.927109337977306,
stimuli/rgb_scene000096_render000000.png,stimuli/rgb_scene000096_render000006.png,1,195,405,110,"[1, 0]",left,1,666,24,f,y,y,2019_Apr_29_1454,2AFC_task,59.927109337977306,
stimuli/rgb_scene000004_render000000.png,stimuli/rgb_scene000004_render000006.png,1,196,406,5,"[1, 0]",left,1,666,24,f,y,y,2019_Apr_29_1454,2AFC_task,59.927109337977306,
stimuli/rgb_scene000012_render000002.png,stimuli/rgb_scene000012_render000006.png,1,197,407,56,"[0, 1]",right,1,666,24,f,y,y,2019_Apr_29_1454,2AFC_task,59.927109337977306,
stimuli/rgb_scene000096_render000001.png,stimuli/rgb_scene000096_render000002.png,1,198,408,111,"[1, 0]",left,1,666,24,f,y,y,2019_Apr_29_1454,2AFC_task,59.927109337977306,
stimuli/rgb_scene000096_render000000.png,stimuli/rgb_scene000096_render000004.png,1,199,409,108,"[0, 1]",right,1,666,24,f,y,y,2019_Apr_29_1454,2AFC_task,59.927109337977306,
stimuli/rgb_scene000146_render000000.png,stimuli/rgb_scene000146_render000002.png,1,200,410,169,"[0, 1]",right,1,666,24,f,y,y,2019_Apr_29_1454,2AFC_task,59.927109337977306,
stimuli/rgb_scene000090_render000000.png,stimuli/rgb_scene000090_render000002.png,1,201,411,64,"[1, 0]",left,1,666,24,f,y,y,2019_Apr_29_1454,2AFC_task,59.927109337977306,
stimuli/rgb_scene000195_render000000.png,stimuli/rgb_scene000195_render000004.png,1,202,412,192,"[0, 1]",right,1,666,24,f,y,y,2019_Apr_29_1454,2AFC_task,59.927109337977306,
stimuli/rgb_scene000113_render000001.png,stimuli/rgb_scene000113_render000006.png,1,203,413,157,"[0, 1]",right,1,666,24,f,y,y,2019_Apr_29_1454,2AFC_task,59.927109337977306,
stimuli/rgb_scene000102_render000001.png,stimuli/rgb_scene000102_render000006.png,1,204,414,136,"[1, 0]",left,1,666,24,f,y,y,2019_Apr_29_1454,2AFC_task,59.927109337977306,
stimuli/rgb_scene000195_render000000.png,stimuli/rgb_scene000195_render000005.png,1,205,415,193,"[0, 1]",right,1,666,24,f,y,y,2019_Apr_29_1454,2AFC_task,59.927109337977306,
stimuli/rgb_scene000005_render000001.png,stimuli/rgb_scene000005_render000002.png,1,206,416,27,"[1, 0]",left,1,666,24,f,y,y,2019_Apr_29_1454,2AFC_task,59.927109337977306,
stimuli/rgb_scene000004_render000001.png,stimuli/rgb_scene000004_render000002.png,1,207,417,6,"[1, 0]",left,1,666,24,f,y,y,2019_Apr_29_1454,2AFC_task,59.927109337977306,
stimuli/rgb_scene000004_render000005.png,stimuli/rgb_scene000004_render000006.png,1,208,418,20,"[1, 0]",right,0,666,24,f,y,y,2019_Apr_29_1454,2AFC_task,59.927109337977306,
stimuli/rgb_scene000146_render000003.png,stimuli/rgb_scene000146_render000005.png,1,209,419,184,"[1, 0]",left,1,666,24,f,y,y,2019_Apr_29_1454,2AFC_task,59.927109337977306,
