stimOne,stimTwo,trials_1.thisRepN,trials_1.thisTrialN,trials_1.thisN,trials_1.thisIndex,presentation_positions,resp_key,corresponding_image,participant ID (two digits, e.g. 01),age,gender (m/f/-),normal or corrected-to-normal vision (y/n),normal colour vision (y/n),date,expName,frameRate,
stimuli/rgb_scene000005_render000001.png,stimuli/rgb_scene000005_render000004.png,0,0,0,29,"[0, 1]",left,0,725,27,f,y,y,2019_Apr_30_1403,2AFC_task,59.9485374177834,
stimuli/rgb_scene000012_render000000.png,stimuli/rgb_scene000012_render000001.png,0,1,1,42,"[1, 0]",left,1,725,27,f,y,y,2019_Apr_30_1403,2AFC_task,59.9485374177834,
stimuli/rgb_scene000004_render000004.png,stimuli/rgb_scene000004_render000006.png,0,2,2,19,"[1, 0]",left,1,725,27,f,y,y,2019_Apr_30_1403,2AFC_task,59.9485374177834,
stimuli/rgb_scene000004_render000001.png,stimuli/rgb_scene000004_render000006.png,0,3,3,10,"[0, 1]",right,1,725,27,f,y,y,2019_Apr_30_1403,2AFC_task,59.9485374177834,
stimuli/rgb_scene000090_render000002.png,stimuli/rgb_scene000090_render000005.png,0,4,4,76,"[0, 1]",left,0,725,27,f,y,y,2019_Apr_30_1403,2AFC_task,59.9485374177834,
stimuli/rgb_scene000005_render000004.png,stimuli/rgb_scene000005_render000005.png,0,5,5,39,"[0, 1]",left,0,725,27,f,y,y,2019_Apr_30_1403,2AFC_task,59.9485374177834,
stimuli/rgb_scene000090_render000001.png,stimuli/rgb_scene000090_render000006.png,0,6,6,73,"[1, 0]",right,0,725,27,f,y,y,2019_Apr_30_1403,2AFC_task,59.9485374177834,
stimuli/rgb_scene000096_render000001.png,stimuli/rgb_scene000096_render000005.png,0,7,7,114,"[0, 1]",right,1,725,27,f,y,y,2019_Apr_30_1403,2AFC_task,59.9485374177834,
stimuli/rgb_scene000102_render000001.png,stimuli/rgb_scene000102_render000003.png,0,8,8,133,"[1, 0]",left,1,725,27,f,y,y,2019_Apr_30_1403,2AFC_task,59.9485374177834,
stimuli/rgb_scene000113_render000002.png,stimuli/rgb_scene000113_render000003.png,0,9,9,158,"[0, 1]",right,1,725,27,f,y,y,2019_Apr_30_1403,2AFC_task,59.9485374177834,
stimuli/rgb_scene000096_render000000.png,stimuli/rgb_scene000096_render000003.png,0,10,10,107,"[0, 1]",right,1,725,27,f,y,y,2019_Apr_30_1403,2AFC_task,59.9485374177834,
stimuli/rgb_scene000195_render000000.png,stimuli/rgb_scene000195_render000004.png,0,11,11,192,"[1, 0]",left,1,725,27,f,y,y,2019_Apr_30_1403,2AFC_task,59.9485374177834,
stimuli/rgb_scene000012_render000000.png,stimuli/rgb_scene000012_render000006.png,0,12,12,47,"[1, 0]",left,1,725,27,f,y,y,2019_Apr_30_1403,2AFC_task,59.9485374177834,
stimuli/rgb_scene000102_render000000.png,stimuli/rgb_scene000102_render000001.png,0,13,13,126,"[0, 1]",right,1,725,27,f,y,y,2019_Apr_30_1403,2AFC_task,59.9485374177834,
stimuli/rgb_scene000005_render000003.png,stimuli/rgb_scene000005_render000005.png,0,14,14,37,"[0, 1]",left,0,725,27,f,y,y,2019_Apr_30_1403,2AFC_task,59.9485374177834,
stimuli/rgb_scene000113_render000001.png,stimuli/rgb_scene000113_render000002.png,0,15,15,153,"[0, 1]",right,1,725,27,f,y,y,2019_Apr_30_1403,2AFC_task,59.9485374177834,
stimuli/rgb_scene000012_render000002.png,stimuli/rgb_scene000012_render000005.png,0,16,16,55,"[0, 1]",right,1,725,27,f,y,y,2019_Apr_30_1403,2AFC_task,59.9485374177834,
stimuli/rgb_scene000146_render000003.png,stimuli/rgb_scene000146_render000004.png,0,17,17,183,"[0, 1]",right,1,725,27,f,y,y,2019_Apr_30_1403,2AFC_task,59.9485374177834,
stimuli/rgb_scene000090_render000001.png,stimuli/rgb_scene000090_render000004.png,0,18,18,71,"[0, 1]",left,0,725,27,f,y,y,2019_Apr_30_1403,2AFC_task,59.9485374177834,
stimuli/rgb_scene000004_render000001.png,stimuli/rgb_scene000004_render000003.png,0,19,19,7,"[1, 0]",left,1,725,27,f,y,y,2019_Apr_30_1403,2AFC_task,59.9485374177834,
stimuli/rgb_scene000102_render000001.png,stimuli/rgb_scene000102_render000005.png,0,20,20,135,"[0, 1]",right,1,725,27,f,y,y,2019_Apr_30_1403,2AFC_task,59.9485374177834,
stimuli/rgb_scene000102_render000005.png,stimuli/rgb_scene000102_render000006.png,0,21,21,146,"[0, 1]",right,1,725,27,f,y,y,2019_Apr_30_1403,2AFC_task,59.9485374177834,
stimuli/rgb_scene000005_render000000.png,stimuli/rgb_scene000005_render000006.png,0,22,22,26,"[0, 1]",right,1,725,27,f,y,y,2019_Apr_30_1403,2AFC_task,59.9485374177834,
stimuli/rgb_scene000146_render000000.png,stimuli/rgb_scene000146_render000006.png,0,23,23,173,"[0, 1]",right,1,725,27,f,y,y,2019_Apr_30_1403,2AFC_task,59.9485374177834,
stimuli/rgb_scene000090_render000003.png,stimuli/rgb_scene000090_render000004.png,0,24,24,78,"[1, 0]",right,0,725,27,f,y,y,2019_Apr_30_1403,2AFC_task,59.9485374177834,
stimuli/rgb_scene000012_render000000.png,stimuli/rgb_scene000012_render000005.png,0,25,25,46,"[0, 1]",right,1,725,27,f,y,y,2019_Apr_30_1403,2AFC_task,59.9485374177834,
stimuli/rgb_scene000090_render000000.png,stimuli/rgb_scene000090_render000003.png,0,26,26,65,"[1, 0]",left,1,725,27,f,y,y,2019_Apr_30_1403,2AFC_task,59.9485374177834,
stimuli/rgb_scene000090_render000001.png,stimuli/rgb_scene000090_render000002.png,0,27,27,69,"[0, 1]",right,1,725,27,f,y,y,2019_Apr_30_1403,2AFC_task,59.9485374177834,
stimuli/rgb_scene000012_render000000.png,stimuli/rgb_scene000012_render000004.png,0,28,28,45,"[0, 1]",right,1,725,27,f,y,y,2019_Apr_30_1403,2AFC_task,59.9485374177834,
stimuli/rgb_scene000095_render000000.png,stimuli/rgb_scene000095_render000002.png,0,29,29,85,"[0, 1]",right,1,725,27,f,y,y,2019_Apr_30_1403,2AFC_task,59.9485374177834,
stimuli/rgb_scene000004_render000002.png,stimuli/rgb_scene000004_render000004.png,0,30,30,12,"[0, 1]",right,1,725,27,f,y,y,2019_Apr_30_1403,2AFC_task,59.9485374177834,
stimuli/rgb_scene000195_render000000.png,stimuli/rgb_scene000195_render000006.png,0,31,31,194,"[0, 1]",right,1,725,27,f,y,y,2019_Apr_30_1403,2AFC_task,59.9485374177834,
stimuli/rgb_scene000090_render000004.png,stimuli/rgb_scene000090_render000006.png,0,32,32,82,"[0, 1]",left,0,725,27,f,y,y,2019_Apr_30_1403,2AFC_task,59.9485374177834,
stimuli/rgb_scene000096_render000000.png,stimuli/rgb_scene000096_render000001.png,0,33,33,105,"[0, 1]",right,1,725,27,f,y,y,2019_Apr_30_1403,2AFC_task,59.9485374177834,
stimuli/rgb_scene000005_render000001.png,stimuli/rgb_scene000005_render000005.png,0,34,34,30,"[0, 1]",right,1,725,27,f,y,y,2019_Apr_30_1403,2AFC_task,59.9485374177834,
stimuli/rgb_scene000113_render000000.png,stimuli/rgb_scene000113_render000002.png,0,35,35,148,"[1, 0]",left,1,725,27,f,y,y,2019_Apr_30_1403,2AFC_task,59.9485374177834,
stimuli/rgb_scene000113_render000003.png,stimuli/rgb_scene000113_render000004.png,0,36,36,162,"[0, 1]",right,1,725,27,f,y,y,2019_Apr_30_1403,2AFC_task,59.9485374177834,
stimuli/rgb_scene000146_render000000.png,stimuli/rgb_scene000146_render000005.png,0,37,37,172,"[1, 0]",left,1,725,27,f,y,y,2019_Apr_30_1403,2AFC_task,59.9485374177834,
stimuli/rgb_scene000113_render000000.png,stimuli/rgb_scene000113_render000004.png,0,38,38,150,"[1, 0]",left,1,725,27,f,y,y,2019_Apr_30_1403,2AFC_task,59.9485374177834,
stimuli/rgb_scene000113_render000001.png,stimuli/rgb_scene000113_render000003.png,0,39,39,154,"[1, 0]",left,1,725,27,f,y,y,2019_Apr_30_1403,2AFC_task,59.9485374177834,
stimuli/rgb_scene000090_render000001.png,stimuli/rgb_scene000090_render000005.png,0,40,40,72,"[0, 1]",right,1,725,27,f,y,y,2019_Apr_30_1403,2AFC_task,59.9485374177834,
stimuli/rgb_scene000146_render000005.png,stimuli/rgb_scene000146_render000006.png,0,41,41,188,"[0, 1]",right,1,725,27,f,y,y,2019_Apr_30_1403,2AFC_task,59.9485374177834,
stimuli/rgb_scene000113_render000004.png,stimuli/rgb_scene000113_render000005.png,0,42,42,165,"[1, 0]",left,1,725,27,f,y,y,2019_Apr_30_1403,2AFC_task,59.9485374177834,
stimuli/rgb_scene000102_render000000.png,stimuli/rgb_scene000102_render000005.png,0,43,43,130,"[0, 1]",right,1,725,27,f,y,y,2019_Apr_30_1403,2AFC_task,59.9485374177834,
stimuli/rgb_scene000195_render000002.png,stimuli/rgb_scene000195_render000004.png,0,44,44,201,"[0, 1]",right,1,725,27,f,y,y,2019_Apr_30_1403,2AFC_task,59.9485374177834,
stimuli/rgb_scene000096_render000003.png,stimuli/rgb_scene000096_render000006.png,0,45,45,122,"[1, 0]",left,1,725,27,f,y,y,2019_Apr_30_1403,2AFC_task,59.9485374177834,
stimuli/rgb_scene000095_render000002.png,stimuli/rgb_scene000095_render000004.png,0,46,46,96,"[1, 0]",left,1,725,27,f,y,y,2019_Apr_30_1403,2AFC_task,59.9485374177834,
stimuli/rgb_scene000195_render000003.png,stimuli/rgb_scene000195_render000006.png,0,47,47,206,"[1, 0]",right,0,725,27,f,y,y,2019_Apr_30_1403,2AFC_task,59.9485374177834,
stimuli/rgb_scene000005_render000000.png,stimuli/rgb_scene000005_render000002.png,0,48,48,22,"[0, 1]",right,1,725,27,f,y,y,2019_Apr_30_1403,2AFC_task,59.9485374177834,
stimuli/rgb_scene000012_render000002.png,stimuli/rgb_scene000012_render000004.png,0,49,49,54,"[0, 1]",right,1,725,27,f,y,y,2019_Apr_30_1403,2AFC_task,59.9485374177834,
stimuli/rgb_scene000102_render000002.png,stimuli/rgb_scene000102_render000006.png,0,50,50,140,"[0, 1]",right,1,725,27,f,y,y,2019_Apr_30_1403,2AFC_task,59.9485374177834,
stimuli/rgb_scene000004_render000002.png,stimuli/rgb_scene000004_render000003.png,0,51,51,11,"[0, 1]",right,1,725,27,f,y,y,2019_Apr_30_1403,2AFC_task,59.9485374177834,
stimuli/rgb_scene000146_render000003.png,stimuli/rgb_scene000146_render000005.png,0,52,52,184,"[1, 0]",left,1,725,27,f,y,y,2019_Apr_30_1403,2AFC_task,59.9485374177834,
stimuli/rgb_scene000195_render000001.png,stimuli/rgb_scene000195_render000006.png,0,53,53,199,"[0, 1]",right,1,725,27,f,y,y,2019_Apr_30_1403,2AFC_task,59.9485374177834,
stimuli/rgb_scene000095_render000003.png,stimuli/rgb_scene000095_render000006.png,0,54,54,101,"[1, 0]",left,1,725,27,f,y,y,2019_Apr_30_1403,2AFC_task,59.9485374177834,
stimuli/rgb_scene000096_render000000.png,stimuli/rgb_scene000096_render000005.png,0,55,55,109,"[0, 1]",right,1,725,27,f,y,y,2019_Apr_30_1403,2AFC_task,59.9485374177834,
stimuli/rgb_scene000113_render000005.png,stimuli/rgb_scene000113_render000006.png,0,56,56,167,"[0, 1]",right,1,725,27,f,y,y,2019_Apr_30_1403,2AFC_task,59.9485374177834,
stimuli/rgb_scene000005_render000000.png,stimuli/rgb_scene000005_render000005.png,0,57,57,25,"[0, 1]",right,1,725,27,f,y,y,2019_Apr_30_1403,2AFC_task,59.9485374177834,
stimuli/rgb_scene000004_render000000.png,stimuli/rgb_scene000004_render000004.png,0,58,58,3,"[0, 1]",right,1,725,27,f,y,y,2019_Apr_30_1403,2AFC_task,59.9485374177834,
stimuli/rgb_scene000005_render000001.png,stimuli/rgb_scene000005_render000006.png,0,59,59,31,"[0, 1]",right,1,725,27,f,y,y,2019_Apr_30_1403,2AFC_task,59.9485374177834,
stimuli/rgb_scene000012_render000001.png,stimuli/rgb_scene000012_render000004.png,0,60,60,50,"[0, 1]",right,1,725,27,f,y,y,2019_Apr_30_1403,2AFC_task,59.9485374177834,
stimuli/rgb_scene000090_render000000.png,stimuli/rgb_scene000090_render000004.png,0,61,61,66,"[0, 1]",right,1,725,27,f,y,y,2019_Apr_30_1403,2AFC_task,59.9485374177834,
stimuli/rgb_scene000005_render000000.png,stimuli/rgb_scene000005_render000004.png,0,62,62,24,"[0, 1]",right,1,725,27,f,y,y,2019_Apr_30_1403,2AFC_task,59.9485374177834,
stimuli/rgb_scene000004_render000004.png,stimuli/rgb_scene000004_render000005.png,0,63,63,18,"[1, 0]",left,1,725,27,f,y,y,2019_Apr_30_1403,2AFC_task,59.9485374177834,
stimuli/rgb_scene000004_render000002.png,stimuli/rgb_scene000004_render000005.png,0,64,64,13,"[0, 1]",right,1,725,27,f,y,y,2019_Apr_30_1403,2AFC_task,59.9485374177834,
stimuli/rgb_scene000146_render000002.png,stimuli/rgb_scene000146_render000006.png,0,65,65,182,"[1, 0]",left,1,725,27,f,y,y,2019_Apr_30_1403,2AFC_task,59.9485374177834,
stimuli/rgb_scene000095_render000004.png,stimuli/rgb_scene000095_render000006.png,0,66,66,103,"[1, 0]",left,1,725,27,f,y,y,2019_Apr_30_1403,2AFC_task,59.9485374177834,
stimuli/rgb_scene000102_render000000.png,stimuli/rgb_scene000102_render000003.png,0,67,67,128,"[0, 1]",right,1,725,27,f,y,y,2019_Apr_30_1403,2AFC_task,59.9485374177834,
stimuli/rgb_scene000090_render000002.png,stimuli/rgb_scene000090_render000006.png,0,68,68,77,"[1, 0]",right,0,725,27,f,y,y,2019_Apr_30_1403,2AFC_task,59.9485374177834,
stimuli/rgb_scene000012_render000002.png,stimuli/rgb_scene000012_render000006.png,0,69,69,56,"[1, 0]",left,1,725,27,f,y,y,2019_Apr_30_1403,2AFC_task,59.9485374177834,
stimuli/rgb_scene000095_render000000.png,stimuli/rgb_scene000095_render000006.png,0,70,70,89,"[0, 1]",right,1,725,27,f,y,y,2019_Apr_30_1403,2AFC_task,59.9485374177834,
stimuli/rgb_scene000090_render000000.png,stimuli/rgb_scene000090_render000002.png,0,71,71,64,"[0, 1]",left,0,725,27,f,y,y,2019_Apr_30_1403,2AFC_task,59.9485374177834,
stimuli/rgb_scene000090_render000002.png,stimuli/rgb_scene000090_render000003.png,0,72,72,74,"[1, 0]",left,1,725,27,f,y,y,2019_Apr_30_1403,2AFC_task,59.9485374177834,
stimuli/rgb_scene000090_render000000.png,stimuli/rgb_scene000090_render000005.png,0,73,73,67,"[1, 0]",right,0,725,27,f,y,y,2019_Apr_30_1403,2AFC_task,59.9485374177834,
stimuli/rgb_scene000195_render000002.png,stimuli/rgb_scene000195_render000003.png,0,74,74,200,"[0, 1]",left,0,725,27,f,y,y,2019_Apr_30_1403,2AFC_task,59.9485374177834,
stimuli/rgb_scene000005_render000002.png,stimuli/rgb_scene000005_render000003.png,0,75,75,32,"[0, 1]",right,1,725,27,f,y,y,2019_Apr_30_1403,2AFC_task,59.9485374177834,
stimuli/rgb_scene000005_render000002.png,stimuli/rgb_scene000005_render000006.png,0,76,76,35,"[1, 0]",right,0,725,27,f,y,y,2019_Apr_30_1403,2AFC_task,59.9485374177834,
stimuli/rgb_scene000004_render000003.png,stimuli/rgb_scene000004_render000005.png,0,77,77,16,"[1, 0]",left,1,725,27,f,y,y,2019_Apr_30_1403,2AFC_task,59.9485374177834,
stimuli/rgb_scene000195_render000003.png,stimuli/rgb_scene000195_render000005.png,0,78,78,205,"[0, 1]",right,1,725,27,f,y,y,2019_Apr_30_1403,2AFC_task,59.9485374177834,
stimuli/rgb_scene000005_render000003.png,stimuli/rgb_scene000005_render000004.png,0,79,79,36,"[1, 0]",left,1,725,27,f,y,y,2019_Apr_30_1403,2AFC_task,59.9485374177834,
stimuli/rgb_scene000195_render000000.png,stimuli/rgb_scene000195_render000003.png,0,80,80,191,"[0, 1]",right,1,725,27,f,y,y,2019_Apr_30_1403,2AFC_task,59.9485374177834,
stimuli/rgb_scene000004_render000003.png,stimuli/rgb_scene000004_render000006.png,0,81,81,17,"[1, 0]",left,1,725,27,f,y,y,2019_Apr_30_1403,2AFC_task,59.9485374177834,
stimuli/rgb_scene000096_render000005.png,stimuli/rgb_scene000096_render000006.png,0,82,82,125,"[1, 0]",left,1,725,27,f,y,y,2019_Apr_30_1403,2AFC_task,59.9485374177834,
stimuli/rgb_scene000005_render000000.png,stimuli/rgb_scene000005_render000003.png,0,83,83,23,"[0, 1]",right,1,725,27,f,y,y,2019_Apr_30_1403,2AFC_task,59.9485374177834,
stimuli/rgb_scene000090_render000000.png,stimuli/rgb_scene000090_render000006.png,0,84,84,68,"[0, 1]",left,0,725,27,f,y,y,2019_Apr_30_1403,2AFC_task,59.9485374177834,
stimuli/rgb_scene000195_render000002.png,stimuli/rgb_scene000195_render000005.png,0,85,85,202,"[1, 0]",left,1,725,27,f,y,y,2019_Apr_30_1403,2AFC_task,59.9485374177834,
stimuli/rgb_scene000096_render000001.png,stimuli/rgb_scene000096_render000003.png,0,86,86,112,"[1, 0]",left,1,725,27,f,y,y,2019_Apr_30_1403,2AFC_task,59.9485374177834,
stimuli/rgb_scene000090_render000003.png,stimuli/rgb_scene000090_render000005.png,0,87,87,79,"[0, 1]",left,0,725,27,f,y,y,2019_Apr_30_1403,2AFC_task,59.9485374177834,
stimuli/rgb_scene000146_render000002.png,stimuli/rgb_scene000146_render000003.png,0,88,88,179,"[0, 1]",right,1,725,27,f,y,y,2019_Apr_30_1403,2AFC_task,59.9485374177834,
stimuli/rgb_scene000095_render000002.png,stimuli/rgb_scene000095_render000003.png,0,89,89,95,"[1, 0]",left,1,725,27,f,y,y,2019_Apr_30_1403,2AFC_task,59.9485374177834,
stimuli/rgb_scene000012_render000002.png,stimuli/rgb_scene000012_render000003.png,0,90,90,53,"[0, 1]",right,1,725,27,f,y,y,2019_Apr_30_1403,2AFC_task,59.9485374177834,
stimuli/rgb_scene000095_render000001.png,stimuli/rgb_scene000095_render000006.png,0,91,91,94,"[1, 0]",left,1,725,27,f,y,y,2019_Apr_30_1403,2AFC_task,59.9485374177834,
stimuli/rgb_scene000146_render000000.png,stimuli/rgb_scene000146_render000004.png,0,92,92,171,"[0, 1]",right,1,725,27,f,y,y,2019_Apr_30_1403,2AFC_task,59.9485374177834,
stimuli/rgb_scene000095_render000000.png,stimuli/rgb_scene000095_render000005.png,0,93,93,88,"[1, 0]",left,1,725,27,f,y,y,2019_Apr_30_1403,2AFC_task,59.9485374177834,
stimuli/rgb_scene000096_render000003.png,stimuli/rgb_scene000096_render000005.png,0,94,94,121,"[1, 0]",left,1,725,27,f,y,y,2019_Apr_30_1403,2AFC_task,59.9485374177834,
stimuli/rgb_scene000004_render000000.png,stimuli/rgb_scene000004_render000001.png,0,95,95,0,"[0, 1]",right,1,725,27,f,y,y,2019_Apr_30_1403,2AFC_task,59.9485374177834,
stimuli/rgb_scene000012_render000001.png,stimuli/rgb_scene000012_render000002.png,0,96,96,48,"[0, 1]",right,1,725,27,f,y,y,2019_Apr_30_1403,2AFC_task,59.9485374177834,
stimuli/rgb_scene000095_render000002.png,stimuli/rgb_scene000095_render000005.png,0,97,97,97,"[1, 0]",left,1,725,27,f,y,y,2019_Apr_30_1403,2AFC_task,59.9485374177834,
stimuli/rgb_scene000102_render000004.png,stimuli/rgb_scene000102_render000005.png,0,98,98,144,"[0, 1]",right,1,725,27,f,y,y,2019_Apr_30_1403,2AFC_task,59.9485374177834,
stimuli/rgb_scene000102_render000001.png,stimuli/rgb_scene000102_render000002.png,0,99,99,132,"[0, 1]",right,1,725,27,f,y,y,2019_Apr_30_1403,2AFC_task,59.9485374177834,
stimuli/rgb_scene000005_render000003.png,stimuli/rgb_scene000005_render000006.png,0,100,100,38,"[1, 0]",right,0,725,27,f,y,y,2019_Apr_30_1403,2AFC_task,59.9485374177834,
stimuli/rgb_scene000096_render000000.png,stimuli/rgb_scene000096_render000006.png,0,101,101,110,"[1, 0]",left,1,725,27,f,y,y,2019_Apr_30_1403,2AFC_task,59.9485374177834,
stimuli/rgb_scene000005_render000002.png,stimuli/rgb_scene000005_render000005.png,0,102,102,34,"[0, 1]",right,1,725,27,f,y,y,2019_Apr_30_1403,2AFC_task,59.9485374177834,
stimuli/rgb_scene000004_render000000.png,stimuli/rgb_scene000004_render000006.png,0,103,103,5,"[1, 0]",left,1,725,27,f,y,y,2019_Apr_30_1403,2AFC_task,59.9485374177834,
stimuli/rgb_scene000195_render000001.png,stimuli/rgb_scene000195_render000003.png,0,104,104,196,"[0, 1]",right,1,725,27,f,y,y,2019_Apr_30_1403,2AFC_task,59.9485374177834,
stimuli/rgb_scene000095_render000001.png,stimuli/rgb_scene000095_render000002.png,0,105,105,90,"[0, 1]",right,1,725,27,f,y,y,2019_Apr_30_1403,2AFC_task,59.9485374177834,
stimuli/rgb_scene000004_render000002.png,stimuli/rgb_scene000004_render000006.png,0,106,106,14,"[0, 1]",right,1,725,27,f,y,y,2019_Apr_30_1403,2AFC_task,59.9485374177834,
stimuli/rgb_scene000096_render000002.png,stimuli/rgb_scene000096_render000006.png,0,107,107,119,"[1, 0]",left,1,725,27,f,y,y,2019_Apr_30_1403,2AFC_task,59.9485374177834,
stimuli/rgb_scene000102_render000000.png,stimuli/rgb_scene000102_render000004.png,0,108,108,129,"[0, 1]",right,1,725,27,f,y,y,2019_Apr_30_1403,2AFC_task,59.9485374177834,
stimuli/rgb_scene000095_render000005.png,stimuli/rgb_scene000095_render000006.png,0,109,109,104,"[0, 1]",right,1,725,27,f,y,y,2019_Apr_30_1403,2AFC_task,59.9485374177834,
stimuli/rgb_scene000090_render000000.png,stimuli/rgb_scene000090_render000001.png,0,110,110,63,"[1, 0]",right,0,725,27,f,y,y,2019_Apr_30_1403,2AFC_task,59.9485374177834,
stimuli/rgb_scene000146_render000000.png,stimuli/rgb_scene000146_render000002.png,0,111,111,169,"[0, 1]",right,1,725,27,f,y,y,2019_Apr_30_1403,2AFC_task,59.9485374177834,
stimuli/rgb_scene000113_render000004.png,stimuli/rgb_scene000113_render000006.png,0,112,112,166,"[0, 1]",right,1,725,27,f,y,y,2019_Apr_30_1403,2AFC_task,59.9485374177834,
stimuli/rgb_scene000195_render000000.png,stimuli/rgb_scene000195_render000005.png,0,113,113,193,"[1, 0]",left,1,725,27,f,y,y,2019_Apr_30_1403,2AFC_task,59.9485374177834,
stimuli/rgb_scene000102_render000003.png,stimuli/rgb_scene000102_render000004.png,0,114,114,141,"[0, 1]",right,1,725,27,f,y,y,2019_Apr_30_1403,2AFC_task,59.9485374177834,
stimuli/rgb_scene000095_render000003.png,stimuli/rgb_scene000095_render000004.png,0,115,115,99,"[0, 1]",right,1,725,27,f,y,y,2019_Apr_30_1403,2AFC_task,59.9485374177834,
stimuli/rgb_scene000090_render000004.png,stimuli/rgb_scene000090_render000005.png,0,116,116,81,"[0, 1]",right,1,725,27,f,y,y,2019_Apr_30_1403,2AFC_task,59.9485374177834,
stimuli/rgb_scene000090_render000002.png,stimuli/rgb_scene000090_render000004.png,0,117,117,75,"[0, 1]",left,0,725,27,f,y,y,2019_Apr_30_1403,2AFC_task,59.9485374177834,
stimuli/rgb_scene000096_render000002.png,stimuli/rgb_scene000096_render000004.png,0,118,118,117,"[1, 0]",left,1,725,27,f,y,y,2019_Apr_30_1403,2AFC_task,59.9485374177834,
stimuli/rgb_scene000004_render000000.png,stimuli/rgb_scene000004_render000003.png,0,119,119,2,"[0, 1]",right,1,725,27,f,y,y,2019_Apr_30_1403,2AFC_task,59.9485374177834,
stimuli/rgb_scene000095_render000001.png,stimuli/rgb_scene000095_render000005.png,0,120,120,93,"[0, 1]",right,1,725,27,f,y,y,2019_Apr_30_1403,2AFC_task,59.9485374177834,
stimuli/rgb_scene000146_render000001.png,stimuli/rgb_scene000146_render000004.png,0,121,121,176,"[0, 1]",right,1,725,27,f,y,y,2019_Apr_30_1403,2AFC_task,59.9485374177834,
stimuli/rgb_scene000096_render000004.png,stimuli/rgb_scene000096_render000005.png,0,122,122,123,"[0, 1]",right,1,725,27,f,y,y,2019_Apr_30_1403,2AFC_task,59.9485374177834,
stimuli/rgb_scene000102_render000003.png,stimuli/rgb_scene000102_render000005.png,0,123,123,142,"[1, 0]",left,1,725,27,f,y,y,2019_Apr_30_1403,2AFC_task,59.9485374177834,
stimuli/rgb_scene000004_render000001.png,stimuli/rgb_scene000004_render000005.png,0,124,124,9,"[0, 1]",right,1,725,27,f,y,y,2019_Apr_30_1403,2AFC_task,59.9485374177834,
stimuli/rgb_scene000146_render000004.png,stimuli/rgb_scene000146_render000006.png,0,125,125,187,"[1, 0]",left,1,725,27,f,y,y,2019_Apr_30_1403,2AFC_task,59.9485374177834,
stimuli/rgb_scene000102_render000001.png,stimuli/rgb_scene000102_render000004.png,0,126,126,134,"[0, 1]",right,1,725,27,f,y,y,2019_Apr_30_1403,2AFC_task,59.9485374177834,
stimuli/rgb_scene000096_render000002.png,stimuli/rgb_scene000096_render000003.png,0,127,127,116,"[0, 1]",right,1,725,27,f,y,y,2019_Apr_30_1403,2AFC_task,59.9485374177834,
stimuli/rgb_scene000195_render000005.png,stimuli/rgb_scene000195_render000006.png,0,128,128,209,"[1, 0]",right,0,725,27,f,y,y,2019_Apr_30_1403,2AFC_task,59.9485374177834,
stimuli/rgb_scene000005_render000001.png,stimuli/rgb_scene000005_render000002.png,0,129,129,27,"[0, 1]",right,1,725,27,f,y,y,2019_Apr_30_1403,2AFC_task,59.9485374177834,
stimuli/rgb_scene000113_render000001.png,stimuli/rgb_scene000113_render000004.png,0,130,130,155,"[0, 1]",right,1,725,27,f,y,y,2019_Apr_30_1403,2AFC_task,59.9485374177834,
stimuli/rgb_scene000113_render000000.png,stimuli/rgb_scene000113_render000006.png,0,131,131,152,"[1, 0]",left,1,725,27,f,y,y,2019_Apr_30_1403,2AFC_task,59.9485374177834,
stimuli/rgb_scene000005_render000000.png,stimuli/rgb_scene000005_render000001.png,0,132,132,21,"[0, 1]",right,1,725,27,f,y,y,2019_Apr_30_1403,2AFC_task,59.9485374177834,
stimuli/rgb_scene000012_render000001.png,stimuli/rgb_scene000012_render000005.png,0,133,133,51,"[1, 0]",left,1,725,27,f,y,y,2019_Apr_30_1403,2AFC_task,59.9485374177834,
stimuli/rgb_scene000102_render000002.png,stimuli/rgb_scene000102_render000004.png,0,134,134,138,"[0, 1]",right,1,725,27,f,y,y,2019_Apr_30_1403,2AFC_task,59.9485374177834,
stimuli/rgb_scene000113_render000000.png,stimuli/rgb_scene000113_render000005.png,0,135,135,151,"[1, 0]",left,1,725,27,f,y,y,2019_Apr_30_1403,2AFC_task,59.9485374177834,
stimuli/rgb_scene000195_render000001.png,stimuli/rgb_scene000195_render000004.png,0,136,136,197,"[0, 1]",right,1,725,27,f,y,y,2019_Apr_30_1403,2AFC_task,59.9485374177834,
stimuli/rgb_scene000195_render000004.png,stimuli/rgb_scene000195_render000005.png,0,137,137,207,"[1, 0]",left,1,725,27,f,y,y,2019_Apr_30_1403,2AFC_task,59.9485374177834,
stimuli/rgb_scene000004_render000003.png,stimuli/rgb_scene000004_render000004.png,0,138,138,15,"[0, 1]",right,1,725,27,f,y,y,2019_Apr_30_1403,2AFC_task,59.9485374177834,
stimuli/rgb_scene000195_render000004.png,stimuli/rgb_scene000195_render000006.png,0,139,139,208,"[0, 1]",left,0,725,27,f,y,y,2019_Apr_30_1403,2AFC_task,59.9485374177834,
stimuli/rgb_scene000095_render000000.png,stimuli/rgb_scene000095_render000004.png,0,140,140,87,"[1, 0]",left,1,725,27,f,y,y,2019_Apr_30_1403,2AFC_task,59.9485374177834,
stimuli/rgb_scene000095_render000003.png,stimuli/rgb_scene000095_render000005.png,0,141,141,100,"[0, 1]",right,1,725,27,f,y,y,2019_Apr_30_1403,2AFC_task,59.9485374177834,
stimuli/rgb_scene000012_render000004.png,stimuli/rgb_scene000012_render000005.png,0,142,142,60,"[0, 1]",right,1,725,27,f,y,y,2019_Apr_30_1403,2AFC_task,59.9485374177834,
stimuli/rgb_scene000195_render000001.png,stimuli/rgb_scene000195_render000005.png,0,143,143,198,"[1, 0]",right,0,725,27,f,y,y,2019_Apr_30_1403,2AFC_task,59.9485374177834,
stimuli/rgb_scene000012_render000005.png,stimuli/rgb_scene000012_render000006.png,0,144,144,62,"[1, 0]",right,0,725,27,f,y,y,2019_Apr_30_1403,2AFC_task,59.9485374177834,
stimuli/rgb_scene000146_render000002.png,stimuli/rgb_scene000146_render000004.png,0,145,145,180,"[0, 1]",right,1,725,27,f,y,y,2019_Apr_30_1403,2AFC_task,59.9485374177834,
stimuli/rgb_scene000113_render000000.png,stimuli/rgb_scene000113_render000003.png,0,146,146,149,"[1, 0]",left,1,725,27,f,y,y,2019_Apr_30_1403,2AFC_task,59.9485374177834,
stimuli/rgb_scene000096_render000001.png,stimuli/rgb_scene000096_render000006.png,0,147,147,115,"[1, 0]",left,1,725,27,f,y,y,2019_Apr_30_1403,2AFC_task,59.9485374177834,
stimuli/rgb_scene000102_render000000.png,stimuli/rgb_scene000102_render000002.png,0,148,148,127,"[1, 0]",left,1,725,27,f,y,y,2019_Apr_30_1403,2AFC_task,59.9485374177834,
stimuli/rgb_scene000102_render000002.png,stimuli/rgb_scene000102_render000003.png,0,149,149,137,"[1, 0]",left,1,725,27,f,y,y,2019_Apr_30_1403,2AFC_task,59.9485374177834,
stimuli/rgb_scene000090_render000001.png,stimuli/rgb_scene000090_render000003.png,0,150,150,70,"[1, 0]",right,0,725,27,f,y,y,2019_Apr_30_1403,2AFC_task,59.9485374177834,
stimuli/rgb_scene000012_render000001.png,stimuli/rgb_scene000012_render000006.png,0,151,151,52,"[1, 0]",left,1,725,27,f,y,y,2019_Apr_30_1403,2AFC_task,59.9485374177834,
stimuli/rgb_scene000146_render000002.png,stimuli/rgb_scene000146_render000005.png,0,152,152,181,"[0, 1]",right,1,725,27,f,y,y,2019_Apr_30_1403,2AFC_task,59.9485374177834,
stimuli/rgb_scene000095_render000001.png,stimuli/rgb_scene000095_render000003.png,0,153,153,91,"[1, 0]",left,1,725,27,f,y,y,2019_Apr_30_1403,2AFC_task,59.9485374177834,
stimuli/rgb_scene000004_render000001.png,stimuli/rgb_scene000004_render000004.png,0,154,154,8,"[0, 1]",right,1,725,27,f,y,y,2019_Apr_30_1403,2AFC_task,59.9485374177834,
stimuli/rgb_scene000146_render000001.png,stimuli/rgb_scene000146_render000006.png,0,155,155,178,"[1, 0]",left,1,725,27,f,y,y,2019_Apr_30_1403,2AFC_task,59.9485374177834,
stimuli/rgb_scene000096_render000002.png,stimuli/rgb_scene000096_render000005.png,0,156,156,118,"[1, 0]",left,1,725,27,f,y,y,2019_Apr_30_1403,2AFC_task,59.9485374177834,
stimuli/rgb_scene000004_render000001.png,stimuli/rgb_scene000004_render000002.png,0,157,157,6,"[0, 1]",right,1,725,27,f,y,y,2019_Apr_30_1403,2AFC_task,59.9485374177834,
stimuli/rgb_scene000113_render000003.png,stimuli/rgb_scene000113_render000006.png,0,158,158,164,"[0, 1]",right,1,725,27,f,y,y,2019_Apr_30_1403,2AFC_task,59.9485374177834,
stimuli/rgb_scene000146_render000001.png,stimuli/rgb_scene000146_render000003.png,0,159,159,175,"[0, 1]",right,1,725,27,f,y,y,2019_Apr_30_1403,2AFC_task,59.9485374177834,
stimuli/rgb_scene000096_render000001.png,stimuli/rgb_scene000096_render000002.png,0,160,160,111,"[0, 1]",right,1,725,27,f,y,y,2019_Apr_30_1403,2AFC_task,59.9485374177834,
stimuli/rgb_scene000146_render000001.png,stimuli/rgb_scene000146_render000005.png,0,161,161,177,"[1, 0]",left,1,725,27,f,y,y,2019_Apr_30_1403,2AFC_task,59.9485374177834,
stimuli/rgb_scene000012_render000000.png,stimuli/rgb_scene000012_render000003.png,0,162,162,44,"[0, 1]",right,1,725,27,f,y,y,2019_Apr_30_1403,2AFC_task,59.9485374177834,
stimuli/rgb_scene000146_render000000.png,stimuli/rgb_scene000146_render000003.png,0,163,163,170,"[1, 0]",left,1,725,27,f,y,y,2019_Apr_30_1403,2AFC_task,59.9485374177834,
stimuli/rgb_scene000102_render000001.png,stimuli/rgb_scene000102_render000006.png,0,164,164,136,"[1, 0]",left,1,725,27,f,y,y,2019_Apr_30_1403,2AFC_task,59.9485374177834,
stimuli/rgb_scene000095_render000002.png,stimuli/rgb_scene000095_render000006.png,0,165,165,98,"[0, 1]",right,1,725,27,f,y,y,2019_Apr_30_1403,2AFC_task,59.9485374177834,
stimuli/rgb_scene000102_render000003.png,stimuli/rgb_scene000102_render000006.png,0,166,166,143,"[0, 1]",right,1,725,27,f,y,y,2019_Apr_30_1403,2AFC_task,59.9485374177834,
stimuli/rgb_scene000095_render000000.png,stimuli/rgb_scene000095_render000003.png,0,167,167,86,"[0, 1]",right,1,725,27,f,y,y,2019_Apr_30_1403,2AFC_task,59.9485374177834,
stimuli/rgb_scene000005_render000002.png,stimuli/rgb_scene000005_render000004.png,0,168,168,33,"[1, 0]",left,1,725,27,f,y,y,2019_Apr_30_1403,2AFC_task,59.9485374177834,
stimuli/rgb_scene000146_render000001.png,stimuli/rgb_scene000146_render000002.png,0,169,169,174,"[0, 1]",right,1,725,27,f,y,y,2019_Apr_30_1403,2AFC_task,59.9485374177834,
stimuli/rgb_scene000004_render000000.png,stimuli/rgb_scene000004_render000002.png,0,170,170,1,"[1, 0]",left,1,725,27,f,y,y,2019_Apr_30_1403,2AFC_task,59.9485374177834,
stimuli/rgb_scene000096_render000000.png,stimuli/rgb_scene000096_render000002.png,0,171,171,106,"[1, 0]",left,1,725,27,f,y,y,2019_Apr_30_1403,2AFC_task,59.9485374177834,
stimuli/rgb_scene000146_render000003.png,stimuli/rgb_scene000146_render000006.png,0,172,172,185,"[1, 0]",left,1,725,27,f,y,y,2019_Apr_30_1403,2AFC_task,59.9485374177834,
stimuli/rgb_scene000012_render000004.png,stimuli/rgb_scene000012_render000006.png,0,173,173,61,"[1, 0]",left,1,725,27,f,y,y,2019_Apr_30_1403,2AFC_task,59.9485374177834,
stimuli/rgb_scene000095_render000000.png,stimuli/rgb_scene000095_render000001.png,0,174,174,84,"[1, 0]",left,1,725,27,f,y,y,2019_Apr_30_1403,2AFC_task,59.9485374177834,
stimuli/rgb_scene000195_render000003.png,stimuli/rgb_scene000195_render000004.png,0,175,175,204,"[0, 1]",left,0,725,27,f,y,y,2019_Apr_30_1403,2AFC_task,59.9485374177834,
stimuli/rgb_scene000005_render000005.png,stimuli/rgb_scene000005_render000006.png,0,176,176,41,"[0, 1]",left,0,725,27,f,y,y,2019_Apr_30_1403,2AFC_task,59.9485374177834,
stimuli/rgb_scene000095_render000004.png,stimuli/rgb_scene000095_render000005.png,0,177,177,102,"[1, 0]",left,1,725,27,f,y,y,2019_Apr_30_1403,2AFC_task,59.9485374177834,
stimuli/rgb_scene000146_render000004.png,stimuli/rgb_scene000146_render000005.png,0,178,178,186,"[0, 1]",right,1,725,27,f,y,y,2019_Apr_30_1403,2AFC_task,59.9485374177834,
stimuli/rgb_scene000195_render000000.png,stimuli/rgb_scene000195_render000002.png,0,179,179,190,"[1, 0]",left,1,725,27,f,y,y,2019_Apr_30_1403,2AFC_task,59.9485374177834,
stimuli/rgb_scene000195_render000000.png,stimuli/rgb_scene000195_render000001.png,0,180,180,189,"[0, 1]",left,0,725,27,f,y,y,2019_Apr_30_1403,2AFC_task,59.9485374177834,
stimuli/rgb_scene000090_render000003.png,stimuli/rgb_scene000090_render000006.png,0,181,181,80,"[0, 1]",left,0,725,27,f,y,y,2019_Apr_30_1403,2AFC_task,59.9485374177834,
stimuli/rgb_scene000113_render000002.png,stimuli/rgb_scene000113_render000005.png,0,182,182,160,"[1, 0]",left,1,725,27,f,y,y,2019_Apr_30_1403,2AFC_task,59.9485374177834,
stimuli/rgb_scene000195_render000002.png,stimuli/rgb_scene000195_render000006.png,0,183,183,203,"[1, 0]",right,0,725,27,f,y,y,2019_Apr_30_1403,2AFC_task,59.9485374177834,
stimuli/rgb_scene000102_render000002.png,stimuli/rgb_scene000102_render000005.png,0,184,184,139,"[0, 1]",right,1,725,27,f,y,y,2019_Apr_30_1403,2AFC_task,59.9485374177834,
stimuli/rgb_scene000012_render000003.png,stimuli/rgb_scene000012_render000006.png,0,185,185,59,"[1, 0]",left,1,725,27,f,y,y,2019_Apr_30_1403,2AFC_task,59.9485374177834,
stimuli/rgb_scene000012_render000003.png,stimuli/rgb_scene000012_render000004.png,0,186,186,57,"[1, 0]",left,1,725,27,f,y,y,2019_Apr_30_1403,2AFC_task,59.9485374177834,
stimuli/rgb_scene000005_render000001.png,stimuli/rgb_scene000005_render000003.png,0,187,187,28,"[0, 1]",right,1,725,27,f,y,y,2019_Apr_30_1403,2AFC_task,59.9485374177834,
stimuli/rgb_scene000096_render000001.png,stimuli/rgb_scene000096_render000004.png,0,188,188,113,"[0, 1]",right,1,725,27,f,y,y,2019_Apr_30_1403,2AFC_task,59.9485374177834,
stimuli/rgb_scene000004_render000005.png,stimuli/rgb_scene000004_render000006.png,0,189,189,20,"[0, 1]",right,1,725,27,f,y,y,2019_Apr_30_1403,2AFC_task,59.9485374177834,
stimuli/rgb_scene000102_render000004.png,stimuli/rgb_scene000102_render000006.png,0,190,190,145,"[0, 1]",right,1,725,27,f,y,y,2019_Apr_30_1403,2AFC_task,59.9485374177834,
stimuli/rgb_scene000012_render000001.png,stimuli/rgb_scene000012_render000003.png,0,191,191,49,"[1, 0]",left,1,725,27,f,y,y,2019_Apr_30_1403,2AFC_task,59.9485374177834,
stimuli/rgb_scene000090_render000005.png,stimuli/rgb_scene000090_render000006.png,0,192,192,83,"[0, 1]",right,1,725,27,f,y,y,2019_Apr_30_1403,2AFC_task,59.9485374177834,
stimuli/rgb_scene000095_render000001.png,stimuli/rgb_scene000095_render000004.png,0,193,193,92,"[0, 1]",right,1,725,27,f,y,y,2019_Apr_30_1403,2AFC_task,59.9485374177834,
stimuli/rgb_scene000113_render000003.png,stimuli/rgb_scene000113_render000005.png,0,194,194,163,"[0, 1]",right,1,725,27,f,y,y,2019_Apr_30_1403,2AFC_task,59.9485374177834,
stimuli/rgb_scene000096_render000004.png,stimuli/rgb_scene000096_render000006.png,0,195,195,124,"[0, 1]",right,1,725,27,f,y,y,2019_Apr_30_1403,2AFC_task,59.9485374177834,
stimuli/rgb_scene000005_render000004.png,stimuli/rgb_scene000005_render000006.png,0,196,196,40,"[1, 0]",right,0,725,27,f,y,y,2019_Apr_30_1403,2AFC_task,59.9485374177834,
stimuli/rgb_scene000096_render000003.png,stimuli/rgb_scene000096_render000004.png,0,197,197,120,"[1, 0]",left,1,725,27,f,y,y,2019_Apr_30_1403,2AFC_task,59.9485374177834,
stimuli/rgb_scene000102_render000000.png,stimuli/rgb_scene000102_render000006.png,0,198,198,131,"[1, 0]",left,1,725,27,f,y,y,2019_Apr_30_1403,2AFC_task,59.9485374177834,
stimuli/rgb_scene000004_render000000.png,stimuli/rgb_scene000004_render000005.png,0,199,199,4,"[1, 0]",left,1,725,27,f,y,y,2019_Apr_30_1403,2AFC_task,59.9485374177834,
stimuli/rgb_scene000195_render000001.png,stimuli/rgb_scene000195_render000002.png,0,200,200,195,"[0, 1]",right,1,725,27,f,y,y,2019_Apr_30_1403,2AFC_task,59.9485374177834,
stimuli/rgb_scene000012_render000000.png,stimuli/rgb_scene000012_render000002.png,0,201,201,43,"[0, 1]",right,1,725,27,f,y,y,2019_Apr_30_1403,2AFC_task,59.9485374177834,
stimuli/rgb_scene000012_render000003.png,stimuli/rgb_scene000012_render000005.png,0,202,202,58,"[0, 1]",right,1,725,27,f,y,y,2019_Apr_30_1403,2AFC_task,59.9485374177834,
stimuli/rgb_scene000146_render000000.png,stimuli/rgb_scene000146_render000001.png,0,203,203,168,"[1, 0]",left,1,725,27,f,y,y,2019_Apr_30_1403,2AFC_task,59.9485374177834,
stimuli/rgb_scene000113_render000002.png,stimuli/rgb_scene000113_render000004.png,0,204,204,159,"[1, 0]",left,1,725,27,f,y,y,2019_Apr_30_1403,2AFC_task,59.9485374177834,
stimuli/rgb_scene000113_render000000.png,stimuli/rgb_scene000113_render000001.png,0,205,205,147,"[1, 0]",left,1,725,27,f,y,y,2019_Apr_30_1403,2AFC_task,59.9485374177834,
stimuli/rgb_scene000113_render000001.png,stimuli/rgb_scene000113_render000005.png,0,206,206,156,"[0, 1]",right,1,725,27,f,y,y,2019_Apr_30_1403,2AFC_task,59.9485374177834,
stimuli/rgb_scene000113_render000001.png,stimuli/rgb_scene000113_render000006.png,0,207,207,157,"[1, 0]",left,1,725,27,f,y,y,2019_Apr_30_1403,2AFC_task,59.9485374177834,
stimuli/rgb_scene000096_render000000.png,stimuli/rgb_scene000096_render000004.png,0,208,208,108,"[1, 0]",left,1,725,27,f,y,y,2019_Apr_30_1403,2AFC_task,59.9485374177834,
stimuli/rgb_scene000113_render000002.png,stimuli/rgb_scene000113_render000006.png,0,209,209,161,"[0, 1]",right,1,725,27,f,y,y,2019_Apr_30_1403,2AFC_task,59.9485374177834,
stimuli/rgb_scene000113_render000004.png,stimuli/rgb_scene000113_render000005.png,1,0,210,165,"[0, 1]",right,1,725,27,f,y,y,2019_Apr_30_1403,2AFC_task,59.9485374177834,
stimuli/rgb_scene000012_render000000.png,stimuli/rgb_scene000012_render000002.png,1,1,211,43,"[0, 1]",right,1,725,27,f,y,y,2019_Apr_30_1403,2AFC_task,59.9485374177834,
stimuli/rgb_scene000096_render000004.png,stimuli/rgb_scene000096_render000006.png,1,2,212,124,"[0, 1]",right,1,725,27,f,y,y,2019_Apr_30_1403,2AFC_task,59.9485374177834,
stimuli/rgb_scene000113_render000000.png,stimuli/rgb_scene000113_render000003.png,1,3,213,149,"[0, 1]",right,1,725,27,f,y,y,2019_Apr_30_1403,2AFC_task,59.9485374177834,
stimuli/rgb_scene000146_render000000.png,stimuli/rgb_scene000146_render000001.png,1,4,214,168,"[0, 1]",right,1,725,27,f,y,y,2019_Apr_30_1403,2AFC_task,59.9485374177834,
stimuli/rgb_scene000004_render000004.png,stimuli/rgb_scene000004_render000005.png,1,5,215,18,"[1, 0]",left,1,725,27,f,y,y,2019_Apr_30_1403,2AFC_task,59.9485374177834,
stimuli/rgb_scene000195_render000003.png,stimuli/rgb_scene000195_render000004.png,1,6,216,204,"[0, 1]",left,0,725,27,f,y,y,2019_Apr_30_1403,2AFC_task,59.9485374177834,
stimuli/rgb_scene000012_render000000.png,stimuli/rgb_scene000012_render000003.png,1,7,217,44,"[0, 1]",right,1,725,27,f,y,y,2019_Apr_30_1403,2AFC_task,59.9485374177834,
stimuli/rgb_scene000005_render000002.png,stimuli/rgb_scene000005_render000006.png,1,8,218,35,"[0, 1]",right,1,725,27,f,y,y,2019_Apr_30_1403,2AFC_task,59.9485374177834,
stimuli/rgb_scene000090_render000001.png,stimuli/rgb_scene000090_render000004.png,1,9,219,71,"[1, 0]",right,0,725,27,f,y,y,2019_Apr_30_1403,2AFC_task,59.9485374177834,
stimuli/rgb_scene000146_render000000.png,stimuli/rgb_scene000146_render000002.png,1,10,220,169,"[1, 0]",left,1,725,27,f,y,y,2019_Apr_30_1403,2AFC_task,59.9485374177834,
stimuli/rgb_scene000005_render000004.png,stimuli/rgb_scene000005_render000006.png,1,11,221,40,"[0, 1]",left,0,725,27,f,y,y,2019_Apr_30_1403,2AFC_task,59.9485374177834,
stimuli/rgb_scene000005_render000003.png,stimuli/rgb_scene000005_render000005.png,1,12,222,37,"[0, 1]",left,0,725,27,f,y,y,2019_Apr_30_1403,2AFC_task,59.9485374177834,
stimuli/rgb_scene000005_render000002.png,stimuli/rgb_scene000005_render000003.png,1,13,223,32,"[1, 0]",right,0,725,27,f,y,y,2019_Apr_30_1403,2AFC_task,59.9485374177834,
stimuli/rgb_scene000005_render000004.png,stimuli/rgb_scene000005_render000005.png,1,14,224,39,"[0, 1]",left,0,725,27,f,y,y,2019_Apr_30_1403,2AFC_task,59.9485374177834,
stimuli/rgb_scene000146_render000001.png,stimuli/rgb_scene000146_render000003.png,1,15,225,175,"[0, 1]",right,1,725,27,f,y,y,2019_Apr_30_1403,2AFC_task,59.9485374177834,
stimuli/rgb_scene000004_render000001.png,stimuli/rgb_scene000004_render000002.png,1,16,226,6,"[0, 1]",right,1,725,27,f,y,y,2019_Apr_30_1403,2AFC_task,59.9485374177834,
stimuli/rgb_scene000005_render000001.png,stimuli/rgb_scene000005_render000003.png,1,17,227,28,"[1, 0]",left,1,725,27,f,y,y,2019_Apr_30_1403,2AFC_task,59.9485374177834,
stimuli/rgb_scene000005_render000000.png,stimuli/rgb_scene000005_render000001.png,1,18,228,21,"[0, 1]",right,1,725,27,f,y,y,2019_Apr_30_1403,2AFC_task,59.9485374177834,
stimuli/rgb_scene000005_render000000.png,stimuli/rgb_scene000005_render000004.png,1,19,229,24,"[1, 0]",left,1,725,27,f,y,y,2019_Apr_30_1403,2AFC_task,59.9485374177834,
stimuli/rgb_scene000102_render000004.png,stimuli/rgb_scene000102_render000005.png,1,20,230,144,"[0, 1]",right,1,725,27,f,y,y,2019_Apr_30_1403,2AFC_task,59.9485374177834,
stimuli/rgb_scene000004_render000001.png,stimuli/rgb_scene000004_render000004.png,1,21,231,8,"[0, 1]",right,1,725,27,f,y,y,2019_Apr_30_1403,2AFC_task,59.9485374177834,
stimuli/rgb_scene000146_render000001.png,stimuli/rgb_scene000146_render000002.png,1,22,232,174,"[0, 1]",right,1,725,27,f,y,y,2019_Apr_30_1403,2AFC_task,59.9485374177834,
stimuli/rgb_scene000146_render000000.png,stimuli/rgb_scene000146_render000005.png,1,23,233,172,"[0, 1]",right,1,725,27,f,y,y,2019_Apr_30_1403,2AFC_task,59.9485374177834,
stimuli/rgb_scene000195_render000004.png,stimuli/rgb_scene000195_render000005.png,1,24,234,207,"[1, 0]",left,1,725,27,f,y,y,2019_Apr_30_1403,2AFC_task,59.9485374177834,
stimuli/rgb_scene000090_render000000.png,stimuli/rgb_scene000090_render000002.png,1,25,235,64,"[0, 1]",left,0,725,27,f,y,y,2019_Apr_30_1403,2AFC_task,59.9485374177834,
stimuli/rgb_scene000095_render000000.png,stimuli/rgb_scene000095_render000003.png,1,26,236,86,"[1, 0]",left,1,725,27,f,y,y,2019_Apr_30_1403,2AFC_task,59.9485374177834,
stimuli/rgb_scene000102_render000003.png,stimuli/rgb_scene000102_render000004.png,1,27,237,141,"[0, 1]",right,1,725,27,f,y,y,2019_Apr_30_1403,2AFC_task,59.9485374177834,
stimuli/rgb_scene000095_render000000.png,stimuli/rgb_scene000095_render000002.png,1,28,238,85,"[0, 1]",right,1,725,27,f,y,y,2019_Apr_30_1403,2AFC_task,59.9485374177834,
stimuli/rgb_scene000090_render000000.png,stimuli/rgb_scene000090_render000003.png,1,29,239,65,"[1, 0]",right,0,725,27,f,y,y,2019_Apr_30_1403,2AFC_task,59.9485374177834,
stimuli/rgb_scene000096_render000001.png,stimuli/rgb_scene000096_render000003.png,1,30,240,112,"[1, 0]",left,1,725,27,f,y,y,2019_Apr_30_1403,2AFC_task,59.9485374177834,
stimuli/rgb_scene000113_render000001.png,stimuli/rgb_scene000113_render000005.png,1,31,241,156,"[1, 0]",left,1,725,27,f,y,y,2019_Apr_30_1403,2AFC_task,59.9485374177834,
stimuli/rgb_scene000012_render000001.png,stimuli/rgb_scene000012_render000004.png,1,32,242,50,"[1, 0]",left,1,725,27,f,y,y,2019_Apr_30_1403,2AFC_task,59.9485374177834,
stimuli/rgb_scene000005_render000005.png,stimuli/rgb_scene000005_render000006.png,1,33,243,41,"[1, 0]",right,0,725,27,f,y,y,2019_Apr_30_1403,2AFC_task,59.9485374177834,
stimuli/rgb_scene000102_render000001.png,stimuli/rgb_scene000102_render000002.png,1,34,244,132,"[1, 0]",left,1,725,27,f,y,y,2019_Apr_30_1403,2AFC_task,59.9485374177834,
stimuli/rgb_scene000096_render000003.png,stimuli/rgb_scene000096_render000005.png,1,35,245,121,"[1, 0]",left,1,725,27,f,y,y,2019_Apr_30_1403,2AFC_task,59.9485374177834,
stimuli/rgb_scene000095_render000000.png,stimuli/rgb_scene000095_render000005.png,1,36,246,88,"[1, 0]",left,1,725,27,f,y,y,2019_Apr_30_1403,2AFC_task,59.9485374177834,
stimuli/rgb_scene000113_render000000.png,stimuli/rgb_scene000113_render000002.png,1,37,247,148,"[0, 1]",right,1,725,27,f,y,y,2019_Apr_30_1403,2AFC_task,59.9485374177834,
stimuli/rgb_scene000095_render000003.png,stimuli/rgb_scene000095_render000004.png,1,38,248,99,"[0, 1]",right,1,725,27,f,y,y,2019_Apr_30_1403,2AFC_task,59.9485374177834,
stimuli/rgb_scene000113_render000002.png,stimuli/rgb_scene000113_render000005.png,1,39,249,160,"[1, 0]",left,1,725,27,f,y,y,2019_Apr_30_1403,2AFC_task,59.9485374177834,
stimuli/rgb_scene000096_render000002.png,stimuli/rgb_scene000096_render000004.png,1,40,250,117,"[1, 0]",left,1,725,27,f,y,y,2019_Apr_30_1403,2AFC_task,59.9485374177834,
stimuli/rgb_scene000095_render000000.png,stimuli/rgb_scene000095_render000004.png,1,41,251,87,"[0, 1]",right,1,725,27,f,y,y,2019_Apr_30_1403,2AFC_task,59.9485374177834,
stimuli/rgb_scene000195_render000002.png,stimuli/rgb_scene000195_render000003.png,1,42,252,200,"[0, 1]",left,0,725,27,f,y,y,2019_Apr_30_1403,2AFC_task,59.9485374177834,
stimuli/rgb_scene000004_render000000.png,stimuli/rgb_scene000004_render000005.png,1,43,253,4,"[1, 0]",left,1,725,27,f,y,y,2019_Apr_30_1403,2AFC_task,59.9485374177834,
stimuli/rgb_scene000113_render000001.png,stimuli/rgb_scene000113_render000002.png,1,44,254,153,"[0, 1]",right,1,725,27,f,y,y,2019_Apr_30_1403,2AFC_task,59.9485374177834,
stimuli/rgb_scene000004_render000003.png,stimuli/rgb_scene000004_render000005.png,1,45,255,16,"[0, 1]",right,1,725,27,f,y,y,2019_Apr_30_1403,2AFC_task,59.9485374177834,
stimuli/rgb_scene000095_render000005.png,stimuli/rgb_scene000095_render000006.png,1,46,256,104,"[0, 1]",right,1,725,27,f,y,y,2019_Apr_30_1403,2AFC_task,59.9485374177834,
stimuli/rgb_scene000012_render000001.png,stimuli/rgb_scene000012_render000005.png,1,47,257,51,"[1, 0]",left,1,725,27,f,y,y,2019_Apr_30_1403,2AFC_task,59.9485374177834,
stimuli/rgb_scene000012_render000001.png,stimuli/rgb_scene000012_render000002.png,1,48,258,48,"[0, 1]",right,1,725,27,f,y,y,2019_Apr_30_1403,2AFC_task,59.9485374177834,
stimuli/rgb_scene000095_render000003.png,stimuli/rgb_scene000095_render000005.png,1,49,259,100,"[0, 1]",right,1,725,27,f,y,y,2019_Apr_30_1403,2AFC_task,59.9485374177834,
stimuli/rgb_scene000195_render000001.png,stimuli/rgb_scene000195_render000006.png,1,50,260,199,"[1, 0]",right,0,725,27,f,y,y,2019_Apr_30_1403,2AFC_task,59.9485374177834,
stimuli/rgb_scene000012_render000000.png,stimuli/rgb_scene000012_render000004.png,1,51,261,45,"[1, 0]",left,1,725,27,f,y,y,2019_Apr_30_1403,2AFC_task,59.9485374177834,
stimuli/rgb_scene000004_render000003.png,stimuli/rgb_scene000004_render000004.png,1,52,262,15,"[1, 0]",left,1,725,27,f,y,y,2019_Apr_30_1403,2AFC_task,59.9485374177834,
stimuli/rgb_scene000012_render000002.png,stimuli/rgb_scene000012_render000006.png,1,53,263,56,"[0, 1]",right,1,725,27,f,y,y,2019_Apr_30_1403,2AFC_task,59.9485374177834,
stimuli/rgb_scene000096_render000003.png,stimuli/rgb_scene000096_render000006.png,1,54,264,122,"[1, 0]",left,1,725,27,f,y,y,2019_Apr_30_1403,2AFC_task,59.9485374177834,
stimuli/rgb_scene000096_render000003.png,stimuli/rgb_scene000096_render000004.png,1,55,265,120,"[0, 1]",right,1,725,27,f,y,y,2019_Apr_30_1403,2AFC_task,59.9485374177834,
stimuli/rgb_scene000102_render000001.png,stimuli/rgb_scene000102_render000006.png,1,56,266,136,"[0, 1]",right,1,725,27,f,y,y,2019_Apr_30_1403,2AFC_task,59.9485374177834,
stimuli/rgb_scene000113_render000000.png,stimuli/rgb_scene000113_render000006.png,1,57,267,152,"[1, 0]",left,1,725,27,f,y,y,2019_Apr_30_1403,2AFC_task,59.9485374177834,
stimuli/rgb_scene000195_render000000.png,stimuli/rgb_scene000195_render000001.png,1,58,268,189,"[0, 1]",right,1,725,27,f,y,y,2019_Apr_30_1403,2AFC_task,59.9485374177834,
stimuli/rgb_scene000195_render000005.png,stimuli/rgb_scene000195_render000006.png,1,59,269,209,"[0, 1]",left,0,725,27,f,y,y,2019_Apr_30_1403,2AFC_task,59.9485374177834,
stimuli/rgb_scene000012_render000002.png,stimuli/rgb_scene000012_render000003.png,1,60,270,53,"[1, 0]",left,1,725,27,f,y,y,2019_Apr_30_1403,2AFC_task,59.9485374177834,
stimuli/rgb_scene000146_render000005.png,stimuli/rgb_scene000146_render000006.png,1,61,271,188,"[1, 0]",left,1,725,27,f,y,y,2019_Apr_30_1403,2AFC_task,59.9485374177834,
stimuli/rgb_scene000096_render000002.png,stimuli/rgb_scene000096_render000003.png,1,62,272,116,"[1, 0]",left,1,725,27,f,y,y,2019_Apr_30_1403,2AFC_task,59.9485374177834,
stimuli/rgb_scene000113_render000002.png,stimuli/rgb_scene000113_render000003.png,1,63,273,158,"[0, 1]",right,1,725,27,f,y,y,2019_Apr_30_1403,2AFC_task,59.9485374177834,
stimuli/rgb_scene000102_render000001.png,stimuli/rgb_scene000102_render000005.png,1,64,274,135,"[1, 0]",left,1,725,27,f,y,y,2019_Apr_30_1403,2AFC_task,59.9485374177834,
stimuli/rgb_scene000195_render000002.png,stimuli/rgb_scene000195_render000005.png,1,65,275,202,"[0, 1]",left,0,725,27,f,y,y,2019_Apr_30_1403,2AFC_task,59.9485374177834,
stimuli/rgb_scene000090_render000004.png,stimuli/rgb_scene000090_render000005.png,1,66,276,81,"[1, 0]",left,1,725,27,f,y,y,2019_Apr_30_1403,2AFC_task,59.9485374177834,
stimuli/rgb_scene000096_render000000.png,stimuli/rgb_scene000096_render000002.png,1,67,277,106,"[1, 0]",left,1,725,27,f,y,y,2019_Apr_30_1403,2AFC_task,59.9485374177834,
stimuli/rgb_scene000095_render000000.png,stimuli/rgb_scene000095_render000006.png,1,68,278,89,"[1, 0]",left,1,725,27,f,y,y,2019_Apr_30_1403,2AFC_task,59.9485374177834,
stimuli/rgb_scene000096_render000005.png,stimuli/rgb_scene000096_render000006.png,1,69,279,125,"[1, 0]",left,1,725,27,f,y,y,2019_Apr_30_1403,2AFC_task,59.9485374177834,
stimuli/rgb_scene000113_render000001.png,stimuli/rgb_scene000113_render000003.png,1,70,280,154,"[0, 1]",right,1,725,27,f,y,y,2019_Apr_30_1403,2AFC_task,59.9485374177834,
stimuli/rgb_scene000195_render000000.png,stimuli/rgb_scene000195_render000005.png,1,71,281,193,"[0, 1]",right,1,725,27,f,y,y,2019_Apr_30_1403,2AFC_task,59.9485374177834,
stimuli/rgb_scene000012_render000000.png,stimuli/rgb_scene000012_render000001.png,1,72,282,42,"[1, 0]",left,1,725,27,f,y,y,2019_Apr_30_1403,2AFC_task,59.9485374177834,
stimuli/rgb_scene000012_render000000.png,stimuli/rgb_scene000012_render000005.png,1,73,283,46,"[0, 1]",right,1,725,27,f,y,y,2019_Apr_30_1403,2AFC_task,59.9485374177834,
stimuli/rgb_scene000102_render000003.png,stimuli/rgb_scene000102_render000006.png,1,74,284,143,"[0, 1]",right,1,725,27,f,y,y,2019_Apr_30_1403,2AFC_task,59.9485374177834,
stimuli/rgb_scene000004_render000002.png,stimuli/rgb_scene000004_render000004.png,1,75,285,12,"[0, 1]",right,1,725,27,f,y,y,2019_Apr_30_1403,2AFC_task,59.9485374177834,
stimuli/rgb_scene000004_render000000.png,stimuli/rgb_scene000004_render000002.png,1,76,286,1,"[1, 0]",left,1,725,27,f,y,y,2019_Apr_30_1403,2AFC_task,59.9485374177834,
stimuli/rgb_scene000012_render000001.png,stimuli/rgb_scene000012_render000003.png,1,77,287,49,"[1, 0]",left,1,725,27,f,y,y,2019_Apr_30_1403,2AFC_task,59.9485374177834,
stimuli/rgb_scene000096_render000004.png,stimuli/rgb_scene000096_render000005.png,1,78,288,123,"[0, 1]",right,1,725,27,f,y,y,2019_Apr_30_1403,2AFC_task,59.9485374177834,
stimuli/rgb_scene000090_render000000.png,stimuli/rgb_scene000090_render000006.png,1,79,289,68,"[1, 0]",right,0,725,27,f,y,y,2019_Apr_30_1403,2AFC_task,59.9485374177834,
stimuli/rgb_scene000090_render000002.png,stimuli/rgb_scene000090_render000006.png,1,80,290,77,"[1, 0]",right,0,725,27,f,y,y,2019_Apr_30_1403,2AFC_task,59.9485374177834,
stimuli/rgb_scene000012_render000001.png,stimuli/rgb_scene000012_render000006.png,1,81,291,52,"[1, 0]",right,0,725,27,f,y,y,2019_Apr_30_1403,2AFC_task,59.9485374177834,
stimuli/rgb_scene000146_render000004.png,stimuli/rgb_scene000146_render000006.png,1,82,292,187,"[1, 0]",left,1,725,27,f,y,y,2019_Apr_30_1403,2AFC_task,59.9485374177834,
stimuli/rgb_scene000096_render000000.png,stimuli/rgb_scene000096_render000003.png,1,83,293,107,"[1, 0]",left,1,725,27,f,y,y,2019_Apr_30_1403,2AFC_task,59.9485374177834,
stimuli/rgb_scene000004_render000002.png,stimuli/rgb_scene000004_render000005.png,1,84,294,13,"[1, 0]",left,1,725,27,f,y,y,2019_Apr_30_1403,2AFC_task,59.9485374177834,
stimuli/rgb_scene000146_render000000.png,stimuli/rgb_scene000146_render000003.png,1,85,295,170,"[1, 0]",left,1,725,27,f,y,y,2019_Apr_30_1403,2AFC_task,59.9485374177834,
stimuli/rgb_scene000005_render000001.png,stimuli/rgb_scene000005_render000004.png,1,86,296,29,"[0, 1]",right,1,725,27,f,y,y,2019_Apr_30_1403,2AFC_task,59.9485374177834,
stimuli/rgb_scene000090_render000002.png,stimuli/rgb_scene000090_render000005.png,1,87,297,76,"[0, 1]",left,0,725,27,f,y,y,2019_Apr_30_1403,2AFC_task,59.9485374177834,
stimuli/rgb_scene000102_render000001.png,stimuli/rgb_scene000102_render000004.png,1,88,298,134,"[1, 0]",left,1,725,27,f,y,y,2019_Apr_30_1403,2AFC_task,59.9485374177834,
stimuli/rgb_scene000146_render000002.png,stimuli/rgb_scene000146_render000003.png,1,89,299,179,"[1, 0]",left,1,725,27,f,y,y,2019_Apr_30_1403,2AFC_task,59.9485374177834,
stimuli/rgb_scene000102_render000000.png,stimuli/rgb_scene000102_render000006.png,1,90,300,131,"[1, 0]",left,1,725,27,f,y,y,2019_Apr_30_1403,2AFC_task,59.9485374177834,
stimuli/rgb_scene000146_render000001.png,stimuli/rgb_scene000146_render000005.png,1,91,301,177,"[0, 1]",right,1,725,27,f,y,y,2019_Apr_30_1403,2AFC_task,59.9485374177834,
stimuli/rgb_scene000096_render000000.png,stimuli/rgb_scene000096_render000005.png,1,92,302,109,"[1, 0]",left,1,725,27,f,y,y,2019_Apr_30_1403,2AFC_task,59.9485374177834,
stimuli/rgb_scene000096_render000001.png,stimuli/rgb_scene000096_render000004.png,1,93,303,113,"[0, 1]",right,1,725,27,f,y,y,2019_Apr_30_1403,2AFC_task,59.9485374177834,
stimuli/rgb_scene000195_render000000.png,stimuli/rgb_scene000195_render000006.png,1,94,304,194,"[1, 0]",right,0,725,27,f,y,y,2019_Apr_30_1403,2AFC_task,59.9485374177834,
stimuli/rgb_scene000095_render000001.png,stimuli/rgb_scene000095_render000003.png,1,95,305,91,"[1, 0]",left,1,725,27,f,y,y,2019_Apr_30_1403,2AFC_task,59.9485374177834,
stimuli/rgb_scene000195_render000001.png,stimuli/rgb_scene000195_render000002.png,1,96,306,195,"[1, 0]",right,0,725,27,f,y,y,2019_Apr_30_1403,2AFC_task,59.9485374177834,
stimuli/rgb_scene000146_render000002.png,stimuli/rgb_scene000146_render000004.png,1,97,307,180,"[1, 0]",left,1,725,27,f,y,y,2019_Apr_30_1403,2AFC_task,59.9485374177834,
stimuli/rgb_scene000090_render000001.png,stimuli/rgb_scene000090_render000003.png,1,98,308,70,"[1, 0]",right,0,725,27,f,y,y,2019_Apr_30_1403,2AFC_task,59.9485374177834,
stimuli/rgb_scene000005_render000001.png,stimuli/rgb_scene000005_render000005.png,1,99,309,30,"[1, 0]",right,0,725,27,f,y,y,2019_Apr_30_1403,2AFC_task,59.9485374177834,
stimuli/rgb_scene000113_render000000.png,stimuli/rgb_scene000113_render000004.png,1,100,310,150,"[0, 1]",right,1,725,27,f,y,y,2019_Apr_30_1403,2AFC_task,59.9485374177834,
stimuli/rgb_scene000113_render000000.png,stimuli/rgb_scene000113_render000005.png,1,101,311,151,"[0, 1]",right,1,725,27,f,y,y,2019_Apr_30_1403,2AFC_task,59.9485374177834,
stimuli/rgb_scene000146_render000000.png,stimuli/rgb_scene000146_render000006.png,1,102,312,173,"[1, 0]",left,1,725,27,f,y,y,2019_Apr_30_1403,2AFC_task,59.9485374177834,
stimuli/rgb_scene000012_render000003.png,stimuli/rgb_scene000012_render000004.png,1,103,313,57,"[1, 0]",left,1,725,27,f,y,y,2019_Apr_30_1403,2AFC_task,59.9485374177834,
stimuli/rgb_scene000146_render000003.png,stimuli/rgb_scene000146_render000006.png,1,104,314,185,"[1, 0]",left,1,725,27,f,y,y,2019_Apr_30_1403,2AFC_task,59.9485374177834,
stimuli/rgb_scene000005_render000000.png,stimuli/rgb_scene000005_render000003.png,1,105,315,23,"[0, 1]",right,1,725,27,f,y,y,2019_Apr_30_1403,2AFC_task,59.9485374177834,
stimuli/rgb_scene000095_render000001.png,stimuli/rgb_scene000095_render000006.png,1,106,316,94,"[1, 0]",left,1,725,27,f,y,y,2019_Apr_30_1403,2AFC_task,59.9485374177834,
stimuli/rgb_scene000195_render000000.png,stimuli/rgb_scene000195_render000002.png,1,107,317,190,"[0, 1]",right,1,725,27,f,y,y,2019_Apr_30_1403,2AFC_task,59.9485374177834,
stimuli/rgb_scene000195_render000004.png,stimuli/rgb_scene000195_render000006.png,1,108,318,208,"[1, 0]",right,0,725,27,f,y,y,2019_Apr_30_1403,2AFC_task,59.9485374177834,
stimuli/rgb_scene000005_render000002.png,stimuli/rgb_scene000005_render000004.png,1,109,319,33,"[1, 0]",right,0,725,27,f,y,y,2019_Apr_30_1403,2AFC_task,59.9485374177834,
stimuli/rgb_scene000004_render000002.png,stimuli/rgb_scene000004_render000003.png,1,110,320,11,"[0, 1]",right,1,725,27,f,y,y,2019_Apr_30_1403,2AFC_task,59.9485374177834,
stimuli/rgb_scene000005_render000001.png,stimuli/rgb_scene000005_render000006.png,1,111,321,31,"[0, 1]",left,0,725,27,f,y,y,2019_Apr_30_1403,2AFC_task,59.9485374177834,
stimuli/rgb_scene000095_render000002.png,stimuli/rgb_scene000095_render000005.png,1,112,322,97,"[0, 1]",right,1,725,27,f,y,y,2019_Apr_30_1403,2AFC_task,59.9485374177834,
stimuli/rgb_scene000195_render000000.png,stimuli/rgb_scene000195_render000003.png,1,113,323,191,"[0, 1]",right,1,725,27,f,y,y,2019_Apr_30_1403,2AFC_task,59.9485374177834,
stimuli/rgb_scene000102_render000000.png,stimuli/rgb_scene000102_render000003.png,1,114,324,128,"[0, 1]",right,1,725,27,f,y,y,2019_Apr_30_1403,2AFC_task,59.9485374177834,
stimuli/rgb_scene000102_render000002.png,stimuli/rgb_scene000102_render000006.png,1,115,325,140,"[1, 0]",left,1,725,27,f,y,y,2019_Apr_30_1403,2AFC_task,59.9485374177834,
stimuli/rgb_scene000005_render000002.png,stimuli/rgb_scene000005_render000005.png,1,116,326,34,"[1, 0]",right,0,725,27,f,y,y,2019_Apr_30_1403,2AFC_task,59.9485374177834,
stimuli/rgb_scene000012_render000000.png,stimuli/rgb_scene000012_render000006.png,1,117,327,47,"[0, 1]",right,1,725,27,f,y,y,2019_Apr_30_1403,2AFC_task,59.9485374177834,
stimuli/rgb_scene000195_render000003.png,stimuli/rgb_scene000195_render000005.png,1,118,328,205,"[1, 0]",right,0,725,27,f,y,y,2019_Apr_30_1403,2AFC_task,59.9485374177834,
stimuli/rgb_scene000095_render000001.png,stimuli/rgb_scene000095_render000005.png,1,119,329,93,"[1, 0]",left,1,725,27,f,y,y,2019_Apr_30_1403,2AFC_task,59.9485374177834,
stimuli/rgb_scene000146_render000003.png,stimuli/rgb_scene000146_render000005.png,1,120,330,184,"[1, 0]",left,1,725,27,f,y,y,2019_Apr_30_1403,2AFC_task,59.9485374177834,
stimuli/rgb_scene000012_render000004.png,stimuli/rgb_scene000012_render000005.png,1,121,331,60,"[1, 0]",left,1,725,27,f,y,y,2019_Apr_30_1403,2AFC_task,59.9485374177834,
stimuli/rgb_scene000090_render000001.png,stimuli/rgb_scene000090_render000006.png,1,122,332,73,"[0, 1]",left,0,725,27,f,y,y,2019_Apr_30_1403,2AFC_task,59.9485374177834,
stimuli/rgb_scene000004_render000005.png,stimuli/rgb_scene000004_render000006.png,1,123,333,20,"[1, 0]",left,1,725,27,f,y,y,2019_Apr_30_1403,2AFC_task,59.9485374177834,
stimuli/rgb_scene000102_render000001.png,stimuli/rgb_scene000102_render000003.png,1,124,334,133,"[0, 1]",right,1,725,27,f,y,y,2019_Apr_30_1403,2AFC_task,59.9485374177834,
stimuli/rgb_scene000102_render000002.png,stimuli/rgb_scene000102_render000003.png,1,125,335,137,"[1, 0]",left,1,725,27,f,y,y,2019_Apr_30_1403,2AFC_task,59.9485374177834,
stimuli/rgb_scene000004_render000003.png,stimuli/rgb_scene000004_render000006.png,1,126,336,17,"[1, 0]",left,1,725,27,f,y,y,2019_Apr_30_1403,2AFC_task,59.9485374177834,
stimuli/rgb_scene000095_render000001.png,stimuli/rgb_scene000095_render000004.png,1,127,337,92,"[1, 0]",left,1,725,27,f,y,y,2019_Apr_30_1403,2AFC_task,59.9485374177834,
stimuli/rgb_scene000095_render000002.png,stimuli/rgb_scene000095_render000003.png,1,128,338,95,"[0, 1]",right,1,725,27,f,y,y,2019_Apr_30_1403,2AFC_task,59.9485374177834,
stimuli/rgb_scene000146_render000002.png,stimuli/rgb_scene000146_render000005.png,1,129,339,181,"[1, 0]",left,1,725,27,f,y,y,2019_Apr_30_1403,2AFC_task,59.9485374177834,
stimuli/rgb_scene000102_render000000.png,stimuli/rgb_scene000102_render000005.png,1,130,340,130,"[0, 1]",right,1,725,27,f,y,y,2019_Apr_30_1403,2AFC_task,59.9485374177834,
stimuli/rgb_scene000113_render000003.png,stimuli/rgb_scene000113_render000006.png,1,131,341,164,"[0, 1]",right,1,725,27,f,y,y,2019_Apr_30_1403,2AFC_task,59.9485374177834,
stimuli/rgb_scene000102_render000002.png,stimuli/rgb_scene000102_render000005.png,1,132,342,139,"[0, 1]",right,1,725,27,f,y,y,2019_Apr_30_1403,2AFC_task,59.9485374177834,
stimuli/rgb_scene000090_render000000.png,stimuli/rgb_scene000090_render000005.png,1,133,343,67,"[0, 1]",left,0,725,27,f,y,y,2019_Apr_30_1403,2AFC_task,59.9485374177834,
stimuli/rgb_scene000004_render000002.png,stimuli/rgb_scene000004_render000006.png,1,134,344,14,"[1, 0]",left,1,725,27,f,y,y,2019_Apr_30_1403,2AFC_task,59.9485374177834,
stimuli/rgb_scene000090_render000002.png,stimuli/rgb_scene000090_render000003.png,1,135,345,74,"[1, 0]",left,1,725,27,f,y,y,2019_Apr_30_1403,2AFC_task,59.9485374177834,
stimuli/rgb_scene000005_render000001.png,stimuli/rgb_scene000005_render000002.png,1,136,346,27,"[0, 1]",right,1,725,27,f,y,y,2019_Apr_30_1403,2AFC_task,59.9485374177834,
stimuli/rgb_scene000004_render000001.png,stimuli/rgb_scene000004_render000006.png,1,137,347,10,"[0, 1]",right,1,725,27,f,y,y,2019_Apr_30_1403,2AFC_task,59.9485374177834,
stimuli/rgb_scene000004_render000000.png,stimuli/rgb_scene000004_render000006.png,1,138,348,5,"[0, 1]",right,1,725,27,f,y,y,2019_Apr_30_1403,2AFC_task,59.9485374177834,
stimuli/rgb_scene000195_render000001.png,stimuli/rgb_scene000195_render000003.png,1,139,349,196,"[1, 0]",left,1,725,27,f,y,y,2019_Apr_30_1403,2AFC_task,59.9485374177834,
stimuli/rgb_scene000095_render000003.png,stimuli/rgb_scene000095_render000006.png,1,140,350,101,"[1, 0]",left,1,725,27,f,y,y,2019_Apr_30_1403,2AFC_task,59.9485374177834,
stimuli/rgb_scene000146_render000000.png,stimuli/rgb_scene000146_render000004.png,1,141,351,171,"[1, 0]",left,1,725,27,f,y,y,2019_Apr_30_1403,2AFC_task,59.9485374177834,
stimuli/rgb_scene000096_render000001.png,stimuli/rgb_scene000096_render000002.png,1,142,352,111,"[1, 0]",left,1,725,27,f,y,y,2019_Apr_30_1403,2AFC_task,59.9485374177834,
stimuli/rgb_scene000004_render000000.png,stimuli/rgb_scene000004_render000001.png,1,143,353,0,"[0, 1]",right,1,725,27,f,y,y,2019_Apr_30_1403,2AFC_task,59.9485374177834,
stimuli/rgb_scene000195_render000002.png,stimuli/rgb_scene000195_render000006.png,1,144,354,203,"[0, 1]",left,0,725,27,f,y,y,2019_Apr_30_1403,2AFC_task,59.9485374177834,
stimuli/rgb_scene000090_render000004.png,stimuli/rgb_scene000090_render000006.png,1,145,355,82,"[1, 0]",right,0,725,27,f,y,y,2019_Apr_30_1403,2AFC_task,59.9485374177834,
stimuli/rgb_scene000195_render000000.png,stimuli/rgb_scene000195_render000004.png,1,146,356,192,"[1, 0]",left,1,725,27,f,y,y,2019_Apr_30_1403,2AFC_task,59.9485374177834,
stimuli/rgb_scene000004_render000001.png,stimuli/rgb_scene000004_render000005.png,1,147,357,9,"[1, 0]",left,1,725,27,f,y,y,2019_Apr_30_1403,2AFC_task,59.9485374177834,
stimuli/rgb_scene000090_render000005.png,stimuli/rgb_scene000090_render000006.png,1,148,358,83,"[0, 1]",left,0,725,27,f,y,y,2019_Apr_30_1403,2AFC_task,59.9485374177834,
stimuli/rgb_scene000146_render000004.png,stimuli/rgb_scene000146_render000005.png,1,149,359,186,"[1, 0]",left,1,725,27,f,y,y,2019_Apr_30_1403,2AFC_task,59.9485374177834,
stimuli/rgb_scene000095_render000002.png,stimuli/rgb_scene000095_render000006.png,1,150,360,98,"[0, 1]",right,1,725,27,f,y,y,2019_Apr_30_1403,2AFC_task,59.9485374177834,
stimuli/rgb_scene000004_render000000.png,stimuli/rgb_scene000004_render000004.png,1,151,361,3,"[1, 0]",left,1,725,27,f,y,y,2019_Apr_30_1403,2AFC_task,59.9485374177834,
stimuli/rgb_scene000090_render000003.png,stimuli/rgb_scene000090_render000004.png,1,152,362,78,"[0, 1]",left,0,725,27,f,y,y,2019_Apr_30_1403,2AFC_task,59.9485374177834,
stimuli/rgb_scene000095_render000002.png,stimuli/rgb_scene000095_render000004.png,1,153,363,96,"[0, 1]",right,1,725,27,f,y,y,2019_Apr_30_1403,2AFC_task,59.9485374177834,
stimuli/rgb_scene000102_render000003.png,stimuli/rgb_scene000102_render000005.png,1,154,364,142,"[1, 0]",left,1,725,27,f,y,y,2019_Apr_30_1403,2AFC_task,59.9485374177834,
stimuli/rgb_scene000113_render000002.png,stimuli/rgb_scene000113_render000006.png,1,155,365,161,"[1, 0]",left,1,725,27,f,y,y,2019_Apr_30_1403,2AFC_task,59.9485374177834,
stimuli/rgb_scene000146_render000002.png,stimuli/rgb_scene000146_render000006.png,1,156,366,182,"[0, 1]",right,1,725,27,f,y,y,2019_Apr_30_1403,2AFC_task,59.9485374177834,
stimuli/rgb_scene000096_render000000.png,stimuli/rgb_scene000096_render000001.png,1,157,367,105,"[1, 0]",left,1,725,27,f,y,y,2019_Apr_30_1403,2AFC_task,59.9485374177834,
stimuli/rgb_scene000005_render000000.png,stimuli/rgb_scene000005_render000006.png,1,158,368,26,"[1, 0]",right,0,725,27,f,y,y,2019_Apr_30_1403,2AFC_task,59.9485374177834,
stimuli/rgb_scene000095_render000000.png,stimuli/rgb_scene000095_render000001.png,1,159,369,84,"[0, 1]",right,1,725,27,f,y,y,2019_Apr_30_1403,2AFC_task,59.9485374177834,
stimuli/rgb_scene000096_render000002.png,stimuli/rgb_scene000096_render000006.png,1,160,370,119,"[1, 0]",left,1,725,27,f,y,y,2019_Apr_30_1403,2AFC_task,59.9485374177834,
stimuli/rgb_scene000095_render000004.png,stimuli/rgb_scene000095_render000006.png,1,161,371,103,"[1, 0]",left,1,725,27,f,y,y,2019_Apr_30_1403,2AFC_task,59.9485374177834,
stimuli/rgb_scene000012_render000004.png,stimuli/rgb_scene000012_render000006.png,1,162,372,61,"[0, 1]",right,1,725,27,f,y,y,2019_Apr_30_1403,2AFC_task,59.9485374177834,
stimuli/rgb_scene000096_render000002.png,stimuli/rgb_scene000096_render000005.png,1,163,373,118,"[0, 1]",right,1,725,27,f,y,y,2019_Apr_30_1403,2AFC_task,59.9485374177834,
stimuli/rgb_scene000113_render000003.png,stimuli/rgb_scene000113_render000005.png,1,164,374,163,"[1, 0]",left,1,725,27,f,y,y,2019_Apr_30_1403,2AFC_task,59.9485374177834,
stimuli/rgb_scene000090_render000003.png,stimuli/rgb_scene000090_render000005.png,1,165,375,79,"[0, 1]",left,0,725,27,f,y,y,2019_Apr_30_1403,2AFC_task,59.9485374177834,
stimuli/rgb_scene000102_render000000.png,stimuli/rgb_scene000102_render000004.png,1,166,376,129,"[0, 1]",right,1,725,27,f,y,y,2019_Apr_30_1403,2AFC_task,59.9485374177834,
stimuli/rgb_scene000102_render000002.png,stimuli/rgb_scene000102_render000004.png,1,167,377,138,"[1, 0]",left,1,725,27,f,y,y,2019_Apr_30_1403,2AFC_task,59.9485374177834,
stimuli/rgb_scene000096_render000000.png,stimuli/rgb_scene000096_render000004.png,1,168,378,108,"[0, 1]",right,1,725,27,f,y,y,2019_Apr_30_1403,2AFC_task,59.9485374177834,
stimuli/rgb_scene000113_render000002.png,stimuli/rgb_scene000113_render000004.png,1,169,379,159,"[1, 0]",left,1,725,27,f,y,y,2019_Apr_30_1403,2AFC_task,59.9485374177834,
stimuli/rgb_scene000004_render000000.png,stimuli/rgb_scene000004_render000003.png,1,170,380,2,"[1, 0]",left,1,725,27,f,y,y,2019_Apr_30_1403,2AFC_task,59.9485374177834,
stimuli/rgb_scene000195_render000001.png,stimuli/rgb_scene000195_render000005.png,1,171,381,198,"[1, 0]",right,0,725,27,f,y,y,2019_Apr_30_1403,2AFC_task,59.9485374177834,
stimuli/rgb_scene000096_render000000.png,stimuli/rgb_scene000096_render000006.png,1,172,382,110,"[0, 1]",right,1,725,27,f,y,y,2019_Apr_30_1403,2AFC_task,59.9485374177834,
stimuli/rgb_scene000012_render000005.png,stimuli/rgb_scene000012_render000006.png,1,173,383,62,"[1, 0]",left,1,725,27,f,y,y,2019_Apr_30_1403,2AFC_task,59.9485374177834,
stimuli/rgb_scene000102_render000000.png,stimuli/rgb_scene000102_render000002.png,1,174,384,127,"[1, 0]",left,1,725,27,f,y,y,2019_Apr_30_1403,2AFC_task,59.9485374177834,
stimuli/rgb_scene000146_render000001.png,stimuli/rgb_scene000146_render000006.png,1,175,385,178,"[0, 1]",right,1,725,27,f,y,y,2019_Apr_30_1403,2AFC_task,59.9485374177834,
stimuli/rgb_scene000004_render000004.png,stimuli/rgb_scene000004_render000006.png,1,176,386,19,"[1, 0]",left,1,725,27,f,y,y,2019_Apr_30_1403,2AFC_task,59.9485374177834,
stimuli/rgb_scene000090_render000001.png,stimuli/rgb_scene000090_render000002.png,1,177,387,69,"[0, 1]",left,0,725,27,f,y,y,2019_Apr_30_1403,2AFC_task,59.9485374177834,
stimuli/rgb_scene000090_render000000.png,stimuli/rgb_scene000090_render000001.png,1,178,388,63,"[1, 0]",right,0,725,27,f,y,y,2019_Apr_30_1403,2AFC_task,59.9485374177834,
stimuli/rgb_scene000096_render000001.png,stimuli/rgb_scene000096_render000005.png,1,179,389,114,"[1, 0]",left,1,725,27,f,y,y,2019_Apr_30_1403,2AFC_task,59.9485374177834,
stimuli/rgb_scene000095_render000004.png,stimuli/rgb_scene000095_render000005.png,1,180,390,102,"[1, 0]",left,1,725,27,f,y,y,2019_Apr_30_1403,2AFC_task,59.9485374177834,
stimuli/rgb_scene000005_render000003.png,stimuli/rgb_scene000005_render000006.png,1,181,391,38,"[1, 0]",right,0,725,27,f,y,y,2019_Apr_30_1403,2AFC_task,59.9485374177834,
stimuli/rgb_scene000102_render000005.png,stimuli/rgb_scene000102_render000006.png,1,182,392,146,"[1, 0]",left,1,725,27,f,y,y,2019_Apr_30_1403,2AFC_task,59.9485374177834,
stimuli/rgb_scene000012_render000003.png,stimuli/rgb_scene000012_render000005.png,1,183,393,58,"[0, 1]",right,1,725,27,f,y,y,2019_Apr_30_1403,2AFC_task,59.9485374177834,
stimuli/rgb_scene000090_render000000.png,stimuli/rgb_scene000090_render000004.png,1,184,394,66,"[1, 0]",right,0,725,27,f,y,y,2019_Apr_30_1403,2AFC_task,59.9485374177834,
stimuli/rgb_scene000090_render000003.png,stimuli/rgb_scene000090_render000006.png,1,185,395,80,"[0, 1]",left,0,725,27,f,y,y,2019_Apr_30_1403,2AFC_task,59.9485374177834,
stimuli/rgb_scene000012_render000002.png,stimuli/rgb_scene000012_render000005.png,1,186,396,55,"[1, 0]",left,1,725,27,f,y,y,2019_Apr_30_1403,2AFC_task,59.9485374177834,
stimuli/rgb_scene000113_render000005.png,stimuli/rgb_scene000113_render000006.png,1,187,397,167,"[0, 1]",right,1,725,27,f,y,y,2019_Apr_30_1403,2AFC_task,59.9485374177834,
stimuli/rgb_scene000113_render000004.png,stimuli/rgb_scene000113_render000006.png,1,188,398,166,"[0, 1]",right,1,725,27,f,y,y,2019_Apr_30_1403,2AFC_task,59.9485374177834,
stimuli/rgb_scene000146_render000003.png,stimuli/rgb_scene000146_render000004.png,1,189,399,183,"[0, 1]",right,1,725,27,f,y,y,2019_Apr_30_1403,2AFC_task,59.9485374177834,
stimuli/rgb_scene000102_render000004.png,stimuli/rgb_scene000102_render000006.png,1,190,400,145,"[1, 0]",left,1,725,27,f,y,y,2019_Apr_30_1403,2AFC_task,59.9485374177834,
stimuli/rgb_scene000090_render000002.png,stimuli/rgb_scene000090_render000004.png,1,191,401,75,"[0, 1]",left,0,725,27,f,y,y,2019_Apr_30_1403,2AFC_task,59.9485374177834,
stimuli/rgb_scene000012_render000003.png,stimuli/rgb_scene000012_render000006.png,1,192,402,59,"[0, 1]",right,1,725,27,f,y,y,2019_Apr_30_1403,2AFC_task,59.9485374177834,
stimuli/rgb_scene000012_render000002.png,stimuli/rgb_scene000012_render000004.png,1,193,403,54,"[0, 1]",right,1,725,27,f,y,y,2019_Apr_30_1403,2AFC_task,59.9485374177834,
stimuli/rgb_scene000096_render000001.png,stimuli/rgb_scene000096_render000006.png,1,194,404,115,"[1, 0]",left,1,725,27,f,y,y,2019_Apr_30_1403,2AFC_task,59.9485374177834,
stimuli/rgb_scene000113_render000003.png,stimuli/rgb_scene000113_render000004.png,1,195,405,162,"[0, 1]",right,1,725,27,f,y,y,2019_Apr_30_1403,2AFC_task,59.9485374177834,
stimuli/rgb_scene000113_render000000.png,stimuli/rgb_scene000113_render000001.png,1,196,406,147,"[1, 0]",left,1,725,27,f,y,y,2019_Apr_30_1403,2AFC_task,59.9485374177834,
stimuli/rgb_scene000090_render000001.png,stimuli/rgb_scene000090_render000005.png,1,197,407,72,"[0, 1]",left,0,725,27,f,y,y,2019_Apr_30_1403,2AFC_task,59.9485374177834,
stimuli/rgb_scene000102_render000000.png,stimuli/rgb_scene000102_render000001.png,1,198,408,126,"[1, 0]",left,1,725,27,f,y,y,2019_Apr_30_1403,2AFC_task,59.9485374177834,
stimuli/rgb_scene000195_render000003.png,stimuli/rgb_scene000195_render000006.png,1,199,409,206,"[1, 0]",right,0,725,27,f,y,y,2019_Apr_30_1403,2AFC_task,59.9485374177834,
stimuli/rgb_scene000005_render000003.png,stimuli/rgb_scene000005_render000004.png,1,200,410,36,"[0, 1]",left,0,725,27,f,y,y,2019_Apr_30_1403,2AFC_task,59.9485374177834,
stimuli/rgb_scene000095_render000001.png,stimuli/rgb_scene000095_render000002.png,1,201,411,90,"[1, 0]",left,1,725,27,f,y,y,2019_Apr_30_1403,2AFC_task,59.9485374177834,
stimuli/rgb_scene000005_render000000.png,stimuli/rgb_scene000005_render000002.png,1,202,412,22,"[1, 0]",left,1,725,27,f,y,y,2019_Apr_30_1403,2AFC_task,59.9485374177834,
stimuli/rgb_scene000146_render000001.png,stimuli/rgb_scene000146_render000004.png,1,203,413,176,"[0, 1]",right,1,725,27,f,y,y,2019_Apr_30_1403,2AFC_task,59.9485374177834,
stimuli/rgb_scene000004_render000001.png,stimuli/rgb_scene000004_render000003.png,1,204,414,7,"[0, 1]",right,1,725,27,f,y,y,2019_Apr_30_1403,2AFC_task,59.9485374177834,
stimuli/rgb_scene000113_render000001.png,stimuli/rgb_scene000113_render000006.png,1,205,415,157,"[0, 1]",right,1,725,27,f,y,y,2019_Apr_30_1403,2AFC_task,59.9485374177834,
stimuli/rgb_scene000195_render000002.png,stimuli/rgb_scene000195_render000004.png,1,206,416,201,"[1, 0]",right,0,725,27,f,y,y,2019_Apr_30_1403,2AFC_task,59.9485374177834,
stimuli/rgb_scene000005_render000000.png,stimuli/rgb_scene000005_render000005.png,1,207,417,25,"[1, 0]",left,1,725,27,f,y,y,2019_Apr_30_1403,2AFC_task,59.9485374177834,
stimuli/rgb_scene000113_render000001.png,stimuli/rgb_scene000113_render000004.png,1,208,418,155,"[1, 0]",left,1,725,27,f,y,y,2019_Apr_30_1403,2AFC_task,59.9485374177834,
stimuli/rgb_scene000195_render000001.png,stimuli/rgb_scene000195_render000004.png,1,209,419,197,"[0, 1]",right,1,725,27,f,y,y,2019_Apr_30_1403,2AFC_task,59.9485374177834,
