stimOne,stimTwo,trials_1.thisRepN,trials_1.thisTrialN,trials_1.thisN,trials_1.thisIndex,presentation_positions,resp_key,corresponding_image,participant ID (two digits, e.g. 01),age,gender (m/f/-),normal or corrected-to-normal vision (y/n),normal colour vision (y/n),date,expName,frameRate,
stimuli/rgb_scene000012_render000001.png,stimuli/rgb_scene000012_render000006.png,0,0,0,52,"[0, 1]",right,1,731,19,f,y,y,2019_Apr_30_1555,2AFC_task,59.944819473287225,
stimuli/rgb_scene000012_render000000.png,stimuli/rgb_scene000012_render000003.png,0,1,1,44,"[0, 1]",right,1,731,19,f,y,y,2019_Apr_30_1555,2AFC_task,59.944819473287225,
stimuli/rgb_scene000005_render000003.png,stimuli/rgb_scene000005_render000004.png,0,2,2,36,"[1, 0]",left,1,731,19,f,y,y,2019_Apr_30_1555,2AFC_task,59.944819473287225,
stimuli/rgb_scene000090_render000000.png,stimuli/rgb_scene000090_render000004.png,0,3,3,66,"[1, 0]",right,0,731,19,f,y,y,2019_Apr_30_1555,2AFC_task,59.944819473287225,
stimuli/rgb_scene000096_render000002.png,stimuli/rgb_scene000096_render000006.png,0,4,4,119,"[0, 1]",right,1,731,19,f,y,y,2019_Apr_30_1555,2AFC_task,59.944819473287225,
stimuli/rgb_scene000113_render000000.png,stimuli/rgb_scene000113_render000002.png,0,5,5,148,"[0, 1]",right,1,731,19,f,y,y,2019_Apr_30_1555,2AFC_task,59.944819473287225,
stimuli/rgb_scene000102_render000000.png,stimuli/rgb_scene000102_render000006.png,0,6,6,131,"[0, 1]",right,1,731,19,f,y,y,2019_Apr_30_1555,2AFC_task,59.944819473287225,
stimuli/rgb_scene000113_render000003.png,stimuli/rgb_scene000113_render000005.png,0,7,7,163,"[1, 0]",left,1,731,19,f,y,y,2019_Apr_30_1555,2AFC_task,59.944819473287225,
stimuli/rgb_scene000095_render000005.png,stimuli/rgb_scene000095_render000006.png,0,8,8,104,"[0, 1]",right,1,731,19,f,y,y,2019_Apr_30_1555,2AFC_task,59.944819473287225,
stimuli/rgb_scene000195_render000001.png,stimuli/rgb_scene000195_render000004.png,0,9,9,197,"[0, 1]",right,1,731,19,f,y,y,2019_Apr_30_1555,2AFC_task,59.944819473287225,
stimuli/rgb_scene000005_render000002.png,stimuli/rgb_scene000005_render000005.png,0,10,10,34,"[1, 0]",right,0,731,19,f,y,y,2019_Apr_30_1555,2AFC_task,59.944819473287225,
stimuli/rgb_scene000004_render000001.png,stimuli/rgb_scene000004_render000002.png,0,11,11,6,"[0, 1]",right,1,731,19,f,y,y,2019_Apr_30_1555,2AFC_task,59.944819473287225,
stimuli/rgb_scene000005_render000001.png,stimuli/rgb_scene000005_render000006.png,0,12,12,31,"[0, 1]",left,0,731,19,f,y,y,2019_Apr_30_1555,2AFC_task,59.944819473287225,
stimuli/rgb_scene000195_render000004.png,stimuli/rgb_scene000195_render000005.png,0,13,13,207,"[1, 0]",right,0,731,19,f,y,y,2019_Apr_30_1555,2AFC_task,59.944819473287225,
stimuli/rgb_scene000095_render000003.png,stimuli/rgb_scene000095_render000006.png,0,14,14,101,"[0, 1]",right,1,731,19,f,y,y,2019_Apr_30_1555,2AFC_task,59.944819473287225,
stimuli/rgb_scene000012_render000002.png,stimuli/rgb_scene000012_render000005.png,0,15,15,55,"[1, 0]",left,1,731,19,f,y,y,2019_Apr_30_1555,2AFC_task,59.944819473287225,
stimuli/rgb_scene000004_render000003.png,stimuli/rgb_scene000004_render000005.png,0,16,16,16,"[0, 1]",right,1,731,19,f,y,y,2019_Apr_30_1555,2AFC_task,59.944819473287225,
stimuli/rgb_scene000102_render000000.png,stimuli/rgb_scene000102_render000001.png,0,17,17,126,"[0, 1]",right,1,731,19,f,y,y,2019_Apr_30_1555,2AFC_task,59.944819473287225,
stimuli/rgb_scene000090_render000004.png,stimuli/rgb_scene000090_render000005.png,0,18,18,81,"[0, 1]",right,1,731,19,f,y,y,2019_Apr_30_1555,2AFC_task,59.944819473287225,
stimuli/rgb_scene000146_render000002.png,stimuli/rgb_scene000146_render000005.png,0,19,19,181,"[1, 0]",left,1,731,19,f,y,y,2019_Apr_30_1555,2AFC_task,59.944819473287225,
stimuli/rgb_scene000095_render000001.png,stimuli/rgb_scene000095_render000003.png,0,20,20,91,"[0, 1]",right,1,731,19,f,y,y,2019_Apr_30_1555,2AFC_task,59.944819473287225,
stimuli/rgb_scene000090_render000001.png,stimuli/rgb_scene000090_render000005.png,0,21,21,72,"[1, 0]",right,0,731,19,f,y,y,2019_Apr_30_1555,2AFC_task,59.944819473287225,
stimuli/rgb_scene000096_render000001.png,stimuli/rgb_scene000096_render000002.png,0,22,22,111,"[0, 1]",right,1,731,19,f,y,y,2019_Apr_30_1555,2AFC_task,59.944819473287225,
stimuli/rgb_scene000102_render000003.png,stimuli/rgb_scene000102_render000005.png,0,23,23,142,"[0, 1]",right,1,731,19,f,y,y,2019_Apr_30_1555,2AFC_task,59.944819473287225,
stimuli/rgb_scene000095_render000000.png,stimuli/rgb_scene000095_render000003.png,0,24,24,86,"[0, 1]",right,1,731,19,f,y,y,2019_Apr_30_1555,2AFC_task,59.944819473287225,
stimuli/rgb_scene000102_render000001.png,stimuli/rgb_scene000102_render000006.png,0,25,25,136,"[0, 1]",right,1,731,19,f,y,y,2019_Apr_30_1555,2AFC_task,59.944819473287225,
stimuli/rgb_scene000090_render000005.png,stimuli/rgb_scene000090_render000006.png,0,26,26,83,"[0, 1]",left,0,731,19,f,y,y,2019_Apr_30_1555,2AFC_task,59.944819473287225,
stimuli/rgb_scene000195_render000000.png,stimuli/rgb_scene000195_render000001.png,0,27,27,189,"[0, 1]",right,1,731,19,f,y,y,2019_Apr_30_1555,2AFC_task,59.944819473287225,
stimuli/rgb_scene000090_render000004.png,stimuli/rgb_scene000090_render000006.png,0,28,28,82,"[0, 1]",left,0,731,19,f,y,y,2019_Apr_30_1555,2AFC_task,59.944819473287225,
stimuli/rgb_scene000113_render000000.png,stimuli/rgb_scene000113_render000006.png,0,29,29,152,"[1, 0]",left,1,731,19,f,y,y,2019_Apr_30_1555,2AFC_task,59.944819473287225,
stimuli/rgb_scene000096_render000003.png,stimuli/rgb_scene000096_render000005.png,0,30,30,121,"[1, 0]",left,1,731,19,f,y,y,2019_Apr_30_1555,2AFC_task,59.944819473287225,
stimuli/rgb_scene000005_render000002.png,stimuli/rgb_scene000005_render000004.png,0,31,31,33,"[0, 1]",right,1,731,19,f,y,y,2019_Apr_30_1555,2AFC_task,59.944819473287225,
stimuli/rgb_scene000096_render000000.png,stimuli/rgb_scene000096_render000005.png,0,32,32,109,"[0, 1]",right,1,731,19,f,y,y,2019_Apr_30_1555,2AFC_task,59.944819473287225,
stimuli/rgb_scene000113_render000002.png,stimuli/rgb_scene000113_render000004.png,0,33,33,159,"[0, 1]",right,1,731,19,f,y,y,2019_Apr_30_1555,2AFC_task,59.944819473287225,
stimuli/rgb_scene000012_render000003.png,stimuli/rgb_scene000012_render000004.png,0,34,34,57,"[0, 1]",right,1,731,19,f,y,y,2019_Apr_30_1555,2AFC_task,59.944819473287225,
stimuli/rgb_scene000095_render000001.png,stimuli/rgb_scene000095_render000002.png,0,35,35,90,"[0, 1]",right,1,731,19,f,y,y,2019_Apr_30_1555,2AFC_task,59.944819473287225,
stimuli/rgb_scene000090_render000001.png,stimuli/rgb_scene000090_render000004.png,0,36,36,71,"[1, 0]",left,1,731,19,f,y,y,2019_Apr_30_1555,2AFC_task,59.944819473287225,
stimuli/rgb_scene000095_render000001.png,stimuli/rgb_scene000095_render000004.png,0,37,37,92,"[1, 0]",left,1,731,19,f,y,y,2019_Apr_30_1555,2AFC_task,59.944819473287225,
stimuli/rgb_scene000012_render000002.png,stimuli/rgb_scene000012_render000006.png,0,38,38,56,"[0, 1]",right,1,731,19,f,y,y,2019_Apr_30_1555,2AFC_task,59.944819473287225,
stimuli/rgb_scene000090_render000000.png,stimuli/rgb_scene000090_render000001.png,0,39,39,63,"[0, 1]",right,1,731,19,f,y,y,2019_Apr_30_1555,2AFC_task,59.944819473287225,
stimuli/rgb_scene000195_render000002.png,stimuli/rgb_scene000195_render000003.png,0,40,40,200,"[0, 1]",right,1,731,19,f,y,y,2019_Apr_30_1555,2AFC_task,59.944819473287225,
stimuli/rgb_scene000146_render000000.png,stimuli/rgb_scene000146_render000003.png,0,41,41,170,"[1, 0]",left,1,731,19,f,y,y,2019_Apr_30_1555,2AFC_task,59.944819473287225,
stimuli/rgb_scene000095_render000002.png,stimuli/rgb_scene000095_render000005.png,0,42,42,97,"[0, 1]",right,1,731,19,f,y,y,2019_Apr_30_1555,2AFC_task,59.944819473287225,
stimuli/rgb_scene000146_render000003.png,stimuli/rgb_scene000146_render000005.png,0,43,43,184,"[0, 1]",right,1,731,19,f,y,y,2019_Apr_30_1555,2AFC_task,59.944819473287225,
stimuli/rgb_scene000095_render000000.png,stimuli/rgb_scene000095_render000001.png,0,44,44,84,"[1, 0]",left,1,731,19,f,y,y,2019_Apr_30_1555,2AFC_task,59.944819473287225,
stimuli/rgb_scene000095_render000001.png,stimuli/rgb_scene000095_render000006.png,0,45,45,94,"[1, 0]",left,1,731,19,f,y,y,2019_Apr_30_1555,2AFC_task,59.944819473287225,
stimuli/rgb_scene000095_render000000.png,stimuli/rgb_scene000095_render000002.png,0,46,46,85,"[1, 0]",left,1,731,19,f,y,y,2019_Apr_30_1555,2AFC_task,59.944819473287225,
stimuli/rgb_scene000195_render000000.png,stimuli/rgb_scene000195_render000004.png,0,47,47,192,"[1, 0]",left,1,731,19,f,y,y,2019_Apr_30_1555,2AFC_task,59.944819473287225,
stimuli/rgb_scene000090_render000003.png,stimuli/rgb_scene000090_render000005.png,0,48,48,79,"[0, 1]",right,1,731,19,f,y,y,2019_Apr_30_1555,2AFC_task,59.944819473287225,
stimuli/rgb_scene000005_render000000.png,stimuli/rgb_scene000005_render000001.png,0,49,49,21,"[0, 1]",right,1,731,19,f,y,y,2019_Apr_30_1555,2AFC_task,59.944819473287225,
stimuli/rgb_scene000004_render000000.png,stimuli/rgb_scene000004_render000004.png,0,50,50,3,"[1, 0]",left,1,731,19,f,y,y,2019_Apr_30_1555,2AFC_task,59.944819473287225,
stimuli/rgb_scene000090_render000002.png,stimuli/rgb_scene000090_render000004.png,0,51,51,75,"[1, 0]",right,0,731,19,f,y,y,2019_Apr_30_1555,2AFC_task,59.944819473287225,
stimuli/rgb_scene000146_render000005.png,stimuli/rgb_scene000146_render000006.png,0,52,52,188,"[0, 1]",right,1,731,19,f,y,y,2019_Apr_30_1555,2AFC_task,59.944819473287225,
stimuli/rgb_scene000095_render000003.png,stimuli/rgb_scene000095_render000005.png,0,53,53,100,"[0, 1]",right,1,731,19,f,y,y,2019_Apr_30_1555,2AFC_task,59.944819473287225,
stimuli/rgb_scene000012_render000004.png,stimuli/rgb_scene000012_render000005.png,0,54,54,60,"[0, 1]",right,1,731,19,f,y,y,2019_Apr_30_1555,2AFC_task,59.944819473287225,
stimuli/rgb_scene000004_render000000.png,stimuli/rgb_scene000004_render000006.png,0,55,55,5,"[0, 1]",right,1,731,19,f,y,y,2019_Apr_30_1555,2AFC_task,59.944819473287225,
stimuli/rgb_scene000102_render000004.png,stimuli/rgb_scene000102_render000005.png,0,56,56,144,"[1, 0]",left,1,731,19,f,y,y,2019_Apr_30_1555,2AFC_task,59.944819473287225,
stimuli/rgb_scene000090_render000001.png,stimuli/rgb_scene000090_render000003.png,0,57,57,70,"[1, 0]",right,0,731,19,f,y,y,2019_Apr_30_1555,2AFC_task,59.944819473287225,
stimuli/rgb_scene000146_render000000.png,stimuli/rgb_scene000146_render000006.png,0,58,58,173,"[0, 1]",right,1,731,19,f,y,y,2019_Apr_30_1555,2AFC_task,59.944819473287225,
stimuli/rgb_scene000195_render000001.png,stimuli/rgb_scene000195_render000003.png,0,59,59,196,"[1, 0]",left,1,731,19,f,y,y,2019_Apr_30_1555,2AFC_task,59.944819473287225,
stimuli/rgb_scene000146_render000001.png,stimuli/rgb_scene000146_render000002.png,0,60,60,174,"[0, 1]",right,1,731,19,f,y,y,2019_Apr_30_1555,2AFC_task,59.944819473287225,
stimuli/rgb_scene000005_render000000.png,stimuli/rgb_scene000005_render000003.png,0,61,61,23,"[1, 0]",right,0,731,19,f,y,y,2019_Apr_30_1555,2AFC_task,59.944819473287225,
stimuli/rgb_scene000004_render000004.png,stimuli/rgb_scene000004_render000006.png,0,62,62,19,"[1, 0]",left,1,731,19,f,y,y,2019_Apr_30_1555,2AFC_task,59.944819473287225,
stimuli/rgb_scene000102_render000001.png,stimuli/rgb_scene000102_render000004.png,0,63,63,134,"[1, 0]",left,1,731,19,f,y,y,2019_Apr_30_1555,2AFC_task,59.944819473287225,
stimuli/rgb_scene000090_render000000.png,stimuli/rgb_scene000090_render000006.png,0,64,64,68,"[1, 0]",right,0,731,19,f,y,y,2019_Apr_30_1555,2AFC_task,59.944819473287225,
stimuli/rgb_scene000090_render000003.png,stimuli/rgb_scene000090_render000006.png,0,65,65,80,"[0, 1]",left,0,731,19,f,y,y,2019_Apr_30_1555,2AFC_task,59.944819473287225,
stimuli/rgb_scene000096_render000001.png,stimuli/rgb_scene000096_render000005.png,0,66,66,114,"[0, 1]",right,1,731,19,f,y,y,2019_Apr_30_1555,2AFC_task,59.944819473287225,
stimuli/rgb_scene000096_render000004.png,stimuli/rgb_scene000096_render000006.png,0,67,67,124,"[1, 0]",left,1,731,19,f,y,y,2019_Apr_30_1555,2AFC_task,59.944819473287225,
stimuli/rgb_scene000195_render000002.png,stimuli/rgb_scene000195_render000006.png,0,68,68,203,"[1, 0]",right,0,731,19,f,y,y,2019_Apr_30_1555,2AFC_task,59.944819473287225,
stimuli/rgb_scene000146_render000000.png,stimuli/rgb_scene000146_render000005.png,0,69,69,172,"[1, 0]",left,1,731,19,f,y,y,2019_Apr_30_1555,2AFC_task,59.944819473287225,
stimuli/rgb_scene000195_render000003.png,stimuli/rgb_scene000195_render000004.png,0,70,70,204,"[1, 0]",left,1,731,19,f,y,y,2019_Apr_30_1555,2AFC_task,59.944819473287225,
stimuli/rgb_scene000005_render000000.png,stimuli/rgb_scene000005_render000006.png,0,71,71,26,"[0, 1]",left,0,731,19,f,y,y,2019_Apr_30_1555,2AFC_task,59.944819473287225,
stimuli/rgb_scene000012_render000005.png,stimuli/rgb_scene000012_render000006.png,0,72,72,62,"[1, 0]",right,0,731,19,f,y,y,2019_Apr_30_1555,2AFC_task,59.944819473287225,
stimuli/rgb_scene000005_render000001.png,stimuli/rgb_scene000005_render000002.png,0,73,73,27,"[1, 0]",right,0,731,19,f,y,y,2019_Apr_30_1555,2AFC_task,59.944819473287225,
stimuli/rgb_scene000146_render000001.png,stimuli/rgb_scene000146_render000004.png,0,74,74,176,"[1, 0]",left,1,731,19,f,y,y,2019_Apr_30_1555,2AFC_task,59.944819473287225,
stimuli/rgb_scene000102_render000003.png,stimuli/rgb_scene000102_render000006.png,0,75,75,143,"[1, 0]",left,1,731,19,f,y,y,2019_Apr_30_1555,2AFC_task,59.944819473287225,
stimuli/rgb_scene000146_render000004.png,stimuli/rgb_scene000146_render000006.png,0,76,76,187,"[0, 1]",right,1,731,19,f,y,y,2019_Apr_30_1555,2AFC_task,59.944819473287225,
stimuli/rgb_scene000095_render000003.png,stimuli/rgb_scene000095_render000004.png,0,77,77,99,"[1, 0]",left,1,731,19,f,y,y,2019_Apr_30_1555,2AFC_task,59.944819473287225,
stimuli/rgb_scene000012_render000001.png,stimuli/rgb_scene000012_render000004.png,0,78,78,50,"[0, 1]",right,1,731,19,f,y,y,2019_Apr_30_1555,2AFC_task,59.944819473287225,
stimuli/rgb_scene000012_render000000.png,stimuli/rgb_scene000012_render000005.png,0,79,79,46,"[1, 0]",left,1,731,19,f,y,y,2019_Apr_30_1555,2AFC_task,59.944819473287225,
stimuli/rgb_scene000113_render000000.png,stimuli/rgb_scene000113_render000001.png,0,80,80,147,"[1, 0]",left,1,731,19,f,y,y,2019_Apr_30_1555,2AFC_task,59.944819473287225,
stimuli/rgb_scene000005_render000004.png,stimuli/rgb_scene000005_render000005.png,0,81,81,39,"[1, 0]",left,1,731,19,f,y,y,2019_Apr_30_1555,2AFC_task,59.944819473287225,
stimuli/rgb_scene000113_render000000.png,stimuli/rgb_scene000113_render000004.png,0,82,82,150,"[0, 1]",right,1,731,19,f,y,y,2019_Apr_30_1555,2AFC_task,59.944819473287225,
stimuli/rgb_scene000005_render000001.png,stimuli/rgb_scene000005_render000004.png,0,83,83,29,"[1, 0]",left,1,731,19,f,y,y,2019_Apr_30_1555,2AFC_task,59.944819473287225,
stimuli/rgb_scene000195_render000000.png,stimuli/rgb_scene000195_render000005.png,0,84,84,193,"[1, 0]",left,1,731,19,f,y,y,2019_Apr_30_1555,2AFC_task,59.944819473287225,
stimuli/rgb_scene000012_render000004.png,stimuli/rgb_scene000012_render000006.png,0,85,85,61,"[1, 0]",left,1,731,19,f,y,y,2019_Apr_30_1555,2AFC_task,59.944819473287225,
stimuli/rgb_scene000012_render000001.png,stimuli/rgb_scene000012_render000002.png,0,86,86,48,"[1, 0]",left,1,731,19,f,y,y,2019_Apr_30_1555,2AFC_task,59.944819473287225,
stimuli/rgb_scene000096_render000003.png,stimuli/rgb_scene000096_render000004.png,0,87,87,120,"[1, 0]",left,1,731,19,f,y,y,2019_Apr_30_1555,2AFC_task,59.944819473287225,
stimuli/rgb_scene000005_render000000.png,stimuli/rgb_scene000005_render000005.png,0,88,88,25,"[1, 0]",right,0,731,19,f,y,y,2019_Apr_30_1555,2AFC_task,59.944819473287225,
stimuli/rgb_scene000102_render000000.png,stimuli/rgb_scene000102_render000003.png,0,89,89,128,"[0, 1]",right,1,731,19,f,y,y,2019_Apr_30_1555,2AFC_task,59.944819473287225,
stimuli/rgb_scene000096_render000002.png,stimuli/rgb_scene000096_render000004.png,0,90,90,117,"[1, 0]",left,1,731,19,f,y,y,2019_Apr_30_1555,2AFC_task,59.944819473287225,
stimuli/rgb_scene000096_render000005.png,stimuli/rgb_scene000096_render000006.png,0,91,91,125,"[0, 1]",right,1,731,19,f,y,y,2019_Apr_30_1555,2AFC_task,59.944819473287225,
stimuli/rgb_scene000095_render000001.png,stimuli/rgb_scene000095_render000005.png,0,92,92,93,"[1, 0]",left,1,731,19,f,y,y,2019_Apr_30_1555,2AFC_task,59.944819473287225,
stimuli/rgb_scene000102_render000001.png,stimuli/rgb_scene000102_render000003.png,0,93,93,133,"[0, 1]",right,1,731,19,f,y,y,2019_Apr_30_1555,2AFC_task,59.944819473287225,
stimuli/rgb_scene000195_render000000.png,stimuli/rgb_scene000195_render000002.png,0,94,94,190,"[1, 0]",left,1,731,19,f,y,y,2019_Apr_30_1555,2AFC_task,59.944819473287225,
stimuli/rgb_scene000113_render000003.png,stimuli/rgb_scene000113_render000006.png,0,95,95,164,"[1, 0]",left,1,731,19,f,y,y,2019_Apr_30_1555,2AFC_task,59.944819473287225,
stimuli/rgb_scene000113_render000001.png,stimuli/rgb_scene000113_render000005.png,0,96,96,156,"[0, 1]",right,1,731,19,f,y,y,2019_Apr_30_1555,2AFC_task,59.944819473287225,
stimuli/rgb_scene000096_render000000.png,stimuli/rgb_scene000096_render000002.png,0,97,97,106,"[0, 1]",right,1,731,19,f,y,y,2019_Apr_30_1555,2AFC_task,59.944819473287225,
stimuli/rgb_scene000090_render000003.png,stimuli/rgb_scene000090_render000004.png,0,98,98,78,"[1, 0]",right,0,731,19,f,y,y,2019_Apr_30_1555,2AFC_task,59.944819473287225,
stimuli/rgb_scene000004_render000005.png,stimuli/rgb_scene000004_render000006.png,0,99,99,20,"[1, 0]",left,1,731,19,f,y,y,2019_Apr_30_1555,2AFC_task,59.944819473287225,
stimuli/rgb_scene000113_render000001.png,stimuli/rgb_scene000113_render000006.png,0,100,100,157,"[0, 1]",right,1,731,19,f,y,y,2019_Apr_30_1555,2AFC_task,59.944819473287225,
stimuli/rgb_scene000012_render000000.png,stimuli/rgb_scene000012_render000001.png,0,101,101,42,"[0, 1]",right,1,731,19,f,y,y,2019_Apr_30_1555,2AFC_task,59.944819473287225,
stimuli/rgb_scene000102_render000005.png,stimuli/rgb_scene000102_render000006.png,0,102,102,146,"[1, 0]",left,1,731,19,f,y,y,2019_Apr_30_1555,2AFC_task,59.944819473287225,
stimuli/rgb_scene000095_render000002.png,stimuli/rgb_scene000095_render000004.png,0,103,103,96,"[0, 1]",right,1,731,19,f,y,y,2019_Apr_30_1555,2AFC_task,59.944819473287225,
stimuli/rgb_scene000146_render000002.png,stimuli/rgb_scene000146_render000004.png,0,104,104,180,"[0, 1]",right,1,731,19,f,y,y,2019_Apr_30_1555,2AFC_task,59.944819473287225,
stimuli/rgb_scene000096_render000000.png,stimuli/rgb_scene000096_render000001.png,0,105,105,105,"[0, 1]",right,1,731,19,f,y,y,2019_Apr_30_1555,2AFC_task,59.944819473287225,
stimuli/rgb_scene000195_render000003.png,stimuli/rgb_scene000195_render000005.png,0,106,106,205,"[1, 0]",left,1,731,19,f,y,y,2019_Apr_30_1555,2AFC_task,59.944819473287225,
stimuli/rgb_scene000146_render000003.png,stimuli/rgb_scene000146_render000004.png,0,107,107,183,"[1, 0]",left,1,731,19,f,y,y,2019_Apr_30_1555,2AFC_task,59.944819473287225,
stimuli/rgb_scene000095_render000004.png,stimuli/rgb_scene000095_render000006.png,0,108,108,103,"[0, 1]",right,1,731,19,f,y,y,2019_Apr_30_1555,2AFC_task,59.944819473287225,
stimuli/rgb_scene000095_render000002.png,stimuli/rgb_scene000095_render000003.png,0,109,109,95,"[1, 0]",left,1,731,19,f,y,y,2019_Apr_30_1555,2AFC_task,59.944819473287225,
stimuli/rgb_scene000096_render000003.png,stimuli/rgb_scene000096_render000006.png,0,110,110,122,"[0, 1]",right,1,731,19,f,y,y,2019_Apr_30_1555,2AFC_task,59.944819473287225,
stimuli/rgb_scene000012_render000001.png,stimuli/rgb_scene000012_render000003.png,0,111,111,49,"[0, 1]",right,1,731,19,f,y,y,2019_Apr_30_1555,2AFC_task,59.944819473287225,
stimuli/rgb_scene000012_render000002.png,stimuli/rgb_scene000012_render000004.png,0,112,112,54,"[1, 0]",left,1,731,19,f,y,y,2019_Apr_30_1555,2AFC_task,59.944819473287225,
stimuli/rgb_scene000090_render000001.png,stimuli/rgb_scene000090_render000002.png,0,113,113,69,"[0, 1]",left,0,731,19,f,y,y,2019_Apr_30_1555,2AFC_task,59.944819473287225,
stimuli/rgb_scene000012_render000000.png,stimuli/rgb_scene000012_render000004.png,0,114,114,45,"[1, 0]",left,1,731,19,f,y,y,2019_Apr_30_1555,2AFC_task,59.944819473287225,
stimuli/rgb_scene000102_render000001.png,stimuli/rgb_scene000102_render000005.png,0,115,115,135,"[1, 0]",left,1,731,19,f,y,y,2019_Apr_30_1555,2AFC_task,59.944819473287225,
stimuli/rgb_scene000113_render000001.png,stimuli/rgb_scene000113_render000003.png,0,116,116,154,"[0, 1]",right,1,731,19,f,y,y,2019_Apr_30_1555,2AFC_task,59.944819473287225,
stimuli/rgb_scene000095_render000004.png,stimuli/rgb_scene000095_render000005.png,0,117,117,102,"[0, 1]",right,1,731,19,f,y,y,2019_Apr_30_1555,2AFC_task,59.944819473287225,
stimuli/rgb_scene000004_render000003.png,stimuli/rgb_scene000004_render000004.png,0,118,118,15,"[1, 0]",left,1,731,19,f,y,y,2019_Apr_30_1555,2AFC_task,59.944819473287225,
stimuli/rgb_scene000005_render000003.png,stimuli/rgb_scene000005_render000006.png,0,119,119,38,"[1, 0]",right,0,731,19,f,y,y,2019_Apr_30_1555,2AFC_task,59.944819473287225,
stimuli/rgb_scene000096_render000001.png,stimuli/rgb_scene000096_render000004.png,0,120,120,113,"[0, 1]",right,1,731,19,f,y,y,2019_Apr_30_1555,2AFC_task,59.944819473287225,
stimuli/rgb_scene000195_render000001.png,stimuli/rgb_scene000195_render000006.png,0,121,121,199,"[1, 0]",left,1,731,19,f,y,y,2019_Apr_30_1555,2AFC_task,59.944819473287225,
stimuli/rgb_scene000146_render000003.png,stimuli/rgb_scene000146_render000006.png,0,122,122,185,"[0, 1]",right,1,731,19,f,y,y,2019_Apr_30_1555,2AFC_task,59.944819473287225,
stimuli/rgb_scene000102_render000000.png,stimuli/rgb_scene000102_render000005.png,0,123,123,130,"[0, 1]",right,1,731,19,f,y,y,2019_Apr_30_1555,2AFC_task,59.944819473287225,
stimuli/rgb_scene000095_render000000.png,stimuli/rgb_scene000095_render000006.png,0,124,124,89,"[0, 1]",right,1,731,19,f,y,y,2019_Apr_30_1555,2AFC_task,59.944819473287225,
stimuli/rgb_scene000195_render000003.png,stimuli/rgb_scene000195_render000006.png,0,125,125,206,"[1, 0]",right,0,731,19,f,y,y,2019_Apr_30_1555,2AFC_task,59.944819473287225,
stimuli/rgb_scene000095_render000000.png,stimuli/rgb_scene000095_render000005.png,0,126,126,88,"[0, 1]",right,1,731,19,f,y,y,2019_Apr_30_1555,2AFC_task,59.944819473287225,
stimuli/rgb_scene000195_render000002.png,stimuli/rgb_scene000195_render000005.png,0,127,127,202,"[0, 1]",left,0,731,19,f,y,y,2019_Apr_30_1555,2AFC_task,59.944819473287225,
stimuli/rgb_scene000012_render000000.png,stimuli/rgb_scene000012_render000002.png,0,128,128,43,"[1, 0]",left,1,731,19,f,y,y,2019_Apr_30_1555,2AFC_task,59.944819473287225,
stimuli/rgb_scene000004_render000002.png,stimuli/rgb_scene000004_render000005.png,0,129,129,13,"[1, 0]",left,1,731,19,f,y,y,2019_Apr_30_1555,2AFC_task,59.944819473287225,
stimuli/rgb_scene000113_render000001.png,stimuli/rgb_scene000113_render000004.png,0,130,130,155,"[1, 0]",left,1,731,19,f,y,y,2019_Apr_30_1555,2AFC_task,59.944819473287225,
stimuli/rgb_scene000004_render000002.png,stimuli/rgb_scene000004_render000004.png,0,131,131,12,"[1, 0]",left,1,731,19,f,y,y,2019_Apr_30_1555,2AFC_task,59.944819473287225,
stimuli/rgb_scene000005_render000002.png,stimuli/rgb_scene000005_render000006.png,0,132,132,35,"[1, 0]",right,0,731,19,f,y,y,2019_Apr_30_1555,2AFC_task,59.944819473287225,
stimuli/rgb_scene000005_render000001.png,stimuli/rgb_scene000005_render000003.png,0,133,133,28,"[0, 1]",right,1,731,19,f,y,y,2019_Apr_30_1555,2AFC_task,59.944819473287225,
stimuli/rgb_scene000195_render000000.png,stimuli/rgb_scene000195_render000003.png,0,134,134,191,"[0, 1]",right,1,731,19,f,y,y,2019_Apr_30_1555,2AFC_task,59.944819473287225,
stimuli/rgb_scene000005_render000001.png,stimuli/rgb_scene000005_render000005.png,0,135,135,30,"[1, 0]",right,0,731,19,f,y,y,2019_Apr_30_1555,2AFC_task,59.944819473287225,
stimuli/rgb_scene000113_render000002.png,stimuli/rgb_scene000113_render000003.png,0,136,136,158,"[0, 1]",right,1,731,19,f,y,y,2019_Apr_30_1555,2AFC_task,59.944819473287225,
stimuli/rgb_scene000004_render000002.png,stimuli/rgb_scene000004_render000003.png,0,137,137,11,"[0, 1]",right,1,731,19,f,y,y,2019_Apr_30_1555,2AFC_task,59.944819473287225,
stimuli/rgb_scene000146_render000002.png,stimuli/rgb_scene000146_render000006.png,0,138,138,182,"[0, 1]",right,1,731,19,f,y,y,2019_Apr_30_1555,2AFC_task,59.944819473287225,
stimuli/rgb_scene000113_render000003.png,stimuli/rgb_scene000113_render000004.png,0,139,139,162,"[1, 0]",left,1,731,19,f,y,y,2019_Apr_30_1555,2AFC_task,59.944819473287225,
stimuli/rgb_scene000096_render000001.png,stimuli/rgb_scene000096_render000003.png,0,140,140,112,"[1, 0]",left,1,731,19,f,y,y,2019_Apr_30_1555,2AFC_task,59.944819473287225,
stimuli/rgb_scene000146_render000004.png,stimuli/rgb_scene000146_render000005.png,0,141,141,186,"[1, 0]",left,1,731,19,f,y,y,2019_Apr_30_1555,2AFC_task,59.944819473287225,
stimuli/rgb_scene000004_render000001.png,stimuli/rgb_scene000004_render000006.png,0,142,142,10,"[0, 1]",right,1,731,19,f,y,y,2019_Apr_30_1555,2AFC_task,59.944819473287225,
stimuli/rgb_scene000012_render000003.png,stimuli/rgb_scene000012_render000006.png,0,143,143,59,"[0, 1]",right,1,731,19,f,y,y,2019_Apr_30_1555,2AFC_task,59.944819473287225,
stimuli/rgb_scene000095_render000000.png,stimuli/rgb_scene000095_render000004.png,0,144,144,87,"[1, 0]",left,1,731,19,f,y,y,2019_Apr_30_1555,2AFC_task,59.944819473287225,
stimuli/rgb_scene000102_render000002.png,stimuli/rgb_scene000102_render000003.png,0,145,145,137,"[1, 0]",left,1,731,19,f,y,y,2019_Apr_30_1555,2AFC_task,59.944819473287225,
stimuli/rgb_scene000195_render000001.png,stimuli/rgb_scene000195_render000005.png,0,146,146,198,"[1, 0]",left,1,731,19,f,y,y,2019_Apr_30_1555,2AFC_task,59.944819473287225,
stimuli/rgb_scene000004_render000003.png,stimuli/rgb_scene000004_render000006.png,0,147,147,17,"[0, 1]",right,1,731,19,f,y,y,2019_Apr_30_1555,2AFC_task,59.944819473287225,
stimuli/rgb_scene000113_render000005.png,stimuli/rgb_scene000113_render000006.png,0,148,148,167,"[0, 1]",right,1,731,19,f,y,y,2019_Apr_30_1555,2AFC_task,59.944819473287225,
stimuli/rgb_scene000096_render000002.png,stimuli/rgb_scene000096_render000005.png,0,149,149,118,"[0, 1]",right,1,731,19,f,y,y,2019_Apr_30_1555,2AFC_task,59.944819473287225,
stimuli/rgb_scene000195_render000000.png,stimuli/rgb_scene000195_render000006.png,0,150,150,194,"[0, 1]",right,1,731,19,f,y,y,2019_Apr_30_1555,2AFC_task,59.944819473287225,
stimuli/rgb_scene000096_render000000.png,stimuli/rgb_scene000096_render000004.png,0,151,151,108,"[0, 1]",right,1,731,19,f,y,y,2019_Apr_30_1555,2AFC_task,59.944819473287225,
stimuli/rgb_scene000004_render000001.png,stimuli/rgb_scene000004_render000005.png,0,152,152,9,"[1, 0]",left,1,731,19,f,y,y,2019_Apr_30_1555,2AFC_task,59.944819473287225,
stimuli/rgb_scene000005_render000000.png,stimuli/rgb_scene000005_render000002.png,0,153,153,22,"[0, 1]",right,1,731,19,f,y,y,2019_Apr_30_1555,2AFC_task,59.944819473287225,
stimuli/rgb_scene000195_render000001.png,stimuli/rgb_scene000195_render000002.png,0,154,154,195,"[0, 1]",right,1,731,19,f,y,y,2019_Apr_30_1555,2AFC_task,59.944819473287225,
stimuli/rgb_scene000090_render000000.png,stimuli/rgb_scene000090_render000003.png,0,155,155,65,"[1, 0]",right,0,731,19,f,y,y,2019_Apr_30_1555,2AFC_task,59.944819473287225,
stimuli/rgb_scene000096_render000000.png,stimuli/rgb_scene000096_render000006.png,0,156,156,110,"[0, 1]",right,1,731,19,f,y,y,2019_Apr_30_1555,2AFC_task,59.944819473287225,
stimuli/rgb_scene000146_render000000.png,stimuli/rgb_scene000146_render000002.png,0,157,157,169,"[0, 1]",right,1,731,19,f,y,y,2019_Apr_30_1555,2AFC_task,59.944819473287225,
stimuli/rgb_scene000146_render000001.png,stimuli/rgb_scene000146_render000005.png,0,158,158,177,"[0, 1]",right,1,731,19,f,y,y,2019_Apr_30_1555,2AFC_task,59.944819473287225,
stimuli/rgb_scene000005_render000002.png,stimuli/rgb_scene000005_render000003.png,0,159,159,32,"[1, 0]",left,1,731,19,f,y,y,2019_Apr_30_1555,2AFC_task,59.944819473287225,
stimuli/rgb_scene000096_render000004.png,stimuli/rgb_scene000096_render000005.png,0,160,160,123,"[0, 1]",right,1,731,19,f,y,y,2019_Apr_30_1555,2AFC_task,59.944819473287225,
stimuli/rgb_scene000012_render000003.png,stimuli/rgb_scene000012_render000005.png,0,161,161,58,"[0, 1]",right,1,731,19,f,y,y,2019_Apr_30_1555,2AFC_task,59.944819473287225,
stimuli/rgb_scene000113_render000004.png,stimuli/rgb_scene000113_render000005.png,0,162,162,165,"[0, 1]",right,1,731,19,f,y,y,2019_Apr_30_1555,2AFC_task,59.944819473287225,
stimuli/rgb_scene000102_render000003.png,stimuli/rgb_scene000102_render000004.png,0,163,163,141,"[0, 1]",right,1,731,19,f,y,y,2019_Apr_30_1555,2AFC_task,59.944819473287225,
stimuli/rgb_scene000012_render000000.png,stimuli/rgb_scene000012_render000006.png,0,164,164,47,"[0, 1]",right,1,731,19,f,y,y,2019_Apr_30_1555,2AFC_task,59.944819473287225,
stimuli/rgb_scene000005_render000005.png,stimuli/rgb_scene000005_render000006.png,0,165,165,41,"[0, 1]",left,0,731,19,f,y,y,2019_Apr_30_1555,2AFC_task,59.944819473287225,
stimuli/rgb_scene000090_render000002.png,stimuli/rgb_scene000090_render000005.png,0,166,166,76,"[1, 0]",right,0,731,19,f,y,y,2019_Apr_30_1555,2AFC_task,59.944819473287225,
stimuli/rgb_scene000195_render000004.png,stimuli/rgb_scene000195_render000006.png,0,167,167,208,"[1, 0]",left,1,731,19,f,y,y,2019_Apr_30_1555,2AFC_task,59.944819473287225,
stimuli/rgb_scene000102_render000004.png,stimuli/rgb_scene000102_render000006.png,0,168,168,145,"[0, 1]",right,1,731,19,f,y,y,2019_Apr_30_1555,2AFC_task,59.944819473287225,
stimuli/rgb_scene000113_render000000.png,stimuli/rgb_scene000113_render000003.png,0,169,169,149,"[1, 0]",left,1,731,19,f,y,y,2019_Apr_30_1555,2AFC_task,59.944819473287225,
stimuli/rgb_scene000096_render000000.png,stimuli/rgb_scene000096_render000003.png,0,170,170,107,"[1, 0]",left,1,731,19,f,y,y,2019_Apr_30_1555,2AFC_task,59.944819473287225,
stimuli/rgb_scene000005_render000000.png,stimuli/rgb_scene000005_render000004.png,0,171,171,24,"[0, 1]",right,1,731,19,f,y,y,2019_Apr_30_1555,2AFC_task,59.944819473287225,
stimuli/rgb_scene000146_render000000.png,stimuli/rgb_scene000146_render000004.png,0,172,172,171,"[0, 1]",right,1,731,19,f,y,y,2019_Apr_30_1555,2AFC_task,59.944819473287225,
stimuli/rgb_scene000004_render000004.png,stimuli/rgb_scene000004_render000005.png,0,173,173,18,"[0, 1]",right,1,731,19,f,y,y,2019_Apr_30_1555,2AFC_task,59.944819473287225,
stimuli/rgb_scene000004_render000001.png,stimuli/rgb_scene000004_render000004.png,0,174,174,8,"[0, 1]",right,1,731,19,f,y,y,2019_Apr_30_1555,2AFC_task,59.944819473287225,
stimuli/rgb_scene000146_render000002.png,stimuli/rgb_scene000146_render000003.png,0,175,175,179,"[0, 1]",right,1,731,19,f,y,y,2019_Apr_30_1555,2AFC_task,59.944819473287225,
stimuli/rgb_scene000005_render000004.png,stimuli/rgb_scene000005_render000006.png,0,176,176,40,"[1, 0]",right,0,731,19,f,y,y,2019_Apr_30_1555,2AFC_task,59.944819473287225,
stimuli/rgb_scene000004_render000000.png,stimuli/rgb_scene000004_render000002.png,0,177,177,1,"[0, 1]",right,1,731,19,f,y,y,2019_Apr_30_1555,2AFC_task,59.944819473287225,
stimuli/rgb_scene000146_render000001.png,stimuli/rgb_scene000146_render000006.png,0,178,178,178,"[0, 1]",right,1,731,19,f,y,y,2019_Apr_30_1555,2AFC_task,59.944819473287225,
stimuli/rgb_scene000102_render000000.png,stimuli/rgb_scene000102_render000004.png,0,179,179,129,"[0, 1]",right,1,731,19,f,y,y,2019_Apr_30_1555,2AFC_task,59.944819473287225,
stimuli/rgb_scene000102_render000001.png,stimuli/rgb_scene000102_render000002.png,0,180,180,132,"[1, 0]",left,1,731,19,f,y,y,2019_Apr_30_1555,2AFC_task,59.944819473287225,
stimuli/rgb_scene000102_render000002.png,stimuli/rgb_scene000102_render000004.png,0,181,181,138,"[0, 1]",right,1,731,19,f,y,y,2019_Apr_30_1555,2AFC_task,59.944819473287225,
stimuli/rgb_scene000096_render000002.png,stimuli/rgb_scene000096_render000003.png,0,182,182,116,"[1, 0]",left,1,731,19,f,y,y,2019_Apr_30_1555,2AFC_task,59.944819473287225,
stimuli/rgb_scene000004_render000000.png,stimuli/rgb_scene000004_render000005.png,0,183,183,4,"[1, 0]",left,1,731,19,f,y,y,2019_Apr_30_1555,2AFC_task,59.944819473287225,
stimuli/rgb_scene000096_render000001.png,stimuli/rgb_scene000096_render000006.png,0,184,184,115,"[0, 1]",right,1,731,19,f,y,y,2019_Apr_30_1555,2AFC_task,59.944819473287225,
stimuli/rgb_scene000004_render000001.png,stimuli/rgb_scene000004_render000003.png,0,185,185,7,"[1, 0]",left,1,731,19,f,y,y,2019_Apr_30_1555,2AFC_task,59.944819473287225,
stimuli/rgb_scene000195_render000002.png,stimuli/rgb_scene000195_render000004.png,0,186,186,201,"[1, 0]",left,1,731,19,f,y,y,2019_Apr_30_1555,2AFC_task,59.944819473287225,
stimuli/rgb_scene000146_render000001.png,stimuli/rgb_scene000146_render000003.png,0,187,187,175,"[1, 0]",left,1,731,19,f,y,y,2019_Apr_30_1555,2AFC_task,59.944819473287225,
stimuli/rgb_scene000004_render000000.png,stimuli/rgb_scene000004_render000001.png,0,188,188,0,"[0, 1]",right,1,731,19,f,y,y,2019_Apr_30_1555,2AFC_task,59.944819473287225,
stimuli/rgb_scene000005_render000003.png,stimuli/rgb_scene000005_render000005.png,0,189,189,37,"[0, 1]",left,0,731,19,f,y,y,2019_Apr_30_1555,2AFC_task,59.944819473287225,
stimuli/rgb_scene000102_render000002.png,stimuli/rgb_scene000102_render000005.png,0,190,190,139,"[1, 0]",left,1,731,19,f,y,y,2019_Apr_30_1555,2AFC_task,59.944819473287225,
stimuli/rgb_scene000004_render000000.png,stimuli/rgb_scene000004_render000003.png,0,191,191,2,"[0, 1]",right,1,731,19,f,y,y,2019_Apr_30_1555,2AFC_task,59.944819473287225,
stimuli/rgb_scene000012_render000001.png,stimuli/rgb_scene000012_render000005.png,0,192,192,51,"[1, 0]",left,1,731,19,f,y,y,2019_Apr_30_1555,2AFC_task,59.944819473287225,
stimuli/rgb_scene000113_render000002.png,stimuli/rgb_scene000113_render000006.png,0,193,193,161,"[1, 0]",left,1,731,19,f,y,y,2019_Apr_30_1555,2AFC_task,59.944819473287225,
stimuli/rgb_scene000095_render000002.png,stimuli/rgb_scene000095_render000006.png,0,194,194,98,"[1, 0]",left,1,731,19,f,y,y,2019_Apr_30_1555,2AFC_task,59.944819473287225,
stimuli/rgb_scene000113_render000002.png,stimuli/rgb_scene000113_render000005.png,0,195,195,160,"[0, 1]",right,1,731,19,f,y,y,2019_Apr_30_1555,2AFC_task,59.944819473287225,
stimuli/rgb_scene000090_render000001.png,stimuli/rgb_scene000090_render000006.png,0,196,196,73,"[0, 1]",right,1,731,19,f,y,y,2019_Apr_30_1555,2AFC_task,59.944819473287225,
stimuli/rgb_scene000102_render000000.png,stimuli/rgb_scene000102_render000002.png,0,197,197,127,"[1, 0]",left,1,731,19,f,y,y,2019_Apr_30_1555,2AFC_task,59.944819473287225,
stimuli/rgb_scene000113_render000001.png,stimuli/rgb_scene000113_render000002.png,0,198,198,153,"[0, 1]",right,1,731,19,f,y,y,2019_Apr_30_1555,2AFC_task,59.944819473287225,
stimuli/rgb_scene000012_render000002.png,stimuli/rgb_scene000012_render000003.png,0,199,199,53,"[0, 1]",right,1,731,19,f,y,y,2019_Apr_30_1555,2AFC_task,59.944819473287225,
stimuli/rgb_scene000090_render000002.png,stimuli/rgb_scene000090_render000006.png,0,200,200,77,"[0, 1]",left,0,731,19,f,y,y,2019_Apr_30_1555,2AFC_task,59.944819473287225,
stimuli/rgb_scene000090_render000000.png,stimuli/rgb_scene000090_render000005.png,0,201,201,67,"[0, 1]",right,1,731,19,f,y,y,2019_Apr_30_1555,2AFC_task,59.944819473287225,
stimuli/rgb_scene000113_render000004.png,stimuli/rgb_scene000113_render000006.png,0,202,202,166,"[1, 0]",left,1,731,19,f,y,y,2019_Apr_30_1555,2AFC_task,59.944819473287225,
stimuli/rgb_scene000090_render000002.png,stimuli/rgb_scene000090_render000003.png,0,203,203,74,"[0, 1]",right,1,731,19,f,y,y,2019_Apr_30_1555,2AFC_task,59.944819473287225,
stimuli/rgb_scene000004_render000002.png,stimuli/rgb_scene000004_render000006.png,0,204,204,14,"[0, 1]",right,1,731,19,f,y,y,2019_Apr_30_1555,2AFC_task,59.944819473287225,
stimuli/rgb_scene000146_render000000.png,stimuli/rgb_scene000146_render000001.png,0,205,205,168,"[1, 0]",left,1,731,19,f,y,y,2019_Apr_30_1555,2AFC_task,59.944819473287225,
stimuli/rgb_scene000195_render000005.png,stimuli/rgb_scene000195_render000006.png,0,206,206,209,"[1, 0]",right,0,731,19,f,y,y,2019_Apr_30_1555,2AFC_task,59.944819473287225,
stimuli/rgb_scene000090_render000000.png,stimuli/rgb_scene000090_render000002.png,0,207,207,64,"[0, 1]",left,0,731,19,f,y,y,2019_Apr_30_1555,2AFC_task,59.944819473287225,
stimuli/rgb_scene000102_render000002.png,stimuli/rgb_scene000102_render000006.png,0,208,208,140,"[0, 1]",right,1,731,19,f,y,y,2019_Apr_30_1555,2AFC_task,59.944819473287225,
stimuli/rgb_scene000113_render000000.png,stimuli/rgb_scene000113_render000005.png,0,209,209,151,"[1, 0]",left,1,731,19,f,y,y,2019_Apr_30_1555,2AFC_task,59.944819473287225,
stimuli/rgb_scene000090_render000002.png,stimuli/rgb_scene000090_render000004.png,1,0,210,75,"[0, 1]",left,0,731,19,f,y,y,2019_Apr_30_1555,2AFC_task,59.944819473287225,
stimuli/rgb_scene000012_render000005.png,stimuli/rgb_scene000012_render000006.png,1,1,211,62,"[1, 0]",right,0,731,19,f,y,y,2019_Apr_30_1555,2AFC_task,59.944819473287225,
stimuli/rgb_scene000195_render000003.png,stimuli/rgb_scene000195_render000005.png,1,2,212,205,"[1, 0]",right,0,731,19,f,y,y,2019_Apr_30_1555,2AFC_task,59.944819473287225,
stimuli/rgb_scene000102_render000001.png,stimuli/rgb_scene000102_render000004.png,1,3,213,134,"[0, 1]",right,1,731,19,f,y,y,2019_Apr_30_1555,2AFC_task,59.944819473287225,
stimuli/rgb_scene000096_render000000.png,stimuli/rgb_scene000096_render000001.png,1,4,214,105,"[0, 1]",right,1,731,19,f,y,y,2019_Apr_30_1555,2AFC_task,59.944819473287225,
stimuli/rgb_scene000113_render000000.png,stimuli/rgb_scene000113_render000002.png,1,5,215,148,"[0, 1]",right,1,731,19,f,y,y,2019_Apr_30_1555,2AFC_task,59.944819473287225,
stimuli/rgb_scene000012_render000001.png,stimuli/rgb_scene000012_render000004.png,1,6,216,50,"[0, 1]",right,1,731,19,f,y,y,2019_Apr_30_1555,2AFC_task,59.944819473287225,
stimuli/rgb_scene000096_render000001.png,stimuli/rgb_scene000096_render000005.png,1,7,217,114,"[1, 0]",left,1,731,19,f,y,y,2019_Apr_30_1555,2AFC_task,59.944819473287225,
stimuli/rgb_scene000090_render000002.png,stimuli/rgb_scene000090_render000005.png,1,8,218,76,"[0, 1]",right,1,731,19,f,y,y,2019_Apr_30_1555,2AFC_task,59.944819473287225,
stimuli/rgb_scene000096_render000004.png,stimuli/rgb_scene000096_render000006.png,1,9,219,124,"[0, 1]",right,1,731,19,f,y,y,2019_Apr_30_1555,2AFC_task,59.944819473287225,
stimuli/rgb_scene000012_render000001.png,stimuli/rgb_scene000012_render000006.png,1,10,220,52,"[1, 0]",left,1,731,19,f,y,y,2019_Apr_30_1555,2AFC_task,59.944819473287225,
stimuli/rgb_scene000146_render000005.png,stimuli/rgb_scene000146_render000006.png,1,11,221,188,"[1, 0]",left,1,731,19,f,y,y,2019_Apr_30_1555,2AFC_task,59.944819473287225,
stimuli/rgb_scene000012_render000000.png,stimuli/rgb_scene000012_render000005.png,1,12,222,46,"[0, 1]",right,1,731,19,f,y,y,2019_Apr_30_1555,2AFC_task,59.944819473287225,
stimuli/rgb_scene000195_render000000.png,stimuli/rgb_scene000195_render000003.png,1,13,223,191,"[1, 0]",left,1,731,19,f,y,y,2019_Apr_30_1555,2AFC_task,59.944819473287225,
stimuli/rgb_scene000005_render000003.png,stimuli/rgb_scene000005_render000005.png,1,14,224,37,"[0, 1]",left,0,731,19,f,y,y,2019_Apr_30_1555,2AFC_task,59.944819473287225,
stimuli/rgb_scene000113_render000001.png,stimuli/rgb_scene000113_render000002.png,1,15,225,153,"[1, 0]",left,1,731,19,f,y,y,2019_Apr_30_1555,2AFC_task,59.944819473287225,
stimuli/rgb_scene000005_render000002.png,stimuli/rgb_scene000005_render000004.png,1,16,226,33,"[0, 1]",left,0,731,19,f,y,y,2019_Apr_30_1555,2AFC_task,59.944819473287225,
stimuli/rgb_scene000090_render000001.png,stimuli/rgb_scene000090_render000003.png,1,17,227,70,"[0, 1]",left,0,731,19,f,y,y,2019_Apr_30_1555,2AFC_task,59.944819473287225,
stimuli/rgb_scene000195_render000002.png,stimuli/rgb_scene000195_render000003.png,1,18,228,200,"[0, 1]",left,0,731,19,f,y,y,2019_Apr_30_1555,2AFC_task,59.944819473287225,
stimuli/rgb_scene000005_render000003.png,stimuli/rgb_scene000005_render000004.png,1,19,229,36,"[1, 0]",left,1,731,19,f,y,y,2019_Apr_30_1555,2AFC_task,59.944819473287225,
stimuli/rgb_scene000096_render000000.png,stimuli/rgb_scene000096_render000003.png,1,20,230,107,"[0, 1]",right,1,731,19,f,y,y,2019_Apr_30_1555,2AFC_task,59.944819473287225,
stimuli/rgb_scene000195_render000001.png,stimuli/rgb_scene000195_render000005.png,1,21,231,198,"[1, 0]",left,1,731,19,f,y,y,2019_Apr_30_1555,2AFC_task,59.944819473287225,
stimuli/rgb_scene000096_render000003.png,stimuli/rgb_scene000096_render000006.png,1,22,232,122,"[1, 0]",left,1,731,19,f,y,y,2019_Apr_30_1555,2AFC_task,59.944819473287225,
stimuli/rgb_scene000113_render000002.png,stimuli/rgb_scene000113_render000005.png,1,23,233,160,"[0, 1]",right,1,731,19,f,y,y,2019_Apr_30_1555,2AFC_task,59.944819473287225,
stimuli/rgb_scene000012_render000001.png,stimuli/rgb_scene000012_render000005.png,1,24,234,51,"[1, 0]",left,1,731,19,f,y,y,2019_Apr_30_1555,2AFC_task,59.944819473287225,
stimuli/rgb_scene000146_render000002.png,stimuli/rgb_scene000146_render000005.png,1,25,235,181,"[1, 0]",left,1,731,19,f,y,y,2019_Apr_30_1555,2AFC_task,59.944819473287225,
stimuli/rgb_scene000113_render000003.png,stimuli/rgb_scene000113_render000006.png,1,26,236,164,"[1, 0]",left,1,731,19,f,y,y,2019_Apr_30_1555,2AFC_task,59.944819473287225,
stimuli/rgb_scene000004_render000003.png,stimuli/rgb_scene000004_render000005.png,1,27,237,16,"[0, 1]",right,1,731,19,f,y,y,2019_Apr_30_1555,2AFC_task,59.944819473287225,
stimuli/rgb_scene000004_render000001.png,stimuli/rgb_scene000004_render000006.png,1,28,238,10,"[0, 1]",right,1,731,19,f,y,y,2019_Apr_30_1555,2AFC_task,59.944819473287225,
stimuli/rgb_scene000102_render000002.png,stimuli/rgb_scene000102_render000006.png,1,29,239,140,"[1, 0]",left,1,731,19,f,y,y,2019_Apr_30_1555,2AFC_task,59.944819473287225,
stimuli/rgb_scene000096_render000000.png,stimuli/rgb_scene000096_render000006.png,1,30,240,110,"[1, 0]",left,1,731,19,f,y,y,2019_Apr_30_1555,2AFC_task,59.944819473287225,
stimuli/rgb_scene000012_render000004.png,stimuli/rgb_scene000012_render000005.png,1,31,241,60,"[0, 1]",right,1,731,19,f,y,y,2019_Apr_30_1555,2AFC_task,59.944819473287225,
stimuli/rgb_scene000096_render000001.png,stimuli/rgb_scene000096_render000006.png,1,32,242,115,"[0, 1]",right,1,731,19,f,y,y,2019_Apr_30_1555,2AFC_task,59.944819473287225,
stimuli/rgb_scene000012_render000000.png,stimuli/rgb_scene000012_render000003.png,1,33,243,44,"[1, 0]",left,1,731,19,f,y,y,2019_Apr_30_1555,2AFC_task,59.944819473287225,
stimuli/rgb_scene000090_render000000.png,stimuli/rgb_scene000090_render000006.png,1,34,244,68,"[1, 0]",left,1,731,19,f,y,y,2019_Apr_30_1555,2AFC_task,59.944819473287225,
stimuli/rgb_scene000095_render000002.png,stimuli/rgb_scene000095_render000005.png,1,35,245,97,"[1, 0]",left,1,731,19,f,y,y,2019_Apr_30_1555,2AFC_task,59.944819473287225,
stimuli/rgb_scene000095_render000003.png,stimuli/rgb_scene000095_render000006.png,1,36,246,101,"[0, 1]",right,1,731,19,f,y,y,2019_Apr_30_1555,2AFC_task,59.944819473287225,
stimuli/rgb_scene000146_render000002.png,stimuli/rgb_scene000146_render000003.png,1,37,247,179,"[1, 0]",left,1,731,19,f,y,y,2019_Apr_30_1555,2AFC_task,59.944819473287225,
stimuli/rgb_scene000012_render000004.png,stimuli/rgb_scene000012_render000006.png,1,38,248,61,"[0, 1]",right,1,731,19,f,y,y,2019_Apr_30_1555,2AFC_task,59.944819473287225,
stimuli/rgb_scene000113_render000003.png,stimuli/rgb_scene000113_render000005.png,1,39,249,163,"[0, 1]",right,1,731,19,f,y,y,2019_Apr_30_1555,2AFC_task,59.944819473287225,
stimuli/rgb_scene000102_render000000.png,stimuli/rgb_scene000102_render000004.png,1,40,250,129,"[0, 1]",right,1,731,19,f,y,y,2019_Apr_30_1555,2AFC_task,59.944819473287225,
stimuli/rgb_scene000113_render000000.png,stimuli/rgb_scene000113_render000003.png,1,41,251,149,"[0, 1]",right,1,731,19,f,y,y,2019_Apr_30_1555,2AFC_task,59.944819473287225,
stimuli/rgb_scene000195_render000000.png,stimuli/rgb_scene000195_render000006.png,1,42,252,194,"[0, 1]",right,1,731,19,f,y,y,2019_Apr_30_1555,2AFC_task,59.944819473287225,
stimuli/rgb_scene000095_render000001.png,stimuli/rgb_scene000095_render000003.png,1,43,253,91,"[1, 0]",left,1,731,19,f,y,y,2019_Apr_30_1555,2AFC_task,59.944819473287225,
stimuli/rgb_scene000090_render000000.png,stimuli/rgb_scene000090_render000001.png,1,44,254,63,"[0, 1]",right,1,731,19,f,y,y,2019_Apr_30_1555,2AFC_task,59.944819473287225,
stimuli/rgb_scene000195_render000003.png,stimuli/rgb_scene000195_render000006.png,1,45,255,206,"[1, 0]",right,0,731,19,f,y,y,2019_Apr_30_1555,2AFC_task,59.944819473287225,
stimuli/rgb_scene000113_render000004.png,stimuli/rgb_scene000113_render000006.png,1,46,256,166,"[1, 0]",left,1,731,19,f,y,y,2019_Apr_30_1555,2AFC_task,59.944819473287225,
stimuli/rgb_scene000096_render000000.png,stimuli/rgb_scene000096_render000002.png,1,47,257,106,"[1, 0]",left,1,731,19,f,y,y,2019_Apr_30_1555,2AFC_task,59.944819473287225,
stimuli/rgb_scene000096_render000004.png,stimuli/rgb_scene000096_render000005.png,1,48,258,123,"[1, 0]",left,1,731,19,f,y,y,2019_Apr_30_1555,2AFC_task,59.944819473287225,
stimuli/rgb_scene000102_render000001.png,stimuli/rgb_scene000102_render000002.png,1,49,259,132,"[0, 1]",right,1,731,19,f,y,y,2019_Apr_30_1555,2AFC_task,59.944819473287225,
stimuli/rgb_scene000113_render000001.png,stimuli/rgb_scene000113_render000006.png,1,50,260,157,"[0, 1]",right,1,731,19,f,y,y,2019_Apr_30_1555,2AFC_task,59.944819473287225,
stimuli/rgb_scene000095_render000000.png,stimuli/rgb_scene000095_render000004.png,1,51,261,87,"[1, 0]",left,1,731,19,f,y,y,2019_Apr_30_1555,2AFC_task,59.944819473287225,
stimuli/rgb_scene000096_render000000.png,stimuli/rgb_scene000096_render000004.png,1,52,262,108,"[1, 0]",left,1,731,19,f,y,y,2019_Apr_30_1555,2AFC_task,59.944819473287225,
stimuli/rgb_scene000102_render000001.png,stimuli/rgb_scene000102_render000003.png,1,53,263,133,"[1, 0]",left,1,731,19,f,y,y,2019_Apr_30_1555,2AFC_task,59.944819473287225,
stimuli/rgb_scene000004_render000001.png,stimuli/rgb_scene000004_render000005.png,1,54,264,9,"[0, 1]",right,1,731,19,f,y,y,2019_Apr_30_1555,2AFC_task,59.944819473287225,
stimuli/rgb_scene000195_render000004.png,stimuli/rgb_scene000195_render000006.png,1,55,265,208,"[1, 0]",right,0,731,19,f,y,y,2019_Apr_30_1555,2AFC_task,59.944819473287225,
stimuli/rgb_scene000113_render000001.png,stimuli/rgb_scene000113_render000005.png,1,56,266,156,"[0, 1]",right,1,731,19,f,y,y,2019_Apr_30_1555,2AFC_task,59.944819473287225,
stimuli/rgb_scene000012_render000000.png,stimuli/rgb_scene000012_render000002.png,1,57,267,43,"[0, 1]",right,1,731,19,f,y,y,2019_Apr_30_1555,2AFC_task,59.944819473287225,
stimuli/rgb_scene000005_render000001.png,stimuli/rgb_scene000005_render000005.png,1,58,268,30,"[1, 0]",right,0,731,19,f,y,y,2019_Apr_30_1555,2AFC_task,59.944819473287225,
stimuli/rgb_scene000004_render000000.png,stimuli/rgb_scene000004_render000004.png,1,59,269,3,"[0, 1]",right,1,731,19,f,y,y,2019_Apr_30_1555,2AFC_task,59.944819473287225,
stimuli/rgb_scene000102_render000000.png,stimuli/rgb_scene000102_render000003.png,1,60,270,128,"[0, 1]",right,1,731,19,f,y,y,2019_Apr_30_1555,2AFC_task,59.944819473287225,
stimuli/rgb_scene000090_render000004.png,stimuli/rgb_scene000090_render000006.png,1,61,271,82,"[0, 1]",left,0,731,19,f,y,y,2019_Apr_30_1555,2AFC_task,59.944819473287225,
stimuli/rgb_scene000004_render000001.png,stimuli/rgb_scene000004_render000003.png,1,62,272,7,"[0, 1]",right,1,731,19,f,y,y,2019_Apr_30_1555,2AFC_task,59.944819473287225,
stimuli/rgb_scene000004_render000001.png,stimuli/rgb_scene000004_render000002.png,1,63,273,6,"[1, 0]",left,1,731,19,f,y,y,2019_Apr_30_1555,2AFC_task,59.944819473287225,
stimuli/rgb_scene000095_render000000.png,stimuli/rgb_scene000095_render000002.png,1,64,274,85,"[1, 0]",left,1,731,19,f,y,y,2019_Apr_30_1555,2AFC_task,59.944819473287225,
stimuli/rgb_scene000005_render000001.png,stimuli/rgb_scene000005_render000003.png,1,65,275,28,"[0, 1]",left,0,731,19,f,y,y,2019_Apr_30_1555,2AFC_task,59.944819473287225,
stimuli/rgb_scene000195_render000005.png,stimuli/rgb_scene000195_render000006.png,1,66,276,209,"[0, 1]",right,1,731,19,f,y,y,2019_Apr_30_1555,2AFC_task,59.944819473287225,
stimuli/rgb_scene000095_render000000.png,stimuli/rgb_scene000095_render000006.png,1,67,277,89,"[0, 1]",right,1,731,19,f,y,y,2019_Apr_30_1555,2AFC_task,59.944819473287225,
stimuli/rgb_scene000004_render000000.png,stimuli/rgb_scene000004_render000005.png,1,68,278,4,"[0, 1]",right,1,731,19,f,y,y,2019_Apr_30_1555,2AFC_task,59.944819473287225,
stimuli/rgb_scene000095_render000004.png,stimuli/rgb_scene000095_render000006.png,1,69,279,103,"[0, 1]",right,1,731,19,f,y,y,2019_Apr_30_1555,2AFC_task,59.944819473287225,
stimuli/rgb_scene000090_render000000.png,stimuli/rgb_scene000090_render000005.png,1,70,280,67,"[0, 1]",left,0,731,19,f,y,y,2019_Apr_30_1555,2AFC_task,59.944819473287225,
stimuli/rgb_scene000090_render000003.png,stimuli/rgb_scene000090_render000006.png,1,71,281,80,"[1, 0]",right,0,731,19,f,y,y,2019_Apr_30_1555,2AFC_task,59.944819473287225,
stimuli/rgb_scene000012_render000000.png,stimuli/rgb_scene000012_render000006.png,1,72,282,47,"[0, 1]",right,1,731,19,f,y,y,2019_Apr_30_1555,2AFC_task,59.944819473287225,
stimuli/rgb_scene000012_render000000.png,stimuli/rgb_scene000012_render000004.png,1,73,283,45,"[0, 1]",right,1,731,19,f,y,y,2019_Apr_30_1555,2AFC_task,59.944819473287225,
stimuli/rgb_scene000096_render000001.png,stimuli/rgb_scene000096_render000003.png,1,74,284,112,"[0, 1]",right,1,731,19,f,y,y,2019_Apr_30_1555,2AFC_task,59.944819473287225,
stimuli/rgb_scene000146_render000001.png,stimuli/rgb_scene000146_render000003.png,1,75,285,175,"[1, 0]",left,1,731,19,f,y,y,2019_Apr_30_1555,2AFC_task,59.944819473287225,
stimuli/rgb_scene000004_render000003.png,stimuli/rgb_scene000004_render000006.png,1,76,286,17,"[1, 0]",left,1,731,19,f,y,y,2019_Apr_30_1555,2AFC_task,59.944819473287225,
stimuli/rgb_scene000195_render000000.png,stimuli/rgb_scene000195_render000004.png,1,77,287,192,"[0, 1]",right,1,731,19,f,y,y,2019_Apr_30_1555,2AFC_task,59.944819473287225,
stimuli/rgb_scene000090_render000001.png,stimuli/rgb_scene000090_render000002.png,1,78,288,69,"[1, 0]",left,1,731,19,f,y,y,2019_Apr_30_1555,2AFC_task,59.944819473287225,
stimuli/rgb_scene000096_render000002.png,stimuli/rgb_scene000096_render000005.png,1,79,289,118,"[1, 0]",left,1,731,19,f,y,y,2019_Apr_30_1555,2AFC_task,59.944819473287225,
stimuli/rgb_scene000146_render000004.png,stimuli/rgb_scene000146_render000005.png,1,80,290,186,"[0, 1]",right,1,731,19,f,y,y,2019_Apr_30_1555,2AFC_task,59.944819473287225,
stimuli/rgb_scene000095_render000000.png,stimuli/rgb_scene000095_render000001.png,1,81,291,84,"[1, 0]",left,1,731,19,f,y,y,2019_Apr_30_1555,2AFC_task,59.944819473287225,
stimuli/rgb_scene000102_render000003.png,stimuli/rgb_scene000102_render000004.png,1,82,292,141,"[0, 1]",right,1,731,19,f,y,y,2019_Apr_30_1555,2AFC_task,59.944819473287225,
stimuli/rgb_scene000005_render000005.png,stimuli/rgb_scene000005_render000006.png,1,83,293,41,"[0, 1]",left,0,731,19,f,y,y,2019_Apr_30_1555,2AFC_task,59.944819473287225,
stimuli/rgb_scene000012_render000002.png,stimuli/rgb_scene000012_render000003.png,1,84,294,53,"[0, 1]",right,1,731,19,f,y,y,2019_Apr_30_1555,2AFC_task,59.944819473287225,
stimuli/rgb_scene000146_render000001.png,stimuli/rgb_scene000146_render000006.png,1,85,295,178,"[1, 0]",left,1,731,19,f,y,y,2019_Apr_30_1555,2AFC_task,59.944819473287225,
stimuli/rgb_scene000113_render000002.png,stimuli/rgb_scene000113_render000006.png,1,86,296,161,"[0, 1]",right,1,731,19,f,y,y,2019_Apr_30_1555,2AFC_task,59.944819473287225,
stimuli/rgb_scene000005_render000001.png,stimuli/rgb_scene000005_render000004.png,1,87,297,29,"[0, 1]",left,0,731,19,f,y,y,2019_Apr_30_1555,2AFC_task,59.944819473287225,
stimuli/rgb_scene000004_render000002.png,stimuli/rgb_scene000004_render000004.png,1,88,298,12,"[0, 1]",right,1,731,19,f,y,y,2019_Apr_30_1555,2AFC_task,59.944819473287225,
stimuli/rgb_scene000195_render000000.png,stimuli/rgb_scene000195_render000005.png,1,89,299,193,"[1, 0]",left,1,731,19,f,y,y,2019_Apr_30_1555,2AFC_task,59.944819473287225,
stimuli/rgb_scene000096_render000001.png,stimuli/rgb_scene000096_render000002.png,1,90,300,111,"[0, 1]",right,1,731,19,f,y,y,2019_Apr_30_1555,2AFC_task,59.944819473287225,
stimuli/rgb_scene000146_render000001.png,stimuli/rgb_scene000146_render000002.png,1,91,301,174,"[0, 1]",right,1,731,19,f,y,y,2019_Apr_30_1555,2AFC_task,59.944819473287225,
stimuli/rgb_scene000095_render000001.png,stimuli/rgb_scene000095_render000006.png,1,92,302,94,"[0, 1]",right,1,731,19,f,y,y,2019_Apr_30_1555,2AFC_task,59.944819473287225,
stimuli/rgb_scene000095_render000000.png,stimuli/rgb_scene000095_render000003.png,1,93,303,86,"[0, 1]",right,1,731,19,f,y,y,2019_Apr_30_1555,2AFC_task,59.944819473287225,
stimuli/rgb_scene000102_render000004.png,stimuli/rgb_scene000102_render000005.png,1,94,304,144,"[0, 1]",right,1,731,19,f,y,y,2019_Apr_30_1555,2AFC_task,59.944819473287225,
stimuli/rgb_scene000146_render000000.png,stimuli/rgb_scene000146_render000005.png,1,95,305,172,"[0, 1]",right,1,731,19,f,y,y,2019_Apr_30_1555,2AFC_task,59.944819473287225,
stimuli/rgb_scene000102_render000004.png,stimuli/rgb_scene000102_render000006.png,1,96,306,145,"[0, 1]",right,1,731,19,f,y,y,2019_Apr_30_1555,2AFC_task,59.944819473287225,
stimuli/rgb_scene000146_render000003.png,stimuli/rgb_scene000146_render000005.png,1,97,307,184,"[1, 0]",left,1,731,19,f,y,y,2019_Apr_30_1555,2AFC_task,59.944819473287225,
stimuli/rgb_scene000004_render000004.png,stimuli/rgb_scene000004_render000006.png,1,98,308,19,"[0, 1]",right,1,731,19,f,y,y,2019_Apr_30_1555,2AFC_task,59.944819473287225,
stimuli/rgb_scene000195_render000000.png,stimuli/rgb_scene000195_render000002.png,1,99,309,190,"[0, 1]",right,1,731,19,f,y,y,2019_Apr_30_1555,2AFC_task,59.944819473287225,
stimuli/rgb_scene000195_render000002.png,stimuli/rgb_scene000195_render000005.png,1,100,310,202,"[0, 1]",right,1,731,19,f,y,y,2019_Apr_30_1555,2AFC_task,59.944819473287225,
stimuli/rgb_scene000004_render000000.png,stimuli/rgb_scene000004_render000003.png,1,101,311,2,"[0, 1]",right,1,731,19,f,y,y,2019_Apr_30_1555,2AFC_task,59.944819473287225,
stimuli/rgb_scene000090_render000005.png,stimuli/rgb_scene000090_render000006.png,1,102,312,83,"[0, 1]",left,0,731,19,f,y,y,2019_Apr_30_1555,2AFC_task,59.944819473287225,
stimuli/rgb_scene000005_render000002.png,stimuli/rgb_scene000005_render000006.png,1,103,313,35,"[1, 0]",right,0,731,19,f,y,y,2019_Apr_30_1555,2AFC_task,59.944819473287225,
stimuli/rgb_scene000195_render000001.png,stimuli/rgb_scene000195_render000003.png,1,104,314,196,"[0, 1]",right,1,731,19,f,y,y,2019_Apr_30_1555,2AFC_task,59.944819473287225,
stimuli/rgb_scene000004_render000000.png,stimuli/rgb_scene000004_render000002.png,1,105,315,1,"[0, 1]",right,1,731,19,f,y,y,2019_Apr_30_1555,2AFC_task,59.944819473287225,
stimuli/rgb_scene000004_render000002.png,stimuli/rgb_scene000004_render000003.png,1,106,316,11,"[1, 0]",left,1,731,19,f,y,y,2019_Apr_30_1555,2AFC_task,59.944819473287225,
stimuli/rgb_scene000146_render000003.png,stimuli/rgb_scene000146_render000004.png,1,107,317,183,"[1, 0]",left,1,731,19,f,y,y,2019_Apr_30_1555,2AFC_task,59.944819473287225,
stimuli/rgb_scene000012_render000001.png,stimuli/rgb_scene000012_render000003.png,1,108,318,49,"[0, 1]",right,1,731,19,f,y,y,2019_Apr_30_1555,2AFC_task,59.944819473287225,
stimuli/rgb_scene000102_render000002.png,stimuli/rgb_scene000102_render000003.png,1,109,319,137,"[0, 1]",right,1,731,19,f,y,y,2019_Apr_30_1555,2AFC_task,59.944819473287225,
stimuli/rgb_scene000096_render000001.png,stimuli/rgb_scene000096_render000004.png,1,110,320,113,"[1, 0]",left,1,731,19,f,y,y,2019_Apr_30_1555,2AFC_task,59.944819473287225,
stimuli/rgb_scene000102_render000000.png,stimuli/rgb_scene000102_render000005.png,1,111,321,130,"[1, 0]",left,1,731,19,f,y,y,2019_Apr_30_1555,2AFC_task,59.944819473287225,
stimuli/rgb_scene000004_render000004.png,stimuli/rgb_scene000004_render000005.png,1,112,322,18,"[0, 1]",right,1,731,19,f,y,y,2019_Apr_30_1555,2AFC_task,59.944819473287225,
stimuli/rgb_scene000095_render000005.png,stimuli/rgb_scene000095_render000006.png,1,113,323,104,"[0, 1]",right,1,731,19,f,y,y,2019_Apr_30_1555,2AFC_task,59.944819473287225,
stimuli/rgb_scene000005_render000000.png,stimuli/rgb_scene000005_render000004.png,1,114,324,24,"[1, 0]",left,1,731,19,f,y,y,2019_Apr_30_1555,2AFC_task,59.944819473287225,
stimuli/rgb_scene000004_render000002.png,stimuli/rgb_scene000004_render000006.png,1,115,325,14,"[1, 0]",left,1,731,19,f,y,y,2019_Apr_30_1555,2AFC_task,59.944819473287225,
stimuli/rgb_scene000102_render000001.png,stimuli/rgb_scene000102_render000006.png,1,116,326,136,"[0, 1]",right,1,731,19,f,y,y,2019_Apr_30_1555,2AFC_task,59.944819473287225,
stimuli/rgb_scene000004_render000001.png,stimuli/rgb_scene000004_render000004.png,1,117,327,8,"[1, 0]",left,1,731,19,f,y,y,2019_Apr_30_1555,2AFC_task,59.944819473287225,
stimuli/rgb_scene000090_render000003.png,stimuli/rgb_scene000090_render000005.png,1,118,328,79,"[0, 1]",right,1,731,19,f,y,y,2019_Apr_30_1555,2AFC_task,59.944819473287225,
stimuli/rgb_scene000096_render000003.png,stimuli/rgb_scene000096_render000004.png,1,119,329,120,"[1, 0]",left,1,731,19,f,y,y,2019_Apr_30_1555,2AFC_task,59.944819473287225,
stimuli/rgb_scene000090_render000001.png,stimuli/rgb_scene000090_render000005.png,1,120,330,72,"[1, 0]",right,0,731,19,f,y,y,2019_Apr_30_1555,2AFC_task,59.944819473287225,
stimuli/rgb_scene000102_render000002.png,stimuli/rgb_scene000102_render000005.png,1,121,331,139,"[0, 1]",right,1,731,19,f,y,y,2019_Apr_30_1555,2AFC_task,59.944819473287225,
stimuli/rgb_scene000005_render000001.png,stimuli/rgb_scene000005_render000006.png,1,122,332,31,"[0, 1]",right,1,731,19,f,y,y,2019_Apr_30_1555,2AFC_task,59.944819473287225,
stimuli/rgb_scene000113_render000005.png,stimuli/rgb_scene000113_render000006.png,1,123,333,167,"[0, 1]",right,1,731,19,f,y,y,2019_Apr_30_1555,2AFC_task,59.944819473287225,
stimuli/rgb_scene000102_render000005.png,stimuli/rgb_scene000102_render000006.png,1,124,334,146,"[0, 1]",right,1,731,19,f,y,y,2019_Apr_30_1555,2AFC_task,59.944819473287225,
stimuli/rgb_scene000146_render000000.png,stimuli/rgb_scene000146_render000004.png,1,125,335,171,"[1, 0]",left,1,731,19,f,y,y,2019_Apr_30_1555,2AFC_task,59.944819473287225,
stimuli/rgb_scene000146_render000002.png,stimuli/rgb_scene000146_render000004.png,1,126,336,180,"[1, 0]",left,1,731,19,f,y,y,2019_Apr_30_1555,2AFC_task,59.944819473287225,
stimuli/rgb_scene000095_render000003.png,stimuli/rgb_scene000095_render000004.png,1,127,337,99,"[0, 1]",right,1,731,19,f,y,y,2019_Apr_30_1555,2AFC_task,59.944819473287225,
stimuli/rgb_scene000095_render000002.png,stimuli/rgb_scene000095_render000006.png,1,128,338,98,"[0, 1]",right,1,731,19,f,y,y,2019_Apr_30_1555,2AFC_task,59.944819473287225,
stimuli/rgb_scene000096_render000002.png,stimuli/rgb_scene000096_render000003.png,1,129,339,116,"[0, 1]",right,1,731,19,f,y,y,2019_Apr_30_1555,2AFC_task,59.944819473287225,
stimuli/rgb_scene000004_render000003.png,stimuli/rgb_scene000004_render000004.png,1,130,340,15,"[0, 1]",right,1,731,19,f,y,y,2019_Apr_30_1555,2AFC_task,59.944819473287225,
stimuli/rgb_scene000195_render000002.png,stimuli/rgb_scene000195_render000006.png,1,131,341,203,"[0, 1]",right,1,731,19,f,y,y,2019_Apr_30_1555,2AFC_task,59.944819473287225,
stimuli/rgb_scene000004_render000005.png,stimuli/rgb_scene000004_render000006.png,1,132,342,20,"[1, 0]",left,1,731,19,f,y,y,2019_Apr_30_1555,2AFC_task,59.944819473287225,
stimuli/rgb_scene000090_render000002.png,stimuli/rgb_scene000090_render000006.png,1,133,343,77,"[1, 0]",left,1,731,19,f,y,y,2019_Apr_30_1555,2AFC_task,59.944819473287225,
stimuli/rgb_scene000102_render000000.png,stimuli/rgb_scene000102_render000006.png,1,134,344,131,"[0, 1]",right,1,731,19,f,y,y,2019_Apr_30_1555,2AFC_task,59.944819473287225,
stimuli/rgb_scene000005_render000000.png,stimuli/rgb_scene000005_render000001.png,1,135,345,21,"[0, 1]",right,1,731,19,f,y,y,2019_Apr_30_1555,2AFC_task,59.944819473287225,
stimuli/rgb_scene000146_render000002.png,stimuli/rgb_scene000146_render000006.png,1,136,346,182,"[1, 0]",left,1,731,19,f,y,y,2019_Apr_30_1555,2AFC_task,59.944819473287225,
stimuli/rgb_scene000004_render000000.png,stimuli/rgb_scene000004_render000006.png,1,137,347,5,"[0, 1]",right,1,731,19,f,y,y,2019_Apr_30_1555,2AFC_task,59.944819473287225,
stimuli/rgb_scene000005_render000002.png,stimuli/rgb_scene000005_render000003.png,1,138,348,32,"[1, 0]",left,1,731,19,f,y,y,2019_Apr_30_1555,2AFC_task,59.944819473287225,
stimuli/rgb_scene000146_render000000.png,stimuli/rgb_scene000146_render000001.png,1,139,349,168,"[0, 1]",right,1,731,19,f,y,y,2019_Apr_30_1555,2AFC_task,59.944819473287225,
stimuli/rgb_scene000005_render000004.png,stimuli/rgb_scene000005_render000005.png,1,140,350,39,"[1, 0]",right,0,731,19,f,y,y,2019_Apr_30_1555,2AFC_task,59.944819473287225,
stimuli/rgb_scene000090_render000004.png,stimuli/rgb_scene000090_render000005.png,1,141,351,81,"[1, 0]",right,0,731,19,f,y,y,2019_Apr_30_1555,2AFC_task,59.944819473287225,
stimuli/rgb_scene000090_render000000.png,stimuli/rgb_scene000090_render000003.png,1,142,352,65,"[1, 0]",right,0,731,19,f,y,y,2019_Apr_30_1555,2AFC_task,59.944819473287225,
stimuli/rgb_scene000090_render000000.png,stimuli/rgb_scene000090_render000004.png,1,143,353,66,"[1, 0]",right,0,731,19,f,y,y,2019_Apr_30_1555,2AFC_task,59.944819473287225,
stimuli/rgb_scene000195_render000003.png,stimuli/rgb_scene000195_render000004.png,1,144,354,204,"[0, 1]",left,0,731,19,f,y,y,2019_Apr_30_1555,2AFC_task,59.944819473287225,
stimuli/rgb_scene000005_render000002.png,stimuli/rgb_scene000005_render000005.png,1,145,355,34,"[1, 0]",right,0,731,19,f,y,y,2019_Apr_30_1555,2AFC_task,59.944819473287225,
stimuli/rgb_scene000090_render000001.png,stimuli/rgb_scene000090_render000004.png,1,146,356,71,"[1, 0]",left,1,731,19,f,y,y,2019_Apr_30_1555,2AFC_task,59.944819473287225,
stimuli/rgb_scene000146_render000000.png,stimuli/rgb_scene000146_render000006.png,1,147,357,173,"[1, 0]",left,1,731,19,f,y,y,2019_Apr_30_1555,2AFC_task,59.944819473287225,
stimuli/rgb_scene000096_render000005.png,stimuli/rgb_scene000096_render000006.png,1,148,358,125,"[1, 0]",left,1,731,19,f,y,y,2019_Apr_30_1555,2AFC_task,59.944819473287225,
stimuli/rgb_scene000095_render000002.png,stimuli/rgb_scene000095_render000004.png,1,149,359,96,"[1, 0]",left,1,731,19,f,y,y,2019_Apr_30_1555,2AFC_task,59.944819473287225,
stimuli/rgb_scene000102_render000003.png,stimuli/rgb_scene000102_render000006.png,1,150,360,143,"[0, 1]",right,1,731,19,f,y,y,2019_Apr_30_1555,2AFC_task,59.944819473287225,
stimuli/rgb_scene000005_render000000.png,stimuli/rgb_scene000005_render000006.png,1,151,361,26,"[1, 0]",left,1,731,19,f,y,y,2019_Apr_30_1555,2AFC_task,59.944819473287225,
stimuli/rgb_scene000102_render000002.png,stimuli/rgb_scene000102_render000004.png,1,152,362,138,"[1, 0]",left,1,731,19,f,y,y,2019_Apr_30_1555,2AFC_task,59.944819473287225,
stimuli/rgb_scene000012_render000001.png,stimuli/rgb_scene000012_render000002.png,1,153,363,48,"[0, 1]",right,1,731,19,f,y,y,2019_Apr_30_1555,2AFC_task,59.944819473287225,
stimuli/rgb_scene000146_render000004.png,stimuli/rgb_scene000146_render000006.png,1,154,364,187,"[1, 0]",left,1,731,19,f,y,y,2019_Apr_30_1555,2AFC_task,59.944819473287225,
stimuli/rgb_scene000005_render000000.png,stimuli/rgb_scene000005_render000003.png,1,155,365,23,"[0, 1]",right,1,731,19,f,y,y,2019_Apr_30_1555,2AFC_task,59.944819473287225,
stimuli/rgb_scene000095_render000001.png,stimuli/rgb_scene000095_render000002.png,1,156,366,90,"[0, 1]",right,1,731,19,f,y,y,2019_Apr_30_1555,2AFC_task,59.944819473287225,
stimuli/rgb_scene000113_render000001.png,stimuli/rgb_scene000113_render000004.png,1,157,367,155,"[0, 1]",right,1,731,19,f,y,y,2019_Apr_30_1555,2AFC_task,59.944819473287225,
stimuli/rgb_scene000146_render000001.png,stimuli/rgb_scene000146_render000005.png,1,158,368,177,"[1, 0]",left,1,731,19,f,y,y,2019_Apr_30_1555,2AFC_task,59.944819473287225,
stimuli/rgb_scene000090_render000002.png,stimuli/rgb_scene000090_render000003.png,1,159,369,74,"[1, 0]",right,0,731,19,f,y,y,2019_Apr_30_1555,2AFC_task,59.944819473287225,
stimuli/rgb_scene000113_render000000.png,stimuli/rgb_scene000113_render000001.png,1,160,370,147,"[0, 1]",right,1,731,19,f,y,y,2019_Apr_30_1555,2AFC_task,59.944819473287225,
stimuli/rgb_scene000113_render000004.png,stimuli/rgb_scene000113_render000005.png,1,161,371,165,"[0, 1]",right,1,731,19,f,y,y,2019_Apr_30_1555,2AFC_task,59.944819473287225,
stimuli/rgb_scene000005_render000000.png,stimuli/rgb_scene000005_render000002.png,1,162,372,22,"[0, 1]",right,1,731,19,f,y,y,2019_Apr_30_1555,2AFC_task,59.944819473287225,
stimuli/rgb_scene000102_render000000.png,stimuli/rgb_scene000102_render000002.png,1,163,373,127,"[1, 0]",left,1,731,19,f,y,y,2019_Apr_30_1555,2AFC_task,59.944819473287225,
stimuli/rgb_scene000012_render000002.png,stimuli/rgb_scene000012_render000005.png,1,164,374,55,"[1, 0]",left,1,731,19,f,y,y,2019_Apr_30_1555,2AFC_task,59.944819473287225,
stimuli/rgb_scene000005_render000003.png,stimuli/rgb_scene000005_render000006.png,1,165,375,38,"[1, 0]",right,0,731,19,f,y,y,2019_Apr_30_1555,2AFC_task,59.944819473287225,
stimuli/rgb_scene000095_render000001.png,stimuli/rgb_scene000095_render000004.png,1,166,376,92,"[0, 1]",right,1,731,19,f,y,y,2019_Apr_30_1555,2AFC_task,59.944819473287225,
stimuli/rgb_scene000095_render000001.png,stimuli/rgb_scene000095_render000005.png,1,167,377,93,"[1, 0]",left,1,731,19,f,y,y,2019_Apr_30_1555,2AFC_task,59.944819473287225,
stimuli/rgb_scene000012_render000000.png,stimuli/rgb_scene000012_render000001.png,1,168,378,42,"[0, 1]",right,1,731,19,f,y,y,2019_Apr_30_1555,2AFC_task,59.944819473287225,
stimuli/rgb_scene000113_render000000.png,stimuli/rgb_scene000113_render000005.png,1,169,379,151,"[1, 0]",left,1,731,19,f,y,y,2019_Apr_30_1555,2AFC_task,59.944819473287225,
stimuli/rgb_scene000113_render000003.png,stimuli/rgb_scene000113_render000004.png,1,170,380,162,"[0, 1]",right,1,731,19,f,y,y,2019_Apr_30_1555,2AFC_task,59.944819473287225,
stimuli/rgb_scene000102_render000000.png,stimuli/rgb_scene000102_render000001.png,1,171,381,126,"[0, 1]",right,1,731,19,f,y,y,2019_Apr_30_1555,2AFC_task,59.944819473287225,
stimuli/rgb_scene000096_render000003.png,stimuli/rgb_scene000096_render000005.png,1,172,382,121,"[1, 0]",left,1,731,19,f,y,y,2019_Apr_30_1555,2AFC_task,59.944819473287225,
stimuli/rgb_scene000113_render000000.png,stimuli/rgb_scene000113_render000004.png,1,173,383,150,"[0, 1]",right,1,731,19,f,y,y,2019_Apr_30_1555,2AFC_task,59.944819473287225,
stimuli/rgb_scene000113_render000000.png,stimuli/rgb_scene000113_render000006.png,1,174,384,152,"[0, 1]",right,1,731,19,f,y,y,2019_Apr_30_1555,2AFC_task,59.944819473287225,
stimuli/rgb_scene000146_render000000.png,stimuli/rgb_scene000146_render000002.png,1,175,385,169,"[1, 0]",left,1,731,19,f,y,y,2019_Apr_30_1555,2AFC_task,59.944819473287225,
stimuli/rgb_scene000005_render000004.png,stimuli/rgb_scene000005_render000006.png,1,176,386,40,"[0, 1]",left,0,731,19,f,y,y,2019_Apr_30_1555,2AFC_task,59.944819473287225,
stimuli/rgb_scene000195_render000004.png,stimuli/rgb_scene000195_render000005.png,1,177,387,207,"[0, 1]",left,0,731,19,f,y,y,2019_Apr_30_1555,2AFC_task,59.944819473287225,
stimuli/rgb_scene000146_render000003.png,stimuli/rgb_scene000146_render000006.png,1,178,388,185,"[1, 0]",left,1,731,19,f,y,y,2019_Apr_30_1555,2AFC_task,59.944819473287225,
stimuli/rgb_scene000102_render000001.png,stimuli/rgb_scene000102_render000005.png,1,179,389,135,"[1, 0]",left,1,731,19,f,y,y,2019_Apr_30_1555,2AFC_task,59.944819473287225,
stimuli/rgb_scene000012_render000003.png,stimuli/rgb_scene000012_render000006.png,1,180,390,59,"[0, 1]",right,1,731,19,f,y,y,2019_Apr_30_1555,2AFC_task,59.944819473287225,
stimuli/rgb_scene000095_render000004.png,stimuli/rgb_scene000095_render000005.png,1,181,391,102,"[0, 1]",right,1,731,19,f,y,y,2019_Apr_30_1555,2AFC_task,59.944819473287225,
stimuli/rgb_scene000012_render000002.png,stimuli/rgb_scene000012_render000006.png,1,182,392,56,"[0, 1]",right,1,731,19,f,y,y,2019_Apr_30_1555,2AFC_task,59.944819473287225,
stimuli/rgb_scene000095_render000003.png,stimuli/rgb_scene000095_render000005.png,1,183,393,100,"[1, 0]",left,1,731,19,f,y,y,2019_Apr_30_1555,2AFC_task,59.944819473287225,
stimuli/rgb_scene000113_render000002.png,stimuli/rgb_scene000113_render000003.png,1,184,394,158,"[0, 1]",right,1,731,19,f,y,y,2019_Apr_30_1555,2AFC_task,59.944819473287225,
stimuli/rgb_scene000113_render000002.png,stimuli/rgb_scene000113_render000004.png,1,185,395,159,"[1, 0]",left,1,731,19,f,y,y,2019_Apr_30_1555,2AFC_task,59.944819473287225,
stimuli/rgb_scene000090_render000000.png,stimuli/rgb_scene000090_render000002.png,1,186,396,64,"[1, 0]",right,0,731,19,f,y,y,2019_Apr_30_1555,2AFC_task,59.944819473287225,
stimuli/rgb_scene000102_render000003.png,stimuli/rgb_scene000102_render000005.png,1,187,397,142,"[0, 1]",right,1,731,19,f,y,y,2019_Apr_30_1555,2AFC_task,59.944819473287225,
stimuli/rgb_scene000146_render000000.png,stimuli/rgb_scene000146_render000003.png,1,188,398,170,"[0, 1]",right,1,731,19,f,y,y,2019_Apr_30_1555,2AFC_task,59.944819473287225,
stimuli/rgb_scene000090_render000003.png,stimuli/rgb_scene000090_render000004.png,1,189,399,78,"[0, 1]",right,1,731,19,f,y,y,2019_Apr_30_1555,2AFC_task,59.944819473287225,
stimuli/rgb_scene000096_render000002.png,stimuli/rgb_scene000096_render000004.png,1,190,400,117,"[1, 0]",left,1,731,19,f,y,y,2019_Apr_30_1555,2AFC_task,59.944819473287225,
stimuli/rgb_scene000195_render000001.png,stimuli/rgb_scene000195_render000006.png,1,191,401,199,"[1, 0]",left,1,731,19,f,y,y,2019_Apr_30_1555,2AFC_task,59.944819473287225,
stimuli/rgb_scene000012_render000003.png,stimuli/rgb_scene000012_render000005.png,1,192,402,58,"[1, 0]",left,1,731,19,f,y,y,2019_Apr_30_1555,2AFC_task,59.944819473287225,
stimuli/rgb_scene000195_render000001.png,stimuli/rgb_scene000195_render000004.png,1,193,403,197,"[0, 1]",right,1,731,19,f,y,y,2019_Apr_30_1555,2AFC_task,59.944819473287225,
stimuli/rgb_scene000195_render000001.png,stimuli/rgb_scene000195_render000002.png,1,194,404,195,"[0, 1]",right,1,731,19,f,y,y,2019_Apr_30_1555,2AFC_task,59.944819473287225,
stimuli/rgb_scene000012_render000002.png,stimuli/rgb_scene000012_render000004.png,1,195,405,54,"[0, 1]",right,1,731,19,f,y,y,2019_Apr_30_1555,2AFC_task,59.944819473287225,
stimuli/rgb_scene000096_render000000.png,stimuli/rgb_scene000096_render000005.png,1,196,406,109,"[1, 0]",left,1,731,19,f,y,y,2019_Apr_30_1555,2AFC_task,59.944819473287225,
stimuli/rgb_scene000005_render000001.png,stimuli/rgb_scene000005_render000002.png,1,197,407,27,"[0, 1]",right,1,731,19,f,y,y,2019_Apr_30_1555,2AFC_task,59.944819473287225,
stimuli/rgb_scene000090_render000001.png,stimuli/rgb_scene000090_render000006.png,1,198,408,73,"[0, 1]",right,1,731,19,f,y,y,2019_Apr_30_1555,2AFC_task,59.944819473287225,
stimuli/rgb_scene000195_render000002.png,stimuli/rgb_scene000195_render000004.png,1,199,409,201,"[0, 1]",right,1,731,19,f,y,y,2019_Apr_30_1555,2AFC_task,59.944819473287225,
stimuli/rgb_scene000146_render000001.png,stimuli/rgb_scene000146_render000004.png,1,200,410,176,"[0, 1]",right,1,731,19,f,y,y,2019_Apr_30_1555,2AFC_task,59.944819473287225,
stimuli/rgb_scene000113_render000001.png,stimuli/rgb_scene000113_render000003.png,1,201,411,154,"[0, 1]",right,1,731,19,f,y,y,2019_Apr_30_1555,2AFC_task,59.944819473287225,
stimuli/rgb_scene000005_render000000.png,stimuli/rgb_scene000005_render000005.png,1,202,412,25,"[0, 1]",right,1,731,19,f,y,y,2019_Apr_30_1555,2AFC_task,59.944819473287225,
stimuli/rgb_scene000004_render000000.png,stimuli/rgb_scene000004_render000001.png,1,203,413,0,"[1, 0]",left,1,731,19,f,y,y,2019_Apr_30_1555,2AFC_task,59.944819473287225,
stimuli/rgb_scene000195_render000000.png,stimuli/rgb_scene000195_render000001.png,1,204,414,189,"[1, 0]",left,1,731,19,f,y,y,2019_Apr_30_1555,2AFC_task,59.944819473287225,
stimuli/rgb_scene000012_render000003.png,stimuli/rgb_scene000012_render000004.png,1,205,415,57,"[1, 0]",left,1,731,19,f,y,y,2019_Apr_30_1555,2AFC_task,59.944819473287225,
stimuli/rgb_scene000004_render000002.png,stimuli/rgb_scene000004_render000005.png,1,206,416,13,"[1, 0]",left,1,731,19,f,y,y,2019_Apr_30_1555,2AFC_task,59.944819473287225,
stimuli/rgb_scene000095_render000000.png,stimuli/rgb_scene000095_render000005.png,1,207,417,88,"[0, 1]",right,1,731,19,f,y,y,2019_Apr_30_1555,2AFC_task,59.944819473287225,
stimuli/rgb_scene000095_render000002.png,stimuli/rgb_scene000095_render000003.png,1,208,418,95,"[0, 1]",right,1,731,19,f,y,y,2019_Apr_30_1555,2AFC_task,59.944819473287225,
stimuli/rgb_scene000096_render000002.png,stimuli/rgb_scene000096_render000006.png,1,209,419,119,"[1, 0]",left,1,731,19,f,y,y,2019_Apr_30_1555,2AFC_task,59.944819473287225,
