stimOne,stimTwo,trials_1.thisRepN,trials_1.thisTrialN,trials_1.thisN,trials_1.thisIndex,presentation_positions,resp_key,corresponding_image,participant ID (two digits, e.g. 01),age,gender (m/f/-),normal or corrected-to-normal vision (y/n),normal colour vision (y/n),date,expName,frameRate,
stimuli/rgb_scene000195_render000001.png,stimuli/rgb_scene000195_render000003.png,0,0,0,196,"[1, 0]",left,1,785,31,f,y,y,2019_Apr_29_1602,2AFC_task,59.933877469308115,
stimuli/rgb_scene000096_render000000.png,stimuli/rgb_scene000096_render000006.png,0,1,1,110,"[1, 0]",left,1,785,31,f,y,y,2019_Apr_29_1602,2AFC_task,59.933877469308115,
stimuli/rgb_scene000113_render000001.png,stimuli/rgb_scene000113_render000002.png,0,2,2,153,"[1, 0]",left,1,785,31,f,y,y,2019_Apr_29_1602,2AFC_task,59.933877469308115,
stimuli/rgb_scene000146_render000000.png,stimuli/rgb_scene000146_render000006.png,0,3,3,173,"[1, 0]",left,1,785,31,f,y,y,2019_Apr_29_1602,2AFC_task,59.933877469308115,
stimuli/rgb_scene000012_render000001.png,stimuli/rgb_scene000012_render000003.png,0,4,4,49,"[1, 0]",left,1,785,31,f,y,y,2019_Apr_29_1602,2AFC_task,59.933877469308115,
stimuli/rgb_scene000195_render000005.png,stimuli/rgb_scene000195_render000006.png,0,5,5,209,"[1, 0]",right,0,785,31,f,y,y,2019_Apr_29_1602,2AFC_task,59.933877469308115,
stimuli/rgb_scene000113_render000000.png,stimuli/rgb_scene000113_render000004.png,0,6,6,150,"[0, 1]",right,1,785,31,f,y,y,2019_Apr_29_1602,2AFC_task,59.933877469308115,
stimuli/rgb_scene000102_render000002.png,stimuli/rgb_scene000102_render000004.png,0,7,7,138,"[0, 1]",right,1,785,31,f,y,y,2019_Apr_29_1602,2AFC_task,59.933877469308115,
stimuli/rgb_scene000004_render000001.png,stimuli/rgb_scene000004_render000005.png,0,8,8,9,"[0, 1]",right,1,785,31,f,y,y,2019_Apr_29_1602,2AFC_task,59.933877469308115,
stimuli/rgb_scene000113_render000002.png,stimuli/rgb_scene000113_render000004.png,0,9,9,159,"[0, 1]",right,1,785,31,f,y,y,2019_Apr_29_1602,2AFC_task,59.933877469308115,
stimuli/rgb_scene000096_render000001.png,stimuli/rgb_scene000096_render000005.png,0,10,10,114,"[1, 0]",left,1,785,31,f,y,y,2019_Apr_29_1602,2AFC_task,59.933877469308115,
stimuli/rgb_scene000096_render000002.png,stimuli/rgb_scene000096_render000005.png,0,11,11,118,"[1, 0]",left,1,785,31,f,y,y,2019_Apr_29_1602,2AFC_task,59.933877469308115,
stimuli/rgb_scene000195_render000001.png,stimuli/rgb_scene000195_render000005.png,0,12,12,198,"[0, 1]",right,1,785,31,f,y,y,2019_Apr_29_1602,2AFC_task,59.933877469308115,
stimuli/rgb_scene000096_render000001.png,stimuli/rgb_scene000096_render000003.png,0,13,13,112,"[1, 0]",left,1,785,31,f,y,y,2019_Apr_29_1602,2AFC_task,59.933877469308115,
stimuli/rgb_scene000113_render000005.png,stimuli/rgb_scene000113_render000006.png,0,14,14,167,"[0, 1]",right,1,785,31,f,y,y,2019_Apr_29_1602,2AFC_task,59.933877469308115,
stimuli/rgb_scene000012_render000001.png,stimuli/rgb_scene000012_render000006.png,0,15,15,52,"[1, 0]",left,1,785,31,f,y,y,2019_Apr_29_1602,2AFC_task,59.933877469308115,
stimuli/rgb_scene000113_render000003.png,stimuli/rgb_scene000113_render000006.png,0,16,16,164,"[0, 1]",right,1,785,31,f,y,y,2019_Apr_29_1602,2AFC_task,59.933877469308115,
stimuli/rgb_scene000102_render000000.png,stimuli/rgb_scene000102_render000005.png,0,17,17,130,"[0, 1]",right,1,785,31,f,y,y,2019_Apr_29_1602,2AFC_task,59.933877469308115,
stimuli/rgb_scene000102_render000002.png,stimuli/rgb_scene000102_render000006.png,0,18,18,140,"[1, 0]",left,1,785,31,f,y,y,2019_Apr_29_1602,2AFC_task,59.933877469308115,
stimuli/rgb_scene000102_render000004.png,stimuli/rgb_scene000102_render000006.png,0,19,19,145,"[0, 1]",left,0,785,31,f,y,y,2019_Apr_29_1602,2AFC_task,59.933877469308115,
stimuli/rgb_scene000102_render000001.png,stimuli/rgb_scene000102_render000002.png,0,20,20,132,"[0, 1]",right,1,785,31,f,y,y,2019_Apr_29_1602,2AFC_task,59.933877469308115,
stimuli/rgb_scene000113_render000001.png,stimuli/rgb_scene000113_render000004.png,0,21,21,155,"[1, 0]",left,1,785,31,f,y,y,2019_Apr_29_1602,2AFC_task,59.933877469308115,
stimuli/rgb_scene000004_render000000.png,stimuli/rgb_scene000004_render000005.png,0,22,22,4,"[1, 0]",left,1,785,31,f,y,y,2019_Apr_29_1602,2AFC_task,59.933877469308115,
stimuli/rgb_scene000102_render000000.png,stimuli/rgb_scene000102_render000004.png,0,23,23,129,"[0, 1]",right,1,785,31,f,y,y,2019_Apr_29_1602,2AFC_task,59.933877469308115,
stimuli/rgb_scene000095_render000000.png,stimuli/rgb_scene000095_render000001.png,0,24,24,84,"[0, 1]",right,1,785,31,f,y,y,2019_Apr_29_1602,2AFC_task,59.933877469308115,
stimuli/rgb_scene000146_render000002.png,stimuli/rgb_scene000146_render000005.png,0,25,25,181,"[1, 0]",right,0,785,31,f,y,y,2019_Apr_29_1602,2AFC_task,59.933877469308115,
stimuli/rgb_scene000012_render000000.png,stimuli/rgb_scene000012_render000006.png,0,26,26,47,"[1, 0]",left,1,785,31,f,y,y,2019_Apr_29_1602,2AFC_task,59.933877469308115,
stimuli/rgb_scene000095_render000002.png,stimuli/rgb_scene000095_render000003.png,0,27,27,95,"[0, 1]",right,1,785,31,f,y,y,2019_Apr_29_1602,2AFC_task,59.933877469308115,
stimuli/rgb_scene000090_render000000.png,stimuli/rgb_scene000090_render000006.png,0,28,28,68,"[0, 1]",right,1,785,31,f,y,y,2019_Apr_29_1602,2AFC_task,59.933877469308115,
stimuli/rgb_scene000095_render000005.png,stimuli/rgb_scene000095_render000006.png,0,29,29,104,"[0, 1]",left,0,785,31,f,y,y,2019_Apr_29_1602,2AFC_task,59.933877469308115,
stimuli/rgb_scene000095_render000001.png,stimuli/rgb_scene000095_render000005.png,0,30,30,93,"[1, 0]",left,1,785,31,f,y,y,2019_Apr_29_1602,2AFC_task,59.933877469308115,
stimuli/rgb_scene000012_render000000.png,stimuli/rgb_scene000012_render000002.png,0,31,31,43,"[0, 1]",right,1,785,31,f,y,y,2019_Apr_29_1602,2AFC_task,59.933877469308115,
stimuli/rgb_scene000012_render000001.png,stimuli/rgb_scene000012_render000004.png,0,32,32,50,"[0, 1]",right,1,785,31,f,y,y,2019_Apr_29_1602,2AFC_task,59.933877469308115,
stimuli/rgb_scene000195_render000002.png,stimuli/rgb_scene000195_render000003.png,0,33,33,200,"[0, 1]",right,1,785,31,f,y,y,2019_Apr_29_1602,2AFC_task,59.933877469308115,
stimuli/rgb_scene000113_render000000.png,stimuli/rgb_scene000113_render000005.png,0,34,34,151,"[0, 1]",right,1,785,31,f,y,y,2019_Apr_29_1602,2AFC_task,59.933877469308115,
stimuli/rgb_scene000005_render000004.png,stimuli/rgb_scene000005_render000005.png,0,35,35,39,"[0, 1]",left,0,785,31,f,y,y,2019_Apr_29_1602,2AFC_task,59.933877469308115,
stimuli/rgb_scene000146_render000000.png,stimuli/rgb_scene000146_render000002.png,0,36,36,169,"[1, 0]",left,1,785,31,f,y,y,2019_Apr_29_1602,2AFC_task,59.933877469308115,
stimuli/rgb_scene000102_render000005.png,stimuli/rgb_scene000102_render000006.png,0,37,37,146,"[0, 1]",left,0,785,31,f,y,y,2019_Apr_29_1602,2AFC_task,59.933877469308115,
stimuli/rgb_scene000195_render000000.png,stimuli/rgb_scene000195_render000005.png,0,38,38,193,"[0, 1]",right,1,785,31,f,y,y,2019_Apr_29_1602,2AFC_task,59.933877469308115,
stimuli/rgb_scene000005_render000003.png,stimuli/rgb_scene000005_render000006.png,0,39,39,38,"[0, 1]",left,0,785,31,f,y,y,2019_Apr_29_1602,2AFC_task,59.933877469308115,
stimuli/rgb_scene000102_render000000.png,stimuli/rgb_scene000102_render000006.png,0,40,40,131,"[0, 1]",right,1,785,31,f,y,y,2019_Apr_29_1602,2AFC_task,59.933877469308115,
stimuli/rgb_scene000090_render000002.png,stimuli/rgb_scene000090_render000005.png,0,41,41,76,"[0, 1]",left,0,785,31,f,y,y,2019_Apr_29_1602,2AFC_task,59.933877469308115,
stimuli/rgb_scene000090_render000002.png,stimuli/rgb_scene000090_render000003.png,0,42,42,74,"[0, 1]",right,1,785,31,f,y,y,2019_Apr_29_1602,2AFC_task,59.933877469308115,
stimuli/rgb_scene000195_render000001.png,stimuli/rgb_scene000195_render000002.png,0,43,43,195,"[0, 1]",right,1,785,31,f,y,y,2019_Apr_29_1602,2AFC_task,59.933877469308115,
stimuli/rgb_scene000005_render000003.png,stimuli/rgb_scene000005_render000004.png,0,44,44,36,"[0, 1]",right,1,785,31,f,y,y,2019_Apr_29_1602,2AFC_task,59.933877469308115,
stimuli/rgb_scene000005_render000003.png,stimuli/rgb_scene000005_render000005.png,0,45,45,37,"[0, 1]",left,0,785,31,f,y,y,2019_Apr_29_1602,2AFC_task,59.933877469308115,
stimuli/rgb_scene000195_render000004.png,stimuli/rgb_scene000195_render000006.png,0,46,46,208,"[1, 0]",right,0,785,31,f,y,y,2019_Apr_29_1602,2AFC_task,59.933877469308115,
stimuli/rgb_scene000090_render000003.png,stimuli/rgb_scene000090_render000006.png,0,47,47,80,"[1, 0]",right,0,785,31,f,y,y,2019_Apr_29_1602,2AFC_task,59.933877469308115,
stimuli/rgb_scene000090_render000000.png,stimuli/rgb_scene000090_render000001.png,0,48,48,63,"[1, 0]",left,1,785,31,f,y,y,2019_Apr_29_1602,2AFC_task,59.933877469308115,
stimuli/rgb_scene000012_render000003.png,stimuli/rgb_scene000012_render000005.png,0,49,49,58,"[0, 1]",right,1,785,31,f,y,y,2019_Apr_29_1602,2AFC_task,59.933877469308115,
stimuli/rgb_scene000146_render000003.png,stimuli/rgb_scene000146_render000006.png,0,50,50,185,"[1, 0]",right,0,785,31,f,y,y,2019_Apr_29_1602,2AFC_task,59.933877469308115,
stimuli/rgb_scene000095_render000003.png,stimuli/rgb_scene000095_render000004.png,0,51,51,99,"[0, 1]",right,1,785,31,f,y,y,2019_Apr_29_1602,2AFC_task,59.933877469308115,
stimuli/rgb_scene000095_render000004.png,stimuli/rgb_scene000095_render000005.png,0,52,52,102,"[1, 0]",left,1,785,31,f,y,y,2019_Apr_29_1602,2AFC_task,59.933877469308115,
stimuli/rgb_scene000102_render000001.png,stimuli/rgb_scene000102_render000005.png,0,53,53,135,"[0, 1]",right,1,785,31,f,y,y,2019_Apr_29_1602,2AFC_task,59.933877469308115,
stimuli/rgb_scene000012_render000003.png,stimuli/rgb_scene000012_render000004.png,0,54,54,57,"[0, 1]",right,1,785,31,f,y,y,2019_Apr_29_1602,2AFC_task,59.933877469308115,
stimuli/rgb_scene000012_render000000.png,stimuli/rgb_scene000012_render000003.png,0,55,55,44,"[0, 1]",right,1,785,31,f,y,y,2019_Apr_29_1602,2AFC_task,59.933877469308115,
stimuli/rgb_scene000090_render000003.png,stimuli/rgb_scene000090_render000005.png,0,56,56,79,"[0, 1]",left,0,785,31,f,y,y,2019_Apr_29_1602,2AFC_task,59.933877469308115,
stimuli/rgb_scene000004_render000003.png,stimuli/rgb_scene000004_render000004.png,0,57,57,15,"[1, 0]",right,0,785,31,f,y,y,2019_Apr_29_1602,2AFC_task,59.933877469308115,
stimuli/rgb_scene000005_render000001.png,stimuli/rgb_scene000005_render000006.png,0,58,58,31,"[1, 0]",right,0,785,31,f,y,y,2019_Apr_29_1602,2AFC_task,59.933877469308115,
stimuli/rgb_scene000096_render000000.png,stimuli/rgb_scene000096_render000001.png,0,59,59,105,"[1, 0]",left,1,785,31,f,y,y,2019_Apr_29_1602,2AFC_task,59.933877469308115,
stimuli/rgb_scene000090_render000002.png,stimuli/rgb_scene000090_render000004.png,0,60,60,75,"[1, 0]",right,0,785,31,f,y,y,2019_Apr_29_1602,2AFC_task,59.933877469308115,
stimuli/rgb_scene000012_render000003.png,stimuli/rgb_scene000012_render000006.png,0,61,61,59,"[1, 0]",right,0,785,31,f,y,y,2019_Apr_29_1602,2AFC_task,59.933877469308115,
stimuli/rgb_scene000012_render000000.png,stimuli/rgb_scene000012_render000001.png,0,62,62,42,"[0, 1]",right,1,785,31,f,y,y,2019_Apr_29_1602,2AFC_task,59.933877469308115,
stimuli/rgb_scene000195_render000002.png,stimuli/rgb_scene000195_render000004.png,0,63,63,201,"[0, 1]",right,1,785,31,f,y,y,2019_Apr_29_1602,2AFC_task,59.933877469308115,
stimuli/rgb_scene000005_render000000.png,stimuli/rgb_scene000005_render000004.png,0,64,64,24,"[0, 1]",right,1,785,31,f,y,y,2019_Apr_29_1602,2AFC_task,59.933877469308115,
stimuli/rgb_scene000005_render000002.png,stimuli/rgb_scene000005_render000004.png,0,65,65,33,"[0, 1]",right,1,785,31,f,y,y,2019_Apr_29_1602,2AFC_task,59.933877469308115,
stimuli/rgb_scene000096_render000005.png,stimuli/rgb_scene000096_render000006.png,0,66,66,125,"[0, 1]",right,1,785,31,f,y,y,2019_Apr_29_1602,2AFC_task,59.933877469308115,
stimuli/rgb_scene000113_render000001.png,stimuli/rgb_scene000113_render000005.png,0,67,67,156,"[1, 0]",left,1,785,31,f,y,y,2019_Apr_29_1602,2AFC_task,59.933877469308115,
stimuli/rgb_scene000146_render000002.png,stimuli/rgb_scene000146_render000003.png,0,68,68,179,"[0, 1]",right,1,785,31,f,y,y,2019_Apr_29_1602,2AFC_task,59.933877469308115,
stimuli/rgb_scene000146_render000002.png,stimuli/rgb_scene000146_render000004.png,0,69,69,180,"[1, 0]",left,1,785,31,f,y,y,2019_Apr_29_1602,2AFC_task,59.933877469308115,
stimuli/rgb_scene000102_render000002.png,stimuli/rgb_scene000102_render000003.png,0,70,70,137,"[0, 1]",right,1,785,31,f,y,y,2019_Apr_29_1602,2AFC_task,59.933877469308115,
stimuli/rgb_scene000090_render000000.png,stimuli/rgb_scene000090_render000004.png,0,71,71,66,"[1, 0]",right,0,785,31,f,y,y,2019_Apr_29_1602,2AFC_task,59.933877469308115,
stimuli/rgb_scene000146_render000001.png,stimuli/rgb_scene000146_render000002.png,0,72,72,174,"[0, 1]",right,1,785,31,f,y,y,2019_Apr_29_1602,2AFC_task,59.933877469308115,
stimuli/rgb_scene000005_render000002.png,stimuli/rgb_scene000005_render000005.png,0,73,73,34,"[1, 0]",left,1,785,31,f,y,y,2019_Apr_29_1602,2AFC_task,59.933877469308115,
stimuli/rgb_scene000146_render000005.png,stimuli/rgb_scene000146_render000006.png,0,74,74,188,"[0, 1]",left,0,785,31,f,y,y,2019_Apr_29_1602,2AFC_task,59.933877469308115,
stimuli/rgb_scene000012_render000001.png,stimuli/rgb_scene000012_render000002.png,0,75,75,48,"[1, 0]",left,1,785,31,f,y,y,2019_Apr_29_1602,2AFC_task,59.933877469308115,
stimuli/rgb_scene000146_render000000.png,stimuli/rgb_scene000146_render000005.png,0,76,76,172,"[1, 0]",left,1,785,31,f,y,y,2019_Apr_29_1602,2AFC_task,59.933877469308115,
stimuli/rgb_scene000095_render000000.png,stimuli/rgb_scene000095_render000004.png,0,77,77,87,"[0, 1]",right,1,785,31,f,y,y,2019_Apr_29_1602,2AFC_task,59.933877469308115,
stimuli/rgb_scene000146_render000000.png,stimuli/rgb_scene000146_render000004.png,0,78,78,171,"[1, 0]",left,1,785,31,f,y,y,2019_Apr_29_1602,2AFC_task,59.933877469308115,
stimuli/rgb_scene000102_render000000.png,stimuli/rgb_scene000102_render000001.png,0,79,79,126,"[0, 1]",right,1,785,31,f,y,y,2019_Apr_29_1602,2AFC_task,59.933877469308115,
stimuli/rgb_scene000102_render000003.png,stimuli/rgb_scene000102_render000006.png,0,80,80,143,"[1, 0]",left,1,785,31,f,y,y,2019_Apr_29_1602,2AFC_task,59.933877469308115,
stimuli/rgb_scene000113_render000001.png,stimuli/rgb_scene000113_render000006.png,0,81,81,157,"[0, 1]",right,1,785,31,f,y,y,2019_Apr_29_1602,2AFC_task,59.933877469308115,
stimuli/rgb_scene000004_render000000.png,stimuli/rgb_scene000004_render000001.png,0,82,82,0,"[1, 0]",left,1,785,31,f,y,y,2019_Apr_29_1602,2AFC_task,59.933877469308115,
stimuli/rgb_scene000096_render000002.png,stimuli/rgb_scene000096_render000006.png,0,83,83,119,"[0, 1]",right,1,785,31,f,y,y,2019_Apr_29_1602,2AFC_task,59.933877469308115,
stimuli/rgb_scene000090_render000001.png,stimuli/rgb_scene000090_render000006.png,0,84,84,73,"[1, 0]",right,0,785,31,f,y,y,2019_Apr_29_1602,2AFC_task,59.933877469308115,
stimuli/rgb_scene000096_render000001.png,stimuli/rgb_scene000096_render000002.png,0,85,85,111,"[1, 0]",left,1,785,31,f,y,y,2019_Apr_29_1602,2AFC_task,59.933877469308115,
stimuli/rgb_scene000095_render000001.png,stimuli/rgb_scene000095_render000006.png,0,86,86,94,"[0, 1]",right,1,785,31,f,y,y,2019_Apr_29_1602,2AFC_task,59.933877469308115,
stimuli/rgb_scene000005_render000000.png,stimuli/rgb_scene000005_render000003.png,0,87,87,23,"[1, 0]",left,1,785,31,f,y,y,2019_Apr_29_1602,2AFC_task,59.933877469308115,
stimuli/rgb_scene000004_render000000.png,stimuli/rgb_scene000004_render000003.png,0,88,88,2,"[0, 1]",right,1,785,31,f,y,y,2019_Apr_29_1602,2AFC_task,59.933877469308115,
stimuli/rgb_scene000005_render000000.png,stimuli/rgb_scene000005_render000006.png,0,89,89,26,"[1, 0]",left,1,785,31,f,y,y,2019_Apr_29_1602,2AFC_task,59.933877469308115,
stimuli/rgb_scene000146_render000001.png,stimuli/rgb_scene000146_render000006.png,0,90,90,178,"[0, 1]",right,1,785,31,f,y,y,2019_Apr_29_1602,2AFC_task,59.933877469308115,
stimuli/rgb_scene000113_render000004.png,stimuli/rgb_scene000113_render000006.png,0,91,91,166,"[1, 0]",right,0,785,31,f,y,y,2019_Apr_29_1602,2AFC_task,59.933877469308115,
stimuli/rgb_scene000096_render000001.png,stimuli/rgb_scene000096_render000004.png,0,92,92,113,"[0, 1]",right,1,785,31,f,y,y,2019_Apr_29_1602,2AFC_task,59.933877469308115,
stimuli/rgb_scene000095_render000003.png,stimuli/rgb_scene000095_render000005.png,0,93,93,100,"[0, 1]",right,1,785,31,f,y,y,2019_Apr_29_1602,2AFC_task,59.933877469308115,
stimuli/rgb_scene000096_render000000.png,stimuli/rgb_scene000096_render000004.png,0,94,94,108,"[0, 1]",right,1,785,31,f,y,y,2019_Apr_29_1602,2AFC_task,59.933877469308115,
stimuli/rgb_scene000095_render000001.png,stimuli/rgb_scene000095_render000004.png,0,95,95,92,"[0, 1]",right,1,785,31,f,y,y,2019_Apr_29_1602,2AFC_task,59.933877469308115,
stimuli/rgb_scene000146_render000000.png,stimuli/rgb_scene000146_render000001.png,0,96,96,168,"[0, 1]",right,1,785,31,f,y,y,2019_Apr_29_1602,2AFC_task,59.933877469308115,
stimuli/rgb_scene000012_render000001.png,stimuli/rgb_scene000012_render000005.png,0,97,97,51,"[0, 1]",right,1,785,31,f,y,y,2019_Apr_29_1602,2AFC_task,59.933877469308115,
stimuli/rgb_scene000146_render000001.png,stimuli/rgb_scene000146_render000005.png,0,98,98,177,"[0, 1]",right,1,785,31,f,y,y,2019_Apr_29_1602,2AFC_task,59.933877469308115,
stimuli/rgb_scene000146_render000001.png,stimuli/rgb_scene000146_render000003.png,0,99,99,175,"[1, 0]",left,1,785,31,f,y,y,2019_Apr_29_1602,2AFC_task,59.933877469308115,
stimuli/rgb_scene000090_render000004.png,stimuli/rgb_scene000090_render000006.png,0,100,100,82,"[0, 1]",left,0,785,31,f,y,y,2019_Apr_29_1602,2AFC_task,59.933877469308115,
stimuli/rgb_scene000012_render000002.png,stimuli/rgb_scene000012_render000003.png,0,101,101,53,"[1, 0]",left,1,785,31,f,y,y,2019_Apr_29_1602,2AFC_task,59.933877469308115,
stimuli/rgb_scene000090_render000005.png,stimuli/rgb_scene000090_render000006.png,0,102,102,83,"[0, 1]",left,0,785,31,f,y,y,2019_Apr_29_1602,2AFC_task,59.933877469308115,
stimuli/rgb_scene000004_render000000.png,stimuli/rgb_scene000004_render000006.png,0,103,103,5,"[0, 1]",right,1,785,31,f,y,y,2019_Apr_29_1602,2AFC_task,59.933877469308115,
stimuli/rgb_scene000095_render000002.png,stimuli/rgb_scene000095_render000004.png,0,104,104,96,"[1, 0]",left,1,785,31,f,y,y,2019_Apr_29_1602,2AFC_task,59.933877469308115,
stimuli/rgb_scene000195_render000002.png,stimuli/rgb_scene000195_render000005.png,0,105,105,202,"[0, 1]",right,1,785,31,f,y,y,2019_Apr_29_1602,2AFC_task,59.933877469308115,
stimuli/rgb_scene000095_render000000.png,stimuli/rgb_scene000095_render000006.png,0,106,106,89,"[0, 1]",right,1,785,31,f,y,y,2019_Apr_29_1602,2AFC_task,59.933877469308115,
stimuli/rgb_scene000012_render000002.png,stimuli/rgb_scene000012_render000006.png,0,107,107,56,"[1, 0]",left,1,785,31,f,y,y,2019_Apr_29_1602,2AFC_task,59.933877469308115,
stimuli/rgb_scene000102_render000003.png,stimuli/rgb_scene000102_render000004.png,0,108,108,141,"[1, 0]",right,0,785,31,f,y,y,2019_Apr_29_1602,2AFC_task,59.933877469308115,
stimuli/rgb_scene000102_render000000.png,stimuli/rgb_scene000102_render000003.png,0,109,109,128,"[0, 1]",right,1,785,31,f,y,y,2019_Apr_29_1602,2AFC_task,59.933877469308115,
stimuli/rgb_scene000195_render000000.png,stimuli/rgb_scene000195_render000004.png,0,110,110,192,"[1, 0]",left,1,785,31,f,y,y,2019_Apr_29_1602,2AFC_task,59.933877469308115,
stimuli/rgb_scene000195_render000003.png,stimuli/rgb_scene000195_render000005.png,0,111,111,205,"[1, 0]",right,0,785,31,f,y,y,2019_Apr_29_1602,2AFC_task,59.933877469308115,
stimuli/rgb_scene000004_render000001.png,stimuli/rgb_scene000004_render000004.png,0,112,112,8,"[0, 1]",right,1,785,31,f,y,y,2019_Apr_29_1602,2AFC_task,59.933877469308115,
stimuli/rgb_scene000004_render000000.png,stimuli/rgb_scene000004_render000004.png,0,113,113,3,"[0, 1]",right,1,785,31,f,y,y,2019_Apr_29_1602,2AFC_task,59.933877469308115,
stimuli/rgb_scene000096_render000003.png,stimuli/rgb_scene000096_render000005.png,0,114,114,121,"[1, 0]",left,1,785,31,f,y,y,2019_Apr_29_1602,2AFC_task,59.933877469308115,
stimuli/rgb_scene000012_render000004.png,stimuli/rgb_scene000012_render000005.png,0,115,115,60,"[1, 0]",right,0,785,31,f,y,y,2019_Apr_29_1602,2AFC_task,59.933877469308115,
stimuli/rgb_scene000195_render000000.png,stimuli/rgb_scene000195_render000006.png,0,116,116,194,"[0, 1]",left,0,785,31,f,y,y,2019_Apr_29_1602,2AFC_task,59.933877469308115,
stimuli/rgb_scene000005_render000001.png,stimuli/rgb_scene000005_render000004.png,0,117,117,29,"[1, 0]",left,1,785,31,f,y,y,2019_Apr_29_1602,2AFC_task,59.933877469308115,
stimuli/rgb_scene000095_render000001.png,stimuli/rgb_scene000095_render000003.png,0,118,118,91,"[1, 0]",left,1,785,31,f,y,y,2019_Apr_29_1602,2AFC_task,59.933877469308115,
stimuli/rgb_scene000113_render000001.png,stimuli/rgb_scene000113_render000003.png,0,119,119,154,"[1, 0]",left,1,785,31,f,y,y,2019_Apr_29_1602,2AFC_task,59.933877469308115,
stimuli/rgb_scene000146_render000003.png,stimuli/rgb_scene000146_render000004.png,0,120,120,183,"[0, 1]",right,1,785,31,f,y,y,2019_Apr_29_1602,2AFC_task,59.933877469308115,
stimuli/rgb_scene000096_render000000.png,stimuli/rgb_scene000096_render000005.png,0,121,121,109,"[1, 0]",left,1,785,31,f,y,y,2019_Apr_29_1602,2AFC_task,59.933877469308115,
stimuli/rgb_scene000012_render000000.png,stimuli/rgb_scene000012_render000005.png,0,122,122,46,"[0, 1]",right,1,785,31,f,y,y,2019_Apr_29_1602,2AFC_task,59.933877469308115,
stimuli/rgb_scene000113_render000003.png,stimuli/rgb_scene000113_render000005.png,0,123,123,163,"[1, 0]",right,0,785,31,f,y,y,2019_Apr_29_1602,2AFC_task,59.933877469308115,
stimuli/rgb_scene000004_render000002.png,stimuli/rgb_scene000004_render000006.png,0,124,124,14,"[0, 1]",right,1,785,31,f,y,y,2019_Apr_29_1602,2AFC_task,59.933877469308115,
stimuli/rgb_scene000113_render000002.png,stimuli/rgb_scene000113_render000003.png,0,125,125,158,"[0, 1]",right,1,785,31,f,y,y,2019_Apr_29_1602,2AFC_task,59.933877469308115,
stimuli/rgb_scene000195_render000001.png,stimuli/rgb_scene000195_render000004.png,0,126,126,197,"[0, 1]",right,1,785,31,f,y,y,2019_Apr_29_1602,2AFC_task,59.933877469308115,
stimuli/rgb_scene000005_render000000.png,stimuli/rgb_scene000005_render000005.png,0,127,127,25,"[1, 0]",left,1,785,31,f,y,y,2019_Apr_29_1602,2AFC_task,59.933877469308115,
stimuli/rgb_scene000096_render000004.png,stimuli/rgb_scene000096_render000006.png,0,128,128,124,"[1, 0]",left,1,785,31,f,y,y,2019_Apr_29_1602,2AFC_task,59.933877469308115,
stimuli/rgb_scene000090_render000001.png,stimuli/rgb_scene000090_render000002.png,0,129,129,69,"[1, 0]",left,1,785,31,f,y,y,2019_Apr_29_1602,2AFC_task,59.933877469308115,
stimuli/rgb_scene000195_render000002.png,stimuli/rgb_scene000195_render000006.png,0,130,130,203,"[1, 0]",left,1,785,31,f,y,y,2019_Apr_29_1602,2AFC_task,59.933877469308115,
stimuli/rgb_scene000095_render000001.png,stimuli/rgb_scene000095_render000002.png,0,131,131,90,"[1, 0]",left,1,785,31,f,y,y,2019_Apr_29_1602,2AFC_task,59.933877469308115,
stimuli/rgb_scene000005_render000002.png,stimuli/rgb_scene000005_render000003.png,0,132,132,32,"[0, 1]",right,1,785,31,f,y,y,2019_Apr_29_1602,2AFC_task,59.933877469308115,
stimuli/rgb_scene000095_render000002.png,stimuli/rgb_scene000095_render000005.png,0,133,133,97,"[0, 1]",right,1,785,31,f,y,y,2019_Apr_29_1602,2AFC_task,59.933877469308115,
stimuli/rgb_scene000146_render000004.png,stimuli/rgb_scene000146_render000006.png,0,134,134,187,"[1, 0]",left,1,785,31,f,y,y,2019_Apr_29_1602,2AFC_task,59.933877469308115,
stimuli/rgb_scene000004_render000002.png,stimuli/rgb_scene000004_render000005.png,0,135,135,13,"[1, 0]",left,1,785,31,f,y,y,2019_Apr_29_1602,2AFC_task,59.933877469308115,
stimuli/rgb_scene000004_render000001.png,stimuli/rgb_scene000004_render000002.png,0,136,136,6,"[0, 1]",right,1,785,31,f,y,y,2019_Apr_29_1602,2AFC_task,59.933877469308115,
stimuli/rgb_scene000146_render000003.png,stimuli/rgb_scene000146_render000005.png,0,137,137,184,"[1, 0]",left,1,785,31,f,y,y,2019_Apr_29_1602,2AFC_task,59.933877469308115,
stimuli/rgb_scene000096_render000002.png,stimuli/rgb_scene000096_render000003.png,0,138,138,116,"[0, 1]",right,1,785,31,f,y,y,2019_Apr_29_1602,2AFC_task,59.933877469308115,
stimuli/rgb_scene000096_render000000.png,stimuli/rgb_scene000096_render000003.png,0,139,139,107,"[1, 0]",left,1,785,31,f,y,y,2019_Apr_29_1602,2AFC_task,59.933877469308115,
stimuli/rgb_scene000113_render000002.png,stimuli/rgb_scene000113_render000005.png,0,140,140,160,"[1, 0]",left,1,785,31,f,y,y,2019_Apr_29_1602,2AFC_task,59.933877469308115,
stimuli/rgb_scene000113_render000000.png,stimuli/rgb_scene000113_render000001.png,0,141,141,147,"[1, 0]",left,1,785,31,f,y,y,2019_Apr_29_1602,2AFC_task,59.933877469308115,
stimuli/rgb_scene000146_render000004.png,stimuli/rgb_scene000146_render000005.png,0,142,142,186,"[0, 1]",right,1,785,31,f,y,y,2019_Apr_29_1602,2AFC_task,59.933877469308115,
stimuli/rgb_scene000195_render000000.png,stimuli/rgb_scene000195_render000003.png,0,143,143,191,"[0, 1]",right,1,785,31,f,y,y,2019_Apr_29_1602,2AFC_task,59.933877469308115,
stimuli/rgb_scene000146_render000002.png,stimuli/rgb_scene000146_render000006.png,0,144,144,182,"[1, 0]",left,1,785,31,f,y,y,2019_Apr_29_1602,2AFC_task,59.933877469308115,
stimuli/rgb_scene000090_render000003.png,stimuli/rgb_scene000090_render000004.png,0,145,145,78,"[1, 0]",right,0,785,31,f,y,y,2019_Apr_29_1602,2AFC_task,59.933877469308115,
stimuli/rgb_scene000146_render000001.png,stimuli/rgb_scene000146_render000004.png,0,146,146,176,"[1, 0]",left,1,785,31,f,y,y,2019_Apr_29_1602,2AFC_task,59.933877469308115,
stimuli/rgb_scene000195_render000003.png,stimuli/rgb_scene000195_render000006.png,0,147,147,206,"[0, 1]",left,0,785,31,f,y,y,2019_Apr_29_1602,2AFC_task,59.933877469308115,
stimuli/rgb_scene000004_render000003.png,stimuli/rgb_scene000004_render000006.png,0,148,148,17,"[1, 0]",left,1,785,31,f,y,y,2019_Apr_29_1602,2AFC_task,59.933877469308115,
stimuli/rgb_scene000005_render000005.png,stimuli/rgb_scene000005_render000006.png,0,149,149,41,"[0, 1]",left,0,785,31,f,y,y,2019_Apr_29_1602,2AFC_task,59.933877469308115,
stimuli/rgb_scene000090_render000000.png,stimuli/rgb_scene000090_render000005.png,0,150,150,67,"[0, 1]",right,1,785,31,f,y,y,2019_Apr_29_1602,2AFC_task,59.933877469308115,
stimuli/rgb_scene000005_render000001.png,stimuli/rgb_scene000005_render000005.png,0,151,151,30,"[0, 1]",right,1,785,31,f,y,y,2019_Apr_29_1602,2AFC_task,59.933877469308115,
stimuli/rgb_scene000004_render000004.png,stimuli/rgb_scene000004_render000006.png,0,152,152,19,"[1, 0]",right,0,785,31,f,y,y,2019_Apr_29_1602,2AFC_task,59.933877469308115,
stimuli/rgb_scene000005_render000000.png,stimuli/rgb_scene000005_render000001.png,0,153,153,21,"[0, 1]",right,1,785,31,f,y,y,2019_Apr_29_1602,2AFC_task,59.933877469308115,
stimuli/rgb_scene000005_render000001.png,stimuli/rgb_scene000005_render000002.png,0,154,154,27,"[1, 0]",left,1,785,31,f,y,y,2019_Apr_29_1602,2AFC_task,59.933877469308115,
stimuli/rgb_scene000095_render000002.png,stimuli/rgb_scene000095_render000006.png,0,155,155,98,"[1, 0]",left,1,785,31,f,y,y,2019_Apr_29_1602,2AFC_task,59.933877469308115,
stimuli/rgb_scene000102_render000001.png,stimuli/rgb_scene000102_render000004.png,0,156,156,134,"[0, 1]",right,1,785,31,f,y,y,2019_Apr_29_1602,2AFC_task,59.933877469308115,
stimuli/rgb_scene000146_render000000.png,stimuli/rgb_scene000146_render000003.png,0,157,157,170,"[0, 1]",right,1,785,31,f,y,y,2019_Apr_29_1602,2AFC_task,59.933877469308115,
stimuli/rgb_scene000004_render000004.png,stimuli/rgb_scene000004_render000005.png,0,158,158,18,"[0, 1]",right,1,785,31,f,y,y,2019_Apr_29_1602,2AFC_task,59.933877469308115,
stimuli/rgb_scene000096_render000000.png,stimuli/rgb_scene000096_render000002.png,0,159,159,106,"[0, 1]",right,1,785,31,f,y,y,2019_Apr_29_1602,2AFC_task,59.933877469308115,
stimuli/rgb_scene000096_render000003.png,stimuli/rgb_scene000096_render000004.png,0,160,160,120,"[1, 0]",left,1,785,31,f,y,y,2019_Apr_29_1602,2AFC_task,59.933877469308115,
stimuli/rgb_scene000113_render000004.png,stimuli/rgb_scene000113_render000005.png,0,161,161,165,"[0, 1]",right,1,785,31,f,y,y,2019_Apr_29_1602,2AFC_task,59.933877469308115,
stimuli/rgb_scene000113_render000003.png,stimuli/rgb_scene000113_render000004.png,0,162,162,162,"[1, 0]",left,1,785,31,f,y,y,2019_Apr_29_1602,2AFC_task,59.933877469308115,
stimuli/rgb_scene000004_render000001.png,stimuli/rgb_scene000004_render000003.png,0,163,163,7,"[1, 0]",left,1,785,31,f,y,y,2019_Apr_29_1602,2AFC_task,59.933877469308115,
stimuli/rgb_scene000195_render000001.png,stimuli/rgb_scene000195_render000006.png,0,164,164,199,"[1, 0]",left,1,785,31,f,y,y,2019_Apr_29_1602,2AFC_task,59.933877469308115,
stimuli/rgb_scene000004_render000005.png,stimuli/rgb_scene000004_render000006.png,0,165,165,20,"[1, 0]",right,0,785,31,f,y,y,2019_Apr_29_1602,2AFC_task,59.933877469308115,
stimuli/rgb_scene000096_render000001.png,stimuli/rgb_scene000096_render000006.png,0,166,166,115,"[0, 1]",right,1,785,31,f,y,y,2019_Apr_29_1602,2AFC_task,59.933877469308115,
stimuli/rgb_scene000090_render000001.png,stimuli/rgb_scene000090_render000005.png,0,167,167,72,"[1, 0]",left,1,785,31,f,y,y,2019_Apr_29_1602,2AFC_task,59.933877469308115,
stimuli/rgb_scene000090_render000000.png,stimuli/rgb_scene000090_render000002.png,0,168,168,64,"[0, 1]",right,1,785,31,f,y,y,2019_Apr_29_1602,2AFC_task,59.933877469308115,
stimuli/rgb_scene000096_render000004.png,stimuli/rgb_scene000096_render000005.png,0,169,169,123,"[1, 0]",left,1,785,31,f,y,y,2019_Apr_29_1602,2AFC_task,59.933877469308115,
stimuli/rgb_scene000113_render000002.png,stimuli/rgb_scene000113_render000006.png,0,170,170,161,"[0, 1]",right,1,785,31,f,y,y,2019_Apr_29_1602,2AFC_task,59.933877469308115,
stimuli/rgb_scene000090_render000001.png,stimuli/rgb_scene000090_render000004.png,0,171,171,71,"[0, 1]",right,1,785,31,f,y,y,2019_Apr_29_1602,2AFC_task,59.933877469308115,
stimuli/rgb_scene000012_render000000.png,stimuli/rgb_scene000012_render000004.png,0,172,172,45,"[0, 1]",right,1,785,31,f,y,y,2019_Apr_29_1602,2AFC_task,59.933877469308115,
stimuli/rgb_scene000005_render000002.png,stimuli/rgb_scene000005_render000006.png,0,173,173,35,"[0, 1]",right,1,785,31,f,y,y,2019_Apr_29_1602,2AFC_task,59.933877469308115,
stimuli/rgb_scene000096_render000003.png,stimuli/rgb_scene000096_render000006.png,0,174,174,122,"[1, 0]",left,1,785,31,f,y,y,2019_Apr_29_1602,2AFC_task,59.933877469308115,
stimuli/rgb_scene000102_render000002.png,stimuli/rgb_scene000102_render000005.png,0,175,175,139,"[0, 1]",right,1,785,31,f,y,y,2019_Apr_29_1602,2AFC_task,59.933877469308115,
stimuli/rgb_scene000095_render000004.png,stimuli/rgb_scene000095_render000006.png,0,176,176,103,"[1, 0]",left,1,785,31,f,y,y,2019_Apr_29_1602,2AFC_task,59.933877469308115,
stimuli/rgb_scene000195_render000000.png,stimuli/rgb_scene000195_render000002.png,0,177,177,190,"[1, 0]",left,1,785,31,f,y,y,2019_Apr_29_1602,2AFC_task,59.933877469308115,
stimuli/rgb_scene000004_render000003.png,stimuli/rgb_scene000004_render000005.png,0,178,178,16,"[0, 1]",right,1,785,31,f,y,y,2019_Apr_29_1602,2AFC_task,59.933877469308115,
stimuli/rgb_scene000005_render000000.png,stimuli/rgb_scene000005_render000002.png,0,179,179,22,"[0, 1]",right,1,785,31,f,y,y,2019_Apr_29_1602,2AFC_task,59.933877469308115,
stimuli/rgb_scene000012_render000004.png,stimuli/rgb_scene000012_render000006.png,0,180,180,61,"[0, 1]",left,0,785,31,f,y,y,2019_Apr_29_1602,2AFC_task,59.933877469308115,
stimuli/rgb_scene000113_render000000.png,stimuli/rgb_scene000113_render000003.png,0,181,181,149,"[0, 1]",right,1,785,31,f,y,y,2019_Apr_29_1602,2AFC_task,59.933877469308115,
stimuli/rgb_scene000095_render000003.png,stimuli/rgb_scene000095_render000006.png,0,182,182,101,"[1, 0]",left,1,785,31,f,y,y,2019_Apr_29_1602,2AFC_task,59.933877469308115,
stimuli/rgb_scene000005_render000004.png,stimuli/rgb_scene000005_render000006.png,0,183,183,40,"[1, 0]",right,0,785,31,f,y,y,2019_Apr_29_1602,2AFC_task,59.933877469308115,
stimuli/rgb_scene000004_render000000.png,stimuli/rgb_scene000004_render000002.png,0,184,184,1,"[1, 0]",left,1,785,31,f,y,y,2019_Apr_29_1602,2AFC_task,59.933877469308115,
stimuli/rgb_scene000004_render000002.png,stimuli/rgb_scene000004_render000003.png,0,185,185,11,"[1, 0]",left,1,785,31,f,y,y,2019_Apr_29_1602,2AFC_task,59.933877469308115,
stimuli/rgb_scene000005_render000001.png,stimuli/rgb_scene000005_render000003.png,0,186,186,28,"[0, 1]",right,1,785,31,f,y,y,2019_Apr_29_1602,2AFC_task,59.933877469308115,
stimuli/rgb_scene000195_render000003.png,stimuli/rgb_scene000195_render000004.png,0,187,187,204,"[0, 1]",right,1,785,31,f,y,y,2019_Apr_29_1602,2AFC_task,59.933877469308115,
stimuli/rgb_scene000095_render000000.png,stimuli/rgb_scene000095_render000002.png,0,188,188,85,"[0, 1]",right,1,785,31,f,y,y,2019_Apr_29_1602,2AFC_task,59.933877469308115,
stimuli/rgb_scene000102_render000000.png,stimuli/rgb_scene000102_render000002.png,0,189,189,127,"[0, 1]",right,1,785,31,f,y,y,2019_Apr_29_1602,2AFC_task,59.933877469308115,
stimuli/rgb_scene000012_render000002.png,stimuli/rgb_scene000012_render000005.png,0,190,190,55,"[1, 0]",left,1,785,31,f,y,y,2019_Apr_29_1602,2AFC_task,59.933877469308115,
stimuli/rgb_scene000090_render000001.png,stimuli/rgb_scene000090_render000003.png,0,191,191,70,"[1, 0]",left,1,785,31,f,y,y,2019_Apr_29_1602,2AFC_task,59.933877469308115,
stimuli/rgb_scene000090_render000000.png,stimuli/rgb_scene000090_render000003.png,0,192,192,65,"[0, 1]",right,1,785,31,f,y,y,2019_Apr_29_1602,2AFC_task,59.933877469308115,
stimuli/rgb_scene000012_render000002.png,stimuli/rgb_scene000012_render000004.png,0,193,193,54,"[0, 1]",right,1,785,31,f,y,y,2019_Apr_29_1602,2AFC_task,59.933877469308115,
stimuli/rgb_scene000102_render000001.png,stimuli/rgb_scene000102_render000006.png,0,194,194,136,"[1, 0]",left,1,785,31,f,y,y,2019_Apr_29_1602,2AFC_task,59.933877469308115,
stimuli/rgb_scene000096_render000002.png,stimuli/rgb_scene000096_render000004.png,0,195,195,117,"[0, 1]",right,1,785,31,f,y,y,2019_Apr_29_1602,2AFC_task,59.933877469308115,
stimuli/rgb_scene000004_render000002.png,stimuli/rgb_scene000004_render000004.png,0,196,196,12,"[1, 0]",left,1,785,31,f,y,y,2019_Apr_29_1602,2AFC_task,59.933877469308115,
stimuli/rgb_scene000095_render000000.png,stimuli/rgb_scene000095_render000003.png,0,197,197,86,"[0, 1]",right,1,785,31,f,y,y,2019_Apr_29_1602,2AFC_task,59.933877469308115,
stimuli/rgb_scene000090_render000002.png,stimuli/rgb_scene000090_render000006.png,0,198,198,77,"[0, 1]",left,0,785,31,f,y,y,2019_Apr_29_1602,2AFC_task,59.933877469308115,
stimuli/rgb_scene000102_render000001.png,stimuli/rgb_scene000102_render000003.png,0,199,199,133,"[1, 0]",left,1,785,31,f,y,y,2019_Apr_29_1602,2AFC_task,59.933877469308115,
stimuli/rgb_scene000004_render000001.png,stimuli/rgb_scene000004_render000006.png,0,200,200,10,"[1, 0]",left,1,785,31,f,y,y,2019_Apr_29_1602,2AFC_task,59.933877469308115,
stimuli/rgb_scene000113_render000000.png,stimuli/rgb_scene000113_render000006.png,0,201,201,152,"[1, 0]",left,1,785,31,f,y,y,2019_Apr_29_1602,2AFC_task,59.933877469308115,
stimuli/rgb_scene000113_render000000.png,stimuli/rgb_scene000113_render000002.png,0,202,202,148,"[1, 0]",left,1,785,31,f,y,y,2019_Apr_29_1602,2AFC_task,59.933877469308115,
stimuli/rgb_scene000102_render000003.png,stimuli/rgb_scene000102_render000005.png,0,203,203,142,"[1, 0]",right,0,785,31,f,y,y,2019_Apr_29_1602,2AFC_task,59.933877469308115,
stimuli/rgb_scene000095_render000000.png,stimuli/rgb_scene000095_render000005.png,0,204,204,88,"[1, 0]",left,1,785,31,f,y,y,2019_Apr_29_1602,2AFC_task,59.933877469308115,
stimuli/rgb_scene000195_render000004.png,stimuli/rgb_scene000195_render000005.png,0,205,205,207,"[1, 0]",right,0,785,31,f,y,y,2019_Apr_29_1602,2AFC_task,59.933877469308115,
stimuli/rgb_scene000090_render000004.png,stimuli/rgb_scene000090_render000005.png,0,206,206,81,"[0, 1]",right,1,785,31,f,y,y,2019_Apr_29_1602,2AFC_task,59.933877469308115,
stimuli/rgb_scene000195_render000000.png,stimuli/rgb_scene000195_render000001.png,0,207,207,189,"[0, 1]",right,1,785,31,f,y,y,2019_Apr_29_1602,2AFC_task,59.933877469308115,
stimuli/rgb_scene000012_render000005.png,stimuli/rgb_scene000012_render000006.png,0,208,208,62,"[1, 0]",right,0,785,31,f,y,y,2019_Apr_29_1602,2AFC_task,59.933877469308115,
stimuli/rgb_scene000102_render000004.png,stimuli/rgb_scene000102_render000005.png,0,209,209,144,"[1, 0]",left,1,785,31,f,y,y,2019_Apr_29_1602,2AFC_task,59.933877469308115,
stimuli/rgb_scene000090_render000000.png,stimuli/rgb_scene000090_render000002.png,1,0,210,64,"[1, 0]",left,1,785,31,f,y,y,2019_Apr_29_1602,2AFC_task,59.933877469308115,
stimuli/rgb_scene000195_render000001.png,stimuli/rgb_scene000195_render000004.png,1,1,211,197,"[0, 1]",right,1,785,31,f,y,y,2019_Apr_29_1602,2AFC_task,59.933877469308115,
stimuli/rgb_scene000146_render000002.png,stimuli/rgb_scene000146_render000005.png,1,2,212,181,"[0, 1]",right,1,785,31,f,y,y,2019_Apr_29_1602,2AFC_task,59.933877469308115,
stimuli/rgb_scene000096_render000000.png,stimuli/rgb_scene000096_render000006.png,1,3,213,110,"[0, 1]",right,1,785,31,f,y,y,2019_Apr_29_1602,2AFC_task,59.933877469308115,
stimuli/rgb_scene000096_render000000.png,stimuli/rgb_scene000096_render000005.png,1,4,214,109,"[1, 0]",left,1,785,31,f,y,y,2019_Apr_29_1602,2AFC_task,59.933877469308115,
stimuli/rgb_scene000113_render000000.png,stimuli/rgb_scene000113_render000002.png,1,5,215,148,"[1, 0]",left,1,785,31,f,y,y,2019_Apr_29_1602,2AFC_task,59.933877469308115,
stimuli/rgb_scene000005_render000000.png,stimuli/rgb_scene000005_render000002.png,1,6,216,22,"[0, 1]",right,1,785,31,f,y,y,2019_Apr_29_1602,2AFC_task,59.933877469308115,
stimuli/rgb_scene000090_render000003.png,stimuli/rgb_scene000090_render000004.png,1,7,217,78,"[1, 0]",right,0,785,31,f,y,y,2019_Apr_29_1602,2AFC_task,59.933877469308115,
stimuli/rgb_scene000095_render000000.png,stimuli/rgb_scene000095_render000005.png,1,8,218,88,"[1, 0]",left,1,785,31,f,y,y,2019_Apr_29_1602,2AFC_task,59.933877469308115,
stimuli/rgb_scene000195_render000000.png,stimuli/rgb_scene000195_render000005.png,1,9,219,193,"[0, 1]",right,1,785,31,f,y,y,2019_Apr_29_1602,2AFC_task,59.933877469308115,
stimuli/rgb_scene000113_render000000.png,stimuli/rgb_scene000113_render000006.png,1,10,220,152,"[1, 0]",left,1,785,31,f,y,y,2019_Apr_29_1602,2AFC_task,59.933877469308115,
stimuli/rgb_scene000012_render000001.png,stimuli/rgb_scene000012_render000004.png,1,11,221,50,"[1, 0]",left,1,785,31,f,y,y,2019_Apr_29_1602,2AFC_task,59.933877469308115,
stimuli/rgb_scene000012_render000003.png,stimuli/rgb_scene000012_render000004.png,1,12,222,57,"[1, 0]",left,1,785,31,f,y,y,2019_Apr_29_1602,2AFC_task,59.933877469308115,
stimuli/rgb_scene000096_render000000.png,stimuli/rgb_scene000096_render000004.png,1,13,223,108,"[0, 1]",right,1,785,31,f,y,y,2019_Apr_29_1602,2AFC_task,59.933877469308115,
stimuli/rgb_scene000096_render000005.png,stimuli/rgb_scene000096_render000006.png,1,14,224,125,"[0, 1]",right,1,785,31,f,y,y,2019_Apr_29_1602,2AFC_task,59.933877469308115,
stimuli/rgb_scene000096_render000000.png,stimuli/rgb_scene000096_render000002.png,1,15,225,106,"[0, 1]",right,1,785,31,f,y,y,2019_Apr_29_1602,2AFC_task,59.933877469308115,
stimuli/rgb_scene000012_render000002.png,stimuli/rgb_scene000012_render000004.png,1,16,226,54,"[1, 0]",left,1,785,31,f,y,y,2019_Apr_29_1602,2AFC_task,59.933877469308115,
stimuli/rgb_scene000005_render000002.png,stimuli/rgb_scene000005_render000006.png,1,17,227,35,"[1, 0]",right,0,785,31,f,y,y,2019_Apr_29_1602,2AFC_task,59.933877469308115,
stimuli/rgb_scene000005_render000003.png,stimuli/rgb_scene000005_render000004.png,1,18,228,36,"[0, 1]",right,1,785,31,f,y,y,2019_Apr_29_1602,2AFC_task,59.933877469308115,
stimuli/rgb_scene000146_render000003.png,stimuli/rgb_scene000146_render000004.png,1,19,229,183,"[1, 0]",left,1,785,31,f,y,y,2019_Apr_29_1602,2AFC_task,59.933877469308115,
stimuli/rgb_scene000095_render000003.png,stimuli/rgb_scene000095_render000004.png,1,20,230,99,"[0, 1]",right,1,785,31,f,y,y,2019_Apr_29_1602,2AFC_task,59.933877469308115,
stimuli/rgb_scene000005_render000002.png,stimuli/rgb_scene000005_render000003.png,1,21,231,32,"[0, 1]",left,0,785,31,f,y,y,2019_Apr_29_1602,2AFC_task,59.933877469308115,
stimuli/rgb_scene000012_render000000.png,stimuli/rgb_scene000012_render000001.png,1,22,232,42,"[0, 1]",right,1,785,31,f,y,y,2019_Apr_29_1602,2AFC_task,59.933877469308115,
stimuli/rgb_scene000012_render000004.png,stimuli/rgb_scene000012_render000005.png,1,23,233,60,"[0, 1]",left,0,785,31,f,y,y,2019_Apr_29_1602,2AFC_task,59.933877469308115,
stimuli/rgb_scene000102_render000001.png,stimuli/rgb_scene000102_render000006.png,1,24,234,136,"[0, 1]",right,1,785,31,f,y,y,2019_Apr_29_1602,2AFC_task,59.933877469308115,
stimuli/rgb_scene000096_render000001.png,stimuli/rgb_scene000096_render000002.png,1,25,235,111,"[0, 1]",right,1,785,31,f,y,y,2019_Apr_29_1602,2AFC_task,59.933877469308115,
stimuli/rgb_scene000113_render000005.png,stimuli/rgb_scene000113_render000006.png,1,26,236,167,"[0, 1]",right,1,785,31,f,y,y,2019_Apr_29_1602,2AFC_task,59.933877469308115,
stimuli/rgb_scene000090_render000001.png,stimuli/rgb_scene000090_render000006.png,1,27,237,73,"[0, 1]",left,0,785,31,f,y,y,2019_Apr_29_1602,2AFC_task,59.933877469308115,
stimuli/rgb_scene000005_render000004.png,stimuli/rgb_scene000005_render000006.png,1,28,238,40,"[1, 0]",right,0,785,31,f,y,y,2019_Apr_29_1602,2AFC_task,59.933877469308115,
stimuli/rgb_scene000004_render000000.png,stimuli/rgb_scene000004_render000006.png,1,29,239,5,"[1, 0]",left,1,785,31,f,y,y,2019_Apr_29_1602,2AFC_task,59.933877469308115,
stimuli/rgb_scene000096_render000003.png,stimuli/rgb_scene000096_render000005.png,1,30,240,121,"[1, 0]",left,1,785,31,f,y,y,2019_Apr_29_1602,2AFC_task,59.933877469308115,
stimuli/rgb_scene000090_render000000.png,stimuli/rgb_scene000090_render000003.png,1,31,241,65,"[1, 0]",left,1,785,31,f,y,y,2019_Apr_29_1602,2AFC_task,59.933877469308115,
stimuli/rgb_scene000090_render000000.png,stimuli/rgb_scene000090_render000006.png,1,32,242,68,"[1, 0]",left,1,785,31,f,y,y,2019_Apr_29_1602,2AFC_task,59.933877469308115,
stimuli/rgb_scene000005_render000002.png,stimuli/rgb_scene000005_render000005.png,1,33,243,34,"[0, 1]",right,1,785,31,f,y,y,2019_Apr_29_1602,2AFC_task,59.933877469308115,
stimuli/rgb_scene000005_render000000.png,stimuli/rgb_scene000005_render000001.png,1,34,244,21,"[1, 0]",left,1,785,31,f,y,y,2019_Apr_29_1602,2AFC_task,59.933877469308115,
stimuli/rgb_scene000102_render000000.png,stimuli/rgb_scene000102_render000003.png,1,35,245,128,"[0, 1]",right,1,785,31,f,y,y,2019_Apr_29_1602,2AFC_task,59.933877469308115,
stimuli/rgb_scene000095_render000004.png,stimuli/rgb_scene000095_render000006.png,1,36,246,103,"[1, 0]",left,1,785,31,f,y,y,2019_Apr_29_1602,2AFC_task,59.933877469308115,
stimuli/rgb_scene000146_render000001.png,stimuli/rgb_scene000146_render000004.png,1,37,247,176,"[1, 0]",left,1,785,31,f,y,y,2019_Apr_29_1602,2AFC_task,59.933877469308115,
stimuli/rgb_scene000004_render000001.png,stimuli/rgb_scene000004_render000005.png,1,38,248,9,"[0, 1]",right,1,785,31,f,y,y,2019_Apr_29_1602,2AFC_task,59.933877469308115,
stimuli/rgb_scene000195_render000000.png,stimuli/rgb_scene000195_render000003.png,1,39,249,191,"[0, 1]",right,1,785,31,f,y,y,2019_Apr_29_1602,2AFC_task,59.933877469308115,
stimuli/rgb_scene000004_render000000.png,stimuli/rgb_scene000004_render000001.png,1,40,250,0,"[1, 0]",left,1,785,31,f,y,y,2019_Apr_29_1602,2AFC_task,59.933877469308115,
stimuli/rgb_scene000090_render000000.png,stimuli/rgb_scene000090_render000005.png,1,41,251,67,"[1, 0]",right,0,785,31,f,y,y,2019_Apr_29_1602,2AFC_task,59.933877469308115,
stimuli/rgb_scene000012_render000002.png,stimuli/rgb_scene000012_render000003.png,1,42,252,53,"[0, 1]",right,1,785,31,f,y,y,2019_Apr_29_1602,2AFC_task,59.933877469308115,
stimuli/rgb_scene000102_render000000.png,stimuli/rgb_scene000102_render000006.png,1,43,253,131,"[1, 0]",left,1,785,31,f,y,y,2019_Apr_29_1602,2AFC_task,59.933877469308115,
stimuli/rgb_scene000012_render000000.png,stimuli/rgb_scene000012_render000006.png,1,44,254,47,"[1, 0]",left,1,785,31,f,y,y,2019_Apr_29_1602,2AFC_task,59.933877469308115,
stimuli/rgb_scene000090_render000002.png,stimuli/rgb_scene000090_render000003.png,1,45,255,74,"[0, 1]",left,0,785,31,f,y,y,2019_Apr_29_1602,2AFC_task,59.933877469308115,
stimuli/rgb_scene000090_render000000.png,stimuli/rgb_scene000090_render000004.png,1,46,256,66,"[1, 0]",left,1,785,31,f,y,y,2019_Apr_29_1602,2AFC_task,59.933877469308115,
stimuli/rgb_scene000195_render000001.png,stimuli/rgb_scene000195_render000005.png,1,47,257,198,"[0, 1]",right,1,785,31,f,y,y,2019_Apr_29_1602,2AFC_task,59.933877469308115,
stimuli/rgb_scene000195_render000001.png,stimuli/rgb_scene000195_render000006.png,1,48,258,199,"[1, 0]",right,0,785,31,f,y,y,2019_Apr_29_1602,2AFC_task,59.933877469308115,
stimuli/rgb_scene000096_render000003.png,stimuli/rgb_scene000096_render000004.png,1,49,259,120,"[0, 1]",right,1,785,31,f,y,y,2019_Apr_29_1602,2AFC_task,59.933877469308115,
stimuli/rgb_scene000005_render000004.png,stimuli/rgb_scene000005_render000005.png,1,50,260,39,"[1, 0]",right,0,785,31,f,y,y,2019_Apr_29_1602,2AFC_task,59.933877469308115,
stimuli/rgb_scene000012_render000003.png,stimuli/rgb_scene000012_render000005.png,1,51,261,58,"[1, 0]",right,0,785,31,f,y,y,2019_Apr_29_1602,2AFC_task,59.933877469308115,
stimuli/rgb_scene000090_render000003.png,stimuli/rgb_scene000090_render000006.png,1,52,262,80,"[1, 0]",right,0,785,31,f,y,y,2019_Apr_29_1602,2AFC_task,59.933877469308115,
stimuli/rgb_scene000090_render000004.png,stimuli/rgb_scene000090_render000005.png,1,53,263,81,"[1, 0]",right,0,785,31,f,y,y,2019_Apr_29_1602,2AFC_task,59.933877469308115,
stimuli/rgb_scene000095_render000001.png,stimuli/rgb_scene000095_render000005.png,1,54,264,93,"[0, 1]",right,1,785,31,f,y,y,2019_Apr_29_1602,2AFC_task,59.933877469308115,
stimuli/rgb_scene000096_render000001.png,stimuli/rgb_scene000096_render000005.png,1,55,265,114,"[0, 1]",right,1,785,31,f,y,y,2019_Apr_29_1602,2AFC_task,59.933877469308115,
stimuli/rgb_scene000095_render000003.png,stimuli/rgb_scene000095_render000005.png,1,56,266,100,"[0, 1]",right,1,785,31,f,y,y,2019_Apr_29_1602,2AFC_task,59.933877469308115,
stimuli/rgb_scene000102_render000004.png,stimuli/rgb_scene000102_render000006.png,1,57,267,145,"[0, 1]",left,0,785,31,f,y,y,2019_Apr_29_1602,2AFC_task,59.933877469308115,
stimuli/rgb_scene000095_render000003.png,stimuli/rgb_scene000095_render000006.png,1,58,268,101,"[1, 0]",left,1,785,31,f,y,y,2019_Apr_29_1602,2AFC_task,59.933877469308115,
stimuli/rgb_scene000195_render000005.png,stimuli/rgb_scene000195_render000006.png,1,59,269,209,"[1, 0]",right,0,785,31,f,y,y,2019_Apr_29_1602,2AFC_task,59.933877469308115,
stimuli/rgb_scene000012_render000005.png,stimuli/rgb_scene000012_render000006.png,1,60,270,62,"[0, 1]",left,0,785,31,f,y,y,2019_Apr_29_1602,2AFC_task,59.933877469308115,
stimuli/rgb_scene000090_render000004.png,stimuli/rgb_scene000090_render000006.png,1,61,271,82,"[1, 0]",right,0,785,31,f,y,y,2019_Apr_29_1602,2AFC_task,59.933877469308115,
stimuli/rgb_scene000113_render000000.png,stimuli/rgb_scene000113_render000001.png,1,62,272,147,"[1, 0]",left,1,785,31,f,y,y,2019_Apr_29_1602,2AFC_task,59.933877469308115,
stimuli/rgb_scene000090_render000002.png,stimuli/rgb_scene000090_render000006.png,1,63,273,77,"[1, 0]",left,1,785,31,f,y,y,2019_Apr_29_1602,2AFC_task,59.933877469308115,
stimuli/rgb_scene000004_render000005.png,stimuli/rgb_scene000004_render000006.png,1,64,274,20,"[0, 1]",left,0,785,31,f,y,y,2019_Apr_29_1602,2AFC_task,59.933877469308115,
stimuli/rgb_scene000004_render000003.png,stimuli/rgb_scene000004_render000004.png,1,65,275,15,"[0, 1]",right,1,785,31,f,y,y,2019_Apr_29_1602,2AFC_task,59.933877469308115,
stimuli/rgb_scene000113_render000000.png,stimuli/rgb_scene000113_render000003.png,1,66,276,149,"[0, 1]",right,1,785,31,f,y,y,2019_Apr_29_1602,2AFC_task,59.933877469308115,
stimuli/rgb_scene000195_render000004.png,stimuli/rgb_scene000195_render000005.png,1,67,277,207,"[1, 0]",right,0,785,31,f,y,y,2019_Apr_29_1602,2AFC_task,59.933877469308115,
stimuli/rgb_scene000113_render000003.png,stimuli/rgb_scene000113_render000006.png,1,68,278,164,"[0, 1]",left,0,785,31,f,y,y,2019_Apr_29_1602,2AFC_task,59.933877469308115,
stimuli/rgb_scene000195_render000002.png,stimuli/rgb_scene000195_render000005.png,1,69,279,202,"[0, 1]",right,1,785,31,f,y,y,2019_Apr_29_1602,2AFC_task,59.933877469308115,
stimuli/rgb_scene000146_render000002.png,stimuli/rgb_scene000146_render000003.png,1,70,280,179,"[0, 1]",right,1,785,31,f,y,y,2019_Apr_29_1602,2AFC_task,59.933877469308115,
stimuli/rgb_scene000004_render000003.png,stimuli/rgb_scene000004_render000006.png,1,71,281,17,"[0, 1]",right,1,785,31,f,y,y,2019_Apr_29_1602,2AFC_task,59.933877469308115,
stimuli/rgb_scene000146_render000004.png,stimuli/rgb_scene000146_render000006.png,1,72,282,187,"[0, 1]",right,1,785,31,f,y,y,2019_Apr_29_1602,2AFC_task,59.933877469308115,
stimuli/rgb_scene000005_render000000.png,stimuli/rgb_scene000005_render000003.png,1,73,283,23,"[0, 1]",right,1,785,31,f,y,y,2019_Apr_29_1602,2AFC_task,59.933877469308115,
stimuli/rgb_scene000095_render000002.png,stimuli/rgb_scene000095_render000005.png,1,74,284,97,"[1, 0]",left,1,785,31,f,y,y,2019_Apr_29_1602,2AFC_task,59.933877469308115,
stimuli/rgb_scene000146_render000000.png,stimuli/rgb_scene000146_render000005.png,1,75,285,172,"[0, 1]",right,1,785,31,f,y,y,2019_Apr_29_1602,2AFC_task,59.933877469308115,
stimuli/rgb_scene000195_render000000.png,stimuli/rgb_scene000195_render000001.png,1,76,286,189,"[1, 0]",left,1,785,31,f,y,y,2019_Apr_29_1602,2AFC_task,59.933877469308115,
stimuli/rgb_scene000102_render000001.png,stimuli/rgb_scene000102_render000003.png,1,77,287,133,"[1, 0]",left,1,785,31,f,y,y,2019_Apr_29_1602,2AFC_task,59.933877469308115,
stimuli/rgb_scene000095_render000001.png,stimuli/rgb_scene000095_render000003.png,1,78,288,91,"[0, 1]",right,1,785,31,f,y,y,2019_Apr_29_1602,2AFC_task,59.933877469308115,
stimuli/rgb_scene000113_render000000.png,stimuli/rgb_scene000113_render000004.png,1,79,289,150,"[0, 1]",right,1,785,31,f,y,y,2019_Apr_29_1602,2AFC_task,59.933877469308115,
stimuli/rgb_scene000113_render000002.png,stimuli/rgb_scene000113_render000003.png,1,80,290,158,"[1, 0]",left,1,785,31,f,y,y,2019_Apr_29_1602,2AFC_task,59.933877469308115,
stimuli/rgb_scene000096_render000004.png,stimuli/rgb_scene000096_render000006.png,1,81,291,124,"[1, 0]",left,1,785,31,f,y,y,2019_Apr_29_1602,2AFC_task,59.933877469308115,
stimuli/rgb_scene000113_render000001.png,stimuli/rgb_scene000113_render000002.png,1,82,292,153,"[0, 1]",right,1,785,31,f,y,y,2019_Apr_29_1602,2AFC_task,59.933877469308115,
stimuli/rgb_scene000012_render000004.png,stimuli/rgb_scene000012_render000006.png,1,83,293,61,"[1, 0]",right,0,785,31,f,y,y,2019_Apr_29_1602,2AFC_task,59.933877469308115,
stimuli/rgb_scene000096_render000000.png,stimuli/rgb_scene000096_render000001.png,1,84,294,105,"[1, 0]",left,1,785,31,f,y,y,2019_Apr_29_1602,2AFC_task,59.933877469308115,
stimuli/rgb_scene000005_render000000.png,stimuli/rgb_scene000005_render000005.png,1,85,295,25,"[0, 1]",right,1,785,31,f,y,y,2019_Apr_29_1602,2AFC_task,59.933877469308115,
stimuli/rgb_scene000146_render000000.png,stimuli/rgb_scene000146_render000002.png,1,86,296,169,"[0, 1]",right,1,785,31,f,y,y,2019_Apr_29_1602,2AFC_task,59.933877469308115,
stimuli/rgb_scene000195_render000003.png,stimuli/rgb_scene000195_render000006.png,1,87,297,206,"[1, 0]",right,0,785,31,f,y,y,2019_Apr_29_1602,2AFC_task,59.933877469308115,
stimuli/rgb_scene000004_render000001.png,stimuli/rgb_scene000004_render000003.png,1,88,298,7,"[0, 1]",right,1,785,31,f,y,y,2019_Apr_29_1602,2AFC_task,59.933877469308115,
stimuli/rgb_scene000095_render000002.png,stimuli/rgb_scene000095_render000006.png,1,89,299,98,"[1, 0]",left,1,785,31,f,y,y,2019_Apr_29_1602,2AFC_task,59.933877469308115,
stimuli/rgb_scene000146_render000002.png,stimuli/rgb_scene000146_render000006.png,1,90,300,182,"[1, 0]",left,1,785,31,f,y,y,2019_Apr_29_1602,2AFC_task,59.933877469308115,
stimuli/rgb_scene000096_render000003.png,stimuli/rgb_scene000096_render000006.png,1,91,301,122,"[1, 0]",right,0,785,31,f,y,y,2019_Apr_29_1602,2AFC_task,59.933877469308115,
stimuli/rgb_scene000090_render000001.png,stimuli/rgb_scene000090_render000003.png,1,92,302,70,"[0, 1]",right,1,785,31,f,y,y,2019_Apr_29_1602,2AFC_task,59.933877469308115,
stimuli/rgb_scene000004_render000002.png,stimuli/rgb_scene000004_render000005.png,1,93,303,13,"[1, 0]",left,1,785,31,f,y,y,2019_Apr_29_1602,2AFC_task,59.933877469308115,
stimuli/rgb_scene000146_render000001.png,stimuli/rgb_scene000146_render000006.png,1,94,304,178,"[0, 1]",right,1,785,31,f,y,y,2019_Apr_29_1602,2AFC_task,59.933877469308115,
stimuli/rgb_scene000102_render000005.png,stimuli/rgb_scene000102_render000006.png,1,95,305,146,"[1, 0]",right,0,785,31,f,y,y,2019_Apr_29_1602,2AFC_task,59.933877469308115,
stimuli/rgb_scene000113_render000001.png,stimuli/rgb_scene000113_render000006.png,1,96,306,157,"[1, 0]",left,1,785,31,f,y,y,2019_Apr_29_1602,2AFC_task,59.933877469308115,
stimuli/rgb_scene000004_render000002.png,stimuli/rgb_scene000004_render000004.png,1,97,307,12,"[1, 0]",left,1,785,31,f,y,y,2019_Apr_29_1602,2AFC_task,59.933877469308115,
stimuli/rgb_scene000095_render000000.png,stimuli/rgb_scene000095_render000004.png,1,98,308,87,"[0, 1]",right,1,785,31,f,y,y,2019_Apr_29_1602,2AFC_task,59.933877469308115,
stimuli/rgb_scene000005_render000003.png,stimuli/rgb_scene000005_render000005.png,1,99,309,37,"[0, 1]",left,0,785,31,f,y,y,2019_Apr_29_1602,2AFC_task,59.933877469308115,
stimuli/rgb_scene000102_render000002.png,stimuli/rgb_scene000102_render000006.png,1,100,310,140,"[1, 0]",right,0,785,31,f,y,y,2019_Apr_29_1602,2AFC_task,59.933877469308115,
stimuli/rgb_scene000005_render000002.png,stimuli/rgb_scene000005_render000004.png,1,101,311,33,"[1, 0]",left,1,785,31,f,y,y,2019_Apr_29_1602,2AFC_task,59.933877469308115,
stimuli/rgb_scene000113_render000002.png,stimuli/rgb_scene000113_render000005.png,1,102,312,160,"[1, 0]",left,1,785,31,f,y,y,2019_Apr_29_1602,2AFC_task,59.933877469308115,
stimuli/rgb_scene000113_render000001.png,stimuli/rgb_scene000113_render000004.png,1,103,313,155,"[0, 1]",right,1,785,31,f,y,y,2019_Apr_29_1602,2AFC_task,59.933877469308115,
stimuli/rgb_scene000113_render000003.png,stimuli/rgb_scene000113_render000005.png,1,104,314,163,"[0, 1]",right,1,785,31,f,y,y,2019_Apr_29_1602,2AFC_task,59.933877469308115,
stimuli/rgb_scene000195_render000001.png,stimuli/rgb_scene000195_render000002.png,1,105,315,195,"[0, 1]",right,1,785,31,f,y,y,2019_Apr_29_1602,2AFC_task,59.933877469308115,
stimuli/rgb_scene000095_render000000.png,stimuli/rgb_scene000095_render000006.png,1,106,316,89,"[1, 0]",left,1,785,31,f,y,y,2019_Apr_29_1602,2AFC_task,59.933877469308115,
stimuli/rgb_scene000113_render000002.png,stimuli/rgb_scene000113_render000004.png,1,107,317,159,"[1, 0]",left,1,785,31,f,y,y,2019_Apr_29_1602,2AFC_task,59.933877469308115,
stimuli/rgb_scene000004_render000000.png,stimuli/rgb_scene000004_render000005.png,1,108,318,4,"[1, 0]",left,1,785,31,f,y,y,2019_Apr_29_1602,2AFC_task,59.933877469308115,
stimuli/rgb_scene000195_render000002.png,stimuli/rgb_scene000195_render000003.png,1,109,319,200,"[1, 0]",left,1,785,31,f,y,y,2019_Apr_29_1602,2AFC_task,59.933877469308115,
stimuli/rgb_scene000090_render000005.png,stimuli/rgb_scene000090_render000006.png,1,110,320,83,"[0, 1]",left,0,785,31,f,y,y,2019_Apr_29_1602,2AFC_task,59.933877469308115,
stimuli/rgb_scene000113_render000004.png,stimuli/rgb_scene000113_render000006.png,1,111,321,166,"[1, 0]",right,0,785,31,f,y,y,2019_Apr_29_1602,2AFC_task,59.933877469308115,
stimuli/rgb_scene000102_render000001.png,stimuli/rgb_scene000102_render000004.png,1,112,322,134,"[1, 0]",left,1,785,31,f,y,y,2019_Apr_29_1602,2AFC_task,59.933877469308115,
stimuli/rgb_scene000096_render000002.png,stimuli/rgb_scene000096_render000006.png,1,113,323,119,"[0, 1]",right,1,785,31,f,y,y,2019_Apr_29_1602,2AFC_task,59.933877469308115,
stimuli/rgb_scene000146_render000005.png,stimuli/rgb_scene000146_render000006.png,1,114,324,188,"[1, 0]",left,1,785,31,f,y,y,2019_Apr_29_1602,2AFC_task,59.933877469308115,
stimuli/rgb_scene000113_render000001.png,stimuli/rgb_scene000113_render000005.png,1,115,325,156,"[1, 0]",left,1,785,31,f,y,y,2019_Apr_29_1602,2AFC_task,59.933877469308115,
stimuli/rgb_scene000095_render000000.png,stimuli/rgb_scene000095_render000003.png,1,116,326,86,"[1, 0]",left,1,785,31,f,y,y,2019_Apr_29_1602,2AFC_task,59.933877469308115,
stimuli/rgb_scene000096_render000002.png,stimuli/rgb_scene000096_render000003.png,1,117,327,116,"[1, 0]",left,1,785,31,f,y,y,2019_Apr_29_1602,2AFC_task,59.933877469308115,
stimuli/rgb_scene000146_render000002.png,stimuli/rgb_scene000146_render000004.png,1,118,328,180,"[1, 0]",left,1,785,31,f,y,y,2019_Apr_29_1602,2AFC_task,59.933877469308115,
stimuli/rgb_scene000195_render000003.png,stimuli/rgb_scene000195_render000005.png,1,119,329,205,"[0, 1]",left,0,785,31,f,y,y,2019_Apr_29_1602,2AFC_task,59.933877469308115,
stimuli/rgb_scene000005_render000000.png,stimuli/rgb_scene000005_render000004.png,1,120,330,24,"[0, 1]",right,1,785,31,f,y,y,2019_Apr_29_1602,2AFC_task,59.933877469308115,
stimuli/rgb_scene000012_render000003.png,stimuli/rgb_scene000012_render000006.png,1,121,331,59,"[0, 1]",right,1,785,31,f,y,y,2019_Apr_29_1602,2AFC_task,59.933877469308115,
stimuli/rgb_scene000096_render000001.png,stimuli/rgb_scene000096_render000006.png,1,122,332,115,"[0, 1]",right,1,785,31,f,y,y,2019_Apr_29_1602,2AFC_task,59.933877469308115,
stimuli/rgb_scene000195_render000002.png,stimuli/rgb_scene000195_render000006.png,1,123,333,203,"[1, 0]",left,1,785,31,f,y,y,2019_Apr_29_1602,2AFC_task,59.933877469308115,
stimuli/rgb_scene000005_render000005.png,stimuli/rgb_scene000005_render000006.png,1,124,334,41,"[1, 0]",right,0,785,31,f,y,y,2019_Apr_29_1602,2AFC_task,59.933877469308115,
stimuli/rgb_scene000146_render000000.png,stimuli/rgb_scene000146_render000001.png,1,125,335,168,"[0, 1]",right,1,785,31,f,y,y,2019_Apr_29_1602,2AFC_task,59.933877469308115,
stimuli/rgb_scene000004_render000001.png,stimuli/rgb_scene000004_render000004.png,1,126,336,8,"[1, 0]",left,1,785,31,f,y,y,2019_Apr_29_1602,2AFC_task,59.933877469308115,
stimuli/rgb_scene000012_render000001.png,stimuli/rgb_scene000012_render000003.png,1,127,337,49,"[1, 0]",right,0,785,31,f,y,y,2019_Apr_29_1602,2AFC_task,59.933877469308115,
stimuli/rgb_scene000113_render000004.png,stimuli/rgb_scene000113_render000005.png,1,128,338,165,"[1, 0]",left,1,785,31,f,y,y,2019_Apr_29_1602,2AFC_task,59.933877469308115,
stimuli/rgb_scene000146_render000000.png,stimuli/rgb_scene000146_render000003.png,1,129,339,170,"[0, 1]",right,1,785,31,f,y,y,2019_Apr_29_1602,2AFC_task,59.933877469308115,
stimuli/rgb_scene000090_render000000.png,stimuli/rgb_scene000090_render000001.png,1,130,340,63,"[1, 0]",right,0,785,31,f,y,y,2019_Apr_29_1602,2AFC_task,59.933877469308115,
stimuli/rgb_scene000113_render000002.png,stimuli/rgb_scene000113_render000006.png,1,131,341,161,"[0, 1]",right,1,785,31,f,y,y,2019_Apr_29_1602,2AFC_task,59.933877469308115,
stimuli/rgb_scene000090_render000002.png,stimuli/rgb_scene000090_render000004.png,1,132,342,75,"[1, 0]",left,1,785,31,f,y,y,2019_Apr_29_1602,2AFC_task,59.933877469308115,
stimuli/rgb_scene000102_render000003.png,stimuli/rgb_scene000102_render000006.png,1,133,343,143,"[0, 1]",right,1,785,31,f,y,y,2019_Apr_29_1602,2AFC_task,59.933877469308115,
stimuli/rgb_scene000005_render000001.png,stimuli/rgb_scene000005_render000002.png,1,134,344,27,"[1, 0]",left,1,785,31,f,y,y,2019_Apr_29_1602,2AFC_task,59.933877469308115,
stimuli/rgb_scene000004_render000001.png,stimuli/rgb_scene000004_render000006.png,1,135,345,10,"[1, 0]",left,1,785,31,f,y,y,2019_Apr_29_1602,2AFC_task,59.933877469308115,
stimuli/rgb_scene000012_render000001.png,stimuli/rgb_scene000012_render000002.png,1,136,346,48,"[1, 0]",left,1,785,31,f,y,y,2019_Apr_29_1602,2AFC_task,59.933877469308115,
stimuli/rgb_scene000095_render000005.png,stimuli/rgb_scene000095_render000006.png,1,137,347,104,"[0, 1]",left,0,785,31,f,y,y,2019_Apr_29_1602,2AFC_task,59.933877469308115,
stimuli/rgb_scene000096_render000001.png,stimuli/rgb_scene000096_render000003.png,1,138,348,112,"[0, 1]",right,1,785,31,f,y,y,2019_Apr_29_1602,2AFC_task,59.933877469308115,
stimuli/rgb_scene000090_render000001.png,stimuli/rgb_scene000090_render000004.png,1,139,349,71,"[1, 0]",left,1,785,31,f,y,y,2019_Apr_29_1602,2AFC_task,59.933877469308115,
stimuli/rgb_scene000090_render000001.png,stimuli/rgb_scene000090_render000002.png,1,140,350,69,"[1, 0]",right,0,785,31,f,y,y,2019_Apr_29_1602,2AFC_task,59.933877469308115,
stimuli/rgb_scene000012_render000001.png,stimuli/rgb_scene000012_render000006.png,1,141,351,52,"[1, 0]",left,1,785,31,f,y,y,2019_Apr_29_1602,2AFC_task,59.933877469308115,
stimuli/rgb_scene000113_render000003.png,stimuli/rgb_scene000113_render000004.png,1,142,352,162,"[1, 0]",left,1,785,31,f,y,y,2019_Apr_29_1602,2AFC_task,59.933877469308115,
stimuli/rgb_scene000195_render000000.png,stimuli/rgb_scene000195_render000004.png,1,143,353,192,"[1, 0]",left,1,785,31,f,y,y,2019_Apr_29_1602,2AFC_task,59.933877469308115,
stimuli/rgb_scene000095_render000001.png,stimuli/rgb_scene000095_render000004.png,1,144,354,92,"[1, 0]",left,1,785,31,f,y,y,2019_Apr_29_1602,2AFC_task,59.933877469308115,
stimuli/rgb_scene000146_render000003.png,stimuli/rgb_scene000146_render000005.png,1,145,355,184,"[1, 0]",left,1,785,31,f,y,y,2019_Apr_29_1602,2AFC_task,59.933877469308115,
stimuli/rgb_scene000113_render000001.png,stimuli/rgb_scene000113_render000003.png,1,146,356,154,"[0, 1]",right,1,785,31,f,y,y,2019_Apr_29_1602,2AFC_task,59.933877469308115,
stimuli/rgb_scene000005_render000000.png,stimuli/rgb_scene000005_render000006.png,1,147,357,26,"[0, 1]",right,1,785,31,f,y,y,2019_Apr_29_1602,2AFC_task,59.933877469308115,
stimuli/rgb_scene000095_render000002.png,stimuli/rgb_scene000095_render000003.png,1,148,358,95,"[0, 1]",right,1,785,31,f,y,y,2019_Apr_29_1602,2AFC_task,59.933877469308115,
stimuli/rgb_scene000195_render000000.png,stimuli/rgb_scene000195_render000002.png,1,149,359,190,"[0, 1]",right,1,785,31,f,y,y,2019_Apr_29_1602,2AFC_task,59.933877469308115,
stimuli/rgb_scene000102_render000001.png,stimuli/rgb_scene000102_render000005.png,1,150,360,135,"[0, 1]",right,1,785,31,f,y,y,2019_Apr_29_1602,2AFC_task,59.933877469308115,
stimuli/rgb_scene000090_render000002.png,stimuli/rgb_scene000090_render000005.png,1,151,361,76,"[1, 0]",right,0,785,31,f,y,y,2019_Apr_29_1602,2AFC_task,59.933877469308115,
stimuli/rgb_scene000095_render000004.png,stimuli/rgb_scene000095_render000005.png,1,152,362,102,"[0, 1]",right,1,785,31,f,y,y,2019_Apr_29_1602,2AFC_task,59.933877469308115,
stimuli/rgb_scene000012_render000002.png,stimuli/rgb_scene000012_render000005.png,1,153,363,55,"[0, 1]",right,1,785,31,f,y,y,2019_Apr_29_1602,2AFC_task,59.933877469308115,
stimuli/rgb_scene000102_render000001.png,stimuli/rgb_scene000102_render000002.png,1,154,364,132,"[1, 0]",left,1,785,31,f,y,y,2019_Apr_29_1602,2AFC_task,59.933877469308115,
stimuli/rgb_scene000005_render000001.png,stimuli/rgb_scene000005_render000006.png,1,155,365,31,"[0, 1]",right,1,785,31,f,y,y,2019_Apr_29_1602,2AFC_task,59.933877469308115,
stimuli/rgb_scene000096_render000002.png,stimuli/rgb_scene000096_render000004.png,1,156,366,117,"[0, 1]",right,1,785,31,f,y,y,2019_Apr_29_1602,2AFC_task,59.933877469308115,
stimuli/rgb_scene000146_render000000.png,stimuli/rgb_scene000146_render000006.png,1,157,367,173,"[0, 1]",right,1,785,31,f,y,y,2019_Apr_29_1602,2AFC_task,59.933877469308115,
stimuli/rgb_scene000090_render000001.png,stimuli/rgb_scene000090_render000005.png,1,158,368,72,"[0, 1]",right,1,785,31,f,y,y,2019_Apr_29_1602,2AFC_task,59.933877469308115,
stimuli/rgb_scene000012_render000000.png,stimuli/rgb_scene000012_render000004.png,1,159,369,45,"[0, 1]",right,1,785,31,f,y,y,2019_Apr_29_1602,2AFC_task,59.933877469308115,
stimuli/rgb_scene000004_render000004.png,stimuli/rgb_scene000004_render000005.png,1,160,370,18,"[0, 1]",right,1,785,31,f,y,y,2019_Apr_29_1602,2AFC_task,59.933877469308115,
stimuli/rgb_scene000195_render000001.png,stimuli/rgb_scene000195_render000003.png,1,161,371,196,"[0, 1]",right,1,785,31,f,y,y,2019_Apr_29_1602,2AFC_task,59.933877469308115,
stimuli/rgb_scene000146_render000003.png,stimuli/rgb_scene000146_render000006.png,1,162,372,185,"[0, 1]",right,1,785,31,f,y,y,2019_Apr_29_1602,2AFC_task,59.933877469308115,
stimuli/rgb_scene000095_render000000.png,stimuli/rgb_scene000095_render000001.png,1,163,373,84,"[1, 0]",left,1,785,31,f,y,y,2019_Apr_29_1602,2AFC_task,59.933877469308115,
stimuli/rgb_scene000095_render000001.png,stimuli/rgb_scene000095_render000002.png,1,164,374,90,"[0, 1]",right,1,785,31,f,y,y,2019_Apr_29_1602,2AFC_task,59.933877469308115,
stimuli/rgb_scene000113_render000000.png,stimuli/rgb_scene000113_render000005.png,1,165,375,151,"[1, 0]",left,1,785,31,f,y,y,2019_Apr_29_1602,2AFC_task,59.933877469308115,
stimuli/rgb_scene000004_render000000.png,stimuli/rgb_scene000004_render000002.png,1,166,376,1,"[1, 0]",left,1,785,31,f,y,y,2019_Apr_29_1602,2AFC_task,59.933877469308115,
stimuli/rgb_scene000146_render000001.png,stimuli/rgb_scene000146_render000005.png,1,167,377,177,"[1, 0]",left,1,785,31,f,y,y,2019_Apr_29_1602,2AFC_task,59.933877469308115,
stimuli/rgb_scene000095_render000001.png,stimuli/rgb_scene000095_render000006.png,1,168,378,94,"[0, 1]",right,1,785,31,f,y,y,2019_Apr_29_1602,2AFC_task,59.933877469308115,
stimuli/rgb_scene000146_render000001.png,stimuli/rgb_scene000146_render000003.png,1,169,379,175,"[1, 0]",left,1,785,31,f,y,y,2019_Apr_29_1602,2AFC_task,59.933877469308115,
stimuli/rgb_scene000095_render000002.png,stimuli/rgb_scene000095_render000004.png,1,170,380,96,"[0, 1]",right,1,785,31,f,y,y,2019_Apr_29_1602,2AFC_task,59.933877469308115,
stimuli/rgb_scene000012_render000000.png,stimuli/rgb_scene000012_render000002.png,1,171,381,43,"[0, 1]",right,1,785,31,f,y,y,2019_Apr_29_1602,2AFC_task,59.933877469308115,
stimuli/rgb_scene000146_render000004.png,stimuli/rgb_scene000146_render000005.png,1,172,382,186,"[1, 0]",right,0,785,31,f,y,y,2019_Apr_29_1602,2AFC_task,59.933877469308115,
stimuli/rgb_scene000004_render000002.png,stimuli/rgb_scene000004_render000006.png,1,173,383,14,"[1, 0]",left,1,785,31,f,y,y,2019_Apr_29_1602,2AFC_task,59.933877469308115,
stimuli/rgb_scene000012_render000000.png,stimuli/rgb_scene000012_render000003.png,1,174,384,44,"[1, 0]",left,1,785,31,f,y,y,2019_Apr_29_1602,2AFC_task,59.933877469308115,
stimuli/rgb_scene000102_render000004.png,stimuli/rgb_scene000102_render000005.png,1,175,385,144,"[1, 0]",right,0,785,31,f,y,y,2019_Apr_29_1602,2AFC_task,59.933877469308115,
stimuli/rgb_scene000146_render000001.png,stimuli/rgb_scene000146_render000002.png,1,176,386,174,"[0, 1]",right,1,785,31,f,y,y,2019_Apr_29_1602,2AFC_task,59.933877469308115,
stimuli/rgb_scene000004_render000001.png,stimuli/rgb_scene000004_render000002.png,1,177,387,6,"[1, 0]",left,1,785,31,f,y,y,2019_Apr_29_1602,2AFC_task,59.933877469308115,
stimuli/rgb_scene000012_render000001.png,stimuli/rgb_scene000012_render000005.png,1,178,388,51,"[1, 0]",left,1,785,31,f,y,y,2019_Apr_29_1602,2AFC_task,59.933877469308115,
stimuli/rgb_scene000195_render000000.png,stimuli/rgb_scene000195_render000006.png,1,179,389,194,"[1, 0]",left,1,785,31,f,y,y,2019_Apr_29_1602,2AFC_task,59.933877469308115,
stimuli/rgb_scene000195_render000003.png,stimuli/rgb_scene000195_render000004.png,1,180,390,204,"[0, 1]",right,1,785,31,f,y,y,2019_Apr_29_1602,2AFC_task,59.933877469308115,
stimuli/rgb_scene000005_render000001.png,stimuli/rgb_scene000005_render000003.png,1,181,391,28,"[0, 1]",right,1,785,31,f,y,y,2019_Apr_29_1602,2AFC_task,59.933877469308115,
stimuli/rgb_scene000012_render000002.png,stimuli/rgb_scene000012_render000006.png,1,182,392,56,"[1, 0]",right,0,785,31,f,y,y,2019_Apr_29_1602,2AFC_task,59.933877469308115,
stimuli/rgb_scene000004_render000000.png,stimuli/rgb_scene000004_render000004.png,1,183,393,3,"[1, 0]",left,1,785,31,f,y,y,2019_Apr_29_1602,2AFC_task,59.933877469308115,
stimuli/rgb_scene000102_render000003.png,stimuli/rgb_scene000102_render000004.png,1,184,394,141,"[1, 0]",left,1,785,31,f,y,y,2019_Apr_29_1602,2AFC_task,59.933877469308115,
stimuli/rgb_scene000004_render000002.png,stimuli/rgb_scene000004_render000003.png,1,185,395,11,"[1, 0]",left,1,785,31,f,y,y,2019_Apr_29_1602,2AFC_task,59.933877469308115,
stimuli/rgb_scene000102_render000002.png,stimuli/rgb_scene000102_render000004.png,1,186,396,138,"[1, 0]",left,1,785,31,f,y,y,2019_Apr_29_1602,2AFC_task,59.933877469308115,
stimuli/rgb_scene000102_render000003.png,stimuli/rgb_scene000102_render000005.png,1,187,397,142,"[1, 0]",right,0,785,31,f,y,y,2019_Apr_29_1602,2AFC_task,59.933877469308115,
stimuli/rgb_scene000096_render000000.png,stimuli/rgb_scene000096_render000003.png,1,188,398,107,"[1, 0]",left,1,785,31,f,y,y,2019_Apr_29_1602,2AFC_task,59.933877469308115,
stimuli/rgb_scene000095_render000000.png,stimuli/rgb_scene000095_render000002.png,1,189,399,85,"[1, 0]",left,1,785,31,f,y,y,2019_Apr_29_1602,2AFC_task,59.933877469308115,
stimuli/rgb_scene000102_render000000.png,stimuli/rgb_scene000102_render000002.png,1,190,400,127,"[1, 0]",left,1,785,31,f,y,y,2019_Apr_29_1602,2AFC_task,59.933877469308115,
stimuli/rgb_scene000005_render000001.png,stimuli/rgb_scene000005_render000005.png,1,191,401,30,"[0, 1]",right,1,785,31,f,y,y,2019_Apr_29_1602,2AFC_task,59.933877469308115,
stimuli/rgb_scene000004_render000000.png,stimuli/rgb_scene000004_render000003.png,1,192,402,2,"[1, 0]",left,1,785,31,f,y,y,2019_Apr_29_1602,2AFC_task,59.933877469308115,
stimuli/rgb_scene000102_render000000.png,stimuli/rgb_scene000102_render000001.png,1,193,403,126,"[1, 0]",left,1,785,31,f,y,y,2019_Apr_29_1602,2AFC_task,59.933877469308115,
stimuli/rgb_scene000195_render000002.png,stimuli/rgb_scene000195_render000004.png,1,194,404,201,"[1, 0]",left,1,785,31,f,y,y,2019_Apr_29_1602,2AFC_task,59.933877469308115,
stimuli/rgb_scene000005_render000001.png,stimuli/rgb_scene000005_render000004.png,1,195,405,29,"[0, 1]",right,1,785,31,f,y,y,2019_Apr_29_1602,2AFC_task,59.933877469308115,
stimuli/rgb_scene000096_render000004.png,stimuli/rgb_scene000096_render000005.png,1,196,406,123,"[1, 0]",left,1,785,31,f,y,y,2019_Apr_29_1602,2AFC_task,59.933877469308115,
stimuli/rgb_scene000146_render000000.png,stimuli/rgb_scene000146_render000004.png,1,197,407,171,"[1, 0]",left,1,785,31,f,y,y,2019_Apr_29_1602,2AFC_task,59.933877469308115,
stimuli/rgb_scene000102_render000000.png,stimuli/rgb_scene000102_render000005.png,1,198,408,130,"[0, 1]",right,1,785,31,f,y,y,2019_Apr_29_1602,2AFC_task,59.933877469308115,
stimuli/rgb_scene000096_render000002.png,stimuli/rgb_scene000096_render000005.png,1,199,409,118,"[0, 1]",right,1,785,31,f,y,y,2019_Apr_29_1602,2AFC_task,59.933877469308115,
stimuli/rgb_scene000102_render000000.png,stimuli/rgb_scene000102_render000004.png,1,200,410,129,"[1, 0]",left,1,785,31,f,y,y,2019_Apr_29_1602,2AFC_task,59.933877469308115,
stimuli/rgb_scene000090_render000003.png,stimuli/rgb_scene000090_render000005.png,1,201,411,79,"[1, 0]",right,0,785,31,f,y,y,2019_Apr_29_1602,2AFC_task,59.933877469308115,
stimuli/rgb_scene000012_render000000.png,stimuli/rgb_scene000012_render000005.png,1,202,412,46,"[1, 0]",left,1,785,31,f,y,y,2019_Apr_29_1602,2AFC_task,59.933877469308115,
stimuli/rgb_scene000102_render000002.png,stimuli/rgb_scene000102_render000005.png,1,203,413,139,"[1, 0]",left,1,785,31,f,y,y,2019_Apr_29_1602,2AFC_task,59.933877469308115,
stimuli/rgb_scene000005_render000003.png,stimuli/rgb_scene000005_render000006.png,1,204,414,38,"[1, 0]",right,0,785,31,f,y,y,2019_Apr_29_1602,2AFC_task,59.933877469308115,
stimuli/rgb_scene000004_render000003.png,stimuli/rgb_scene000004_render000005.png,1,205,415,16,"[1, 0]",left,1,785,31,f,y,y,2019_Apr_29_1602,2AFC_task,59.933877469308115,
stimuli/rgb_scene000096_render000001.png,stimuli/rgb_scene000096_render000004.png,1,206,416,113,"[0, 1]",right,1,785,31,f,y,y,2019_Apr_29_1602,2AFC_task,59.933877469308115,
stimuli/rgb_scene000195_render000004.png,stimuli/rgb_scene000195_render000006.png,1,207,417,208,"[1, 0]",right,0,785,31,f,y,y,2019_Apr_29_1602,2AFC_task,59.933877469308115,
stimuli/rgb_scene000004_render000004.png,stimuli/rgb_scene000004_render000006.png,1,208,418,19,"[1, 0]",right,0,785,31,f,y,y,2019_Apr_29_1602,2AFC_task,59.933877469308115,
stimuli/rgb_scene000102_render000002.png,stimuli/rgb_scene000102_render000003.png,1,209,419,137,"[1, 0]",left,1,785,31,f,y,y,2019_Apr_29_1602,2AFC_task,59.933877469308115,
