stimOne,stimTwo,trials_1.thisRepN,trials_1.thisTrialN,trials_1.thisN,trials_1.thisIndex,presentation_positions,resp_key,corresponding_image,participant ID (two digits, e.g. 01),age,gender (m/f/-),normal or corrected-to-normal vision (y/n),normal colour vision (y/n),date,expName,frameRate,
stimuli/rgb_scene000102_render000000.png,stimuli/rgb_scene000102_render000003.png,0,0,0,128,"[1, 0]",left,1,963,23,m,y,y,2019_May_02_1006,2AFC_task,59.9786055034218,
stimuli/rgb_scene000113_render000002.png,stimuli/rgb_scene000113_render000003.png,0,1,1,158,"[1, 0]",left,1,963,23,m,y,y,2019_May_02_1006,2AFC_task,59.9786055034218,
stimuli/rgb_scene000012_render000000.png,stimuli/rgb_scene000012_render000006.png,0,2,2,47,"[0, 1]",right,1,963,23,m,y,y,2019_May_02_1006,2AFC_task,59.9786055034218,
stimuli/rgb_scene000195_render000002.png,stimuli/rgb_scene000195_render000003.png,0,3,3,200,"[0, 1]",right,1,963,23,m,y,y,2019_May_02_1006,2AFC_task,59.9786055034218,
stimuli/rgb_scene000195_render000004.png,stimuli/rgb_scene000195_render000005.png,0,4,4,207,"[1, 0]",left,1,963,23,m,y,y,2019_May_02_1006,2AFC_task,59.9786055034218,
stimuli/rgb_scene000090_render000002.png,stimuli/rgb_scene000090_render000004.png,0,5,5,75,"[1, 0]",left,1,963,23,m,y,y,2019_May_02_1006,2AFC_task,59.9786055034218,
stimuli/rgb_scene000095_render000002.png,stimuli/rgb_scene000095_render000005.png,0,6,6,97,"[0, 1]",right,1,963,23,m,y,y,2019_May_02_1006,2AFC_task,59.9786055034218,
stimuli/rgb_scene000004_render000002.png,stimuli/rgb_scene000004_render000004.png,0,7,7,12,"[1, 0]",left,1,963,23,m,y,y,2019_May_02_1006,2AFC_task,59.9786055034218,
stimuli/rgb_scene000113_render000005.png,stimuli/rgb_scene000113_render000006.png,0,8,8,167,"[1, 0]",left,1,963,23,m,y,y,2019_May_02_1006,2AFC_task,59.9786055034218,
stimuli/rgb_scene000095_render000005.png,stimuli/rgb_scene000095_render000006.png,0,9,9,104,"[0, 1]",right,1,963,23,m,y,y,2019_May_02_1006,2AFC_task,59.9786055034218,
stimuli/rgb_scene000090_render000002.png,stimuli/rgb_scene000090_render000005.png,0,10,10,76,"[1, 0]",left,1,963,23,m,y,y,2019_May_02_1006,2AFC_task,59.9786055034218,
stimuli/rgb_scene000012_render000001.png,stimuli/rgb_scene000012_render000005.png,0,11,11,51,"[1, 0]",left,1,963,23,m,y,y,2019_May_02_1006,2AFC_task,59.9786055034218,
stimuli/rgb_scene000113_render000000.png,stimuli/rgb_scene000113_render000005.png,0,12,12,151,"[0, 1]",right,1,963,23,m,y,y,2019_May_02_1006,2AFC_task,59.9786055034218,
stimuli/rgb_scene000096_render000000.png,stimuli/rgb_scene000096_render000005.png,0,13,13,109,"[0, 1]",right,1,963,23,m,y,y,2019_May_02_1006,2AFC_task,59.9786055034218,
stimuli/rgb_scene000102_render000000.png,stimuli/rgb_scene000102_render000001.png,0,14,14,126,"[0, 1]",right,1,963,23,m,y,y,2019_May_02_1006,2AFC_task,59.9786055034218,
stimuli/rgb_scene000102_render000002.png,stimuli/rgb_scene000102_render000004.png,0,15,15,138,"[1, 0]",left,1,963,23,m,y,y,2019_May_02_1006,2AFC_task,59.9786055034218,
stimuli/rgb_scene000090_render000003.png,stimuli/rgb_scene000090_render000004.png,0,16,16,78,"[0, 1]",left,0,963,23,m,y,y,2019_May_02_1006,2AFC_task,59.9786055034218,
stimuli/rgb_scene000005_render000000.png,stimuli/rgb_scene000005_render000002.png,0,17,17,22,"[1, 0]",left,1,963,23,m,y,y,2019_May_02_1006,2AFC_task,59.9786055034218,
stimuli/rgb_scene000146_render000000.png,stimuli/rgb_scene000146_render000001.png,0,18,18,168,"[1, 0]",left,1,963,23,m,y,y,2019_May_02_1006,2AFC_task,59.9786055034218,
stimuli/rgb_scene000005_render000000.png,stimuli/rgb_scene000005_render000006.png,0,19,19,26,"[0, 1]",right,1,963,23,m,y,y,2019_May_02_1006,2AFC_task,59.9786055034218,
stimuli/rgb_scene000195_render000000.png,stimuli/rgb_scene000195_render000001.png,0,20,20,189,"[0, 1]",right,1,963,23,m,y,y,2019_May_02_1006,2AFC_task,59.9786055034218,
stimuli/rgb_scene000090_render000000.png,stimuli/rgb_scene000090_render000002.png,0,21,21,64,"[0, 1]",right,1,963,23,m,y,y,2019_May_02_1006,2AFC_task,59.9786055034218,
stimuli/rgb_scene000012_render000001.png,stimuli/rgb_scene000012_render000006.png,0,22,22,52,"[1, 0]",left,1,963,23,m,y,y,2019_May_02_1006,2AFC_task,59.9786055034218,
stimuli/rgb_scene000113_render000000.png,stimuli/rgb_scene000113_render000002.png,0,23,23,148,"[0, 1]",right,1,963,23,m,y,y,2019_May_02_1006,2AFC_task,59.9786055034218,
stimuli/rgb_scene000146_render000002.png,stimuli/rgb_scene000146_render000004.png,0,24,24,180,"[1, 0]",left,1,963,23,m,y,y,2019_May_02_1006,2AFC_task,59.9786055034218,
stimuli/rgb_scene000113_render000001.png,stimuli/rgb_scene000113_render000003.png,0,25,25,154,"[1, 0]",left,1,963,23,m,y,y,2019_May_02_1006,2AFC_task,59.9786055034218,
stimuli/rgb_scene000096_render000001.png,stimuli/rgb_scene000096_render000002.png,0,26,26,111,"[0, 1]",right,1,963,23,m,y,y,2019_May_02_1006,2AFC_task,59.9786055034218,
stimuli/rgb_scene000090_render000005.png,stimuli/rgb_scene000090_render000006.png,0,27,27,83,"[0, 1]",left,0,963,23,m,y,y,2019_May_02_1006,2AFC_task,59.9786055034218,
stimuli/rgb_scene000113_render000002.png,stimuli/rgb_scene000113_render000005.png,0,28,28,160,"[1, 0]",left,1,963,23,m,y,y,2019_May_02_1006,2AFC_task,59.9786055034218,
stimuli/rgb_scene000095_render000000.png,stimuli/rgb_scene000095_render000005.png,0,29,29,88,"[1, 0]",left,1,963,23,m,y,y,2019_May_02_1006,2AFC_task,59.9786055034218,
stimuli/rgb_scene000005_render000004.png,stimuli/rgb_scene000005_render000006.png,0,30,30,40,"[1, 0]",right,0,963,23,m,y,y,2019_May_02_1006,2AFC_task,59.9786055034218,
stimuli/rgb_scene000090_render000001.png,stimuli/rgb_scene000090_render000005.png,0,31,31,72,"[0, 1]",right,1,963,23,m,y,y,2019_May_02_1006,2AFC_task,59.9786055034218,
stimuli/rgb_scene000004_render000004.png,stimuli/rgb_scene000004_render000005.png,0,32,32,18,"[0, 1]",right,1,963,23,m,y,y,2019_May_02_1006,2AFC_task,59.9786055034218,
stimuli/rgb_scene000005_render000001.png,stimuli/rgb_scene000005_render000003.png,0,33,33,28,"[0, 1]",right,1,963,23,m,y,y,2019_May_02_1006,2AFC_task,59.9786055034218,
stimuli/rgb_scene000146_render000004.png,stimuli/rgb_scene000146_render000005.png,0,34,34,186,"[0, 1]",right,1,963,23,m,y,y,2019_May_02_1006,2AFC_task,59.9786055034218,
stimuli/rgb_scene000146_render000003.png,stimuli/rgb_scene000146_render000004.png,0,35,35,183,"[0, 1]",right,1,963,23,m,y,y,2019_May_02_1006,2AFC_task,59.9786055034218,
stimuli/rgb_scene000005_render000005.png,stimuli/rgb_scene000005_render000006.png,0,36,36,41,"[1, 0]",right,0,963,23,m,y,y,2019_May_02_1006,2AFC_task,59.9786055034218,
stimuli/rgb_scene000146_render000000.png,stimuli/rgb_scene000146_render000002.png,0,37,37,169,"[0, 1]",right,1,963,23,m,y,y,2019_May_02_1006,2AFC_task,59.9786055034218,
stimuli/rgb_scene000096_render000001.png,stimuli/rgb_scene000096_render000005.png,0,38,38,114,"[1, 0]",left,1,963,23,m,y,y,2019_May_02_1006,2AFC_task,59.9786055034218,
stimuli/rgb_scene000012_render000003.png,stimuli/rgb_scene000012_render000006.png,0,39,39,59,"[0, 1]",right,1,963,23,m,y,y,2019_May_02_1006,2AFC_task,59.9786055034218,
stimuli/rgb_scene000004_render000000.png,stimuli/rgb_scene000004_render000001.png,0,40,40,0,"[0, 1]",right,1,963,23,m,y,y,2019_May_02_1006,2AFC_task,59.9786055034218,
stimuli/rgb_scene000005_render000001.png,stimuli/rgb_scene000005_render000005.png,0,41,41,30,"[0, 1]",right,1,963,23,m,y,y,2019_May_02_1006,2AFC_task,59.9786055034218,
stimuli/rgb_scene000095_render000003.png,stimuli/rgb_scene000095_render000006.png,0,42,42,101,"[0, 1]",right,1,963,23,m,y,y,2019_May_02_1006,2AFC_task,59.9786055034218,
stimuli/rgb_scene000012_render000003.png,stimuli/rgb_scene000012_render000004.png,0,43,43,57,"[1, 0]",left,1,963,23,m,y,y,2019_May_02_1006,2AFC_task,59.9786055034218,
stimuli/rgb_scene000095_render000001.png,stimuli/rgb_scene000095_render000005.png,0,44,44,93,"[0, 1]",right,1,963,23,m,y,y,2019_May_02_1006,2AFC_task,59.9786055034218,
stimuli/rgb_scene000012_render000000.png,stimuli/rgb_scene000012_render000001.png,0,45,45,42,"[1, 0]",left,1,963,23,m,y,y,2019_May_02_1006,2AFC_task,59.9786055034218,
stimuli/rgb_scene000102_render000001.png,stimuli/rgb_scene000102_render000004.png,0,46,46,134,"[1, 0]",left,1,963,23,m,y,y,2019_May_02_1006,2AFC_task,59.9786055034218,
stimuli/rgb_scene000096_render000001.png,stimuli/rgb_scene000096_render000004.png,0,47,47,113,"[0, 1]",right,1,963,23,m,y,y,2019_May_02_1006,2AFC_task,59.9786055034218,
stimuli/rgb_scene000113_render000000.png,stimuli/rgb_scene000113_render000003.png,0,48,48,149,"[0, 1]",right,1,963,23,m,y,y,2019_May_02_1006,2AFC_task,59.9786055034218,
stimuli/rgb_scene000005_render000001.png,stimuli/rgb_scene000005_render000004.png,0,49,49,29,"[1, 0]",left,1,963,23,m,y,y,2019_May_02_1006,2AFC_task,59.9786055034218,
stimuli/rgb_scene000096_render000001.png,stimuli/rgb_scene000096_render000003.png,0,50,50,112,"[1, 0]",left,1,963,23,m,y,y,2019_May_02_1006,2AFC_task,59.9786055034218,
stimuli/rgb_scene000005_render000004.png,stimuli/rgb_scene000005_render000005.png,0,51,51,39,"[1, 0]",right,0,963,23,m,y,y,2019_May_02_1006,2AFC_task,59.9786055034218,
stimuli/rgb_scene000113_render000003.png,stimuli/rgb_scene000113_render000005.png,0,52,52,163,"[0, 1]",right,1,963,23,m,y,y,2019_May_02_1006,2AFC_task,59.9786055034218,
stimuli/rgb_scene000004_render000001.png,stimuli/rgb_scene000004_render000006.png,0,53,53,10,"[0, 1]",right,1,963,23,m,y,y,2019_May_02_1006,2AFC_task,59.9786055034218,
stimuli/rgb_scene000146_render000003.png,stimuli/rgb_scene000146_render000005.png,0,54,54,184,"[1, 0]",left,1,963,23,m,y,y,2019_May_02_1006,2AFC_task,59.9786055034218,
stimuli/rgb_scene000012_render000004.png,stimuli/rgb_scene000012_render000005.png,0,55,55,60,"[0, 1]",right,1,963,23,m,y,y,2019_May_02_1006,2AFC_task,59.9786055034218,
stimuli/rgb_scene000095_render000000.png,stimuli/rgb_scene000095_render000003.png,0,56,56,86,"[0, 1]",right,1,963,23,m,y,y,2019_May_02_1006,2AFC_task,59.9786055034218,
stimuli/rgb_scene000195_render000001.png,stimuli/rgb_scene000195_render000004.png,0,57,57,197,"[0, 1]",right,1,963,23,m,y,y,2019_May_02_1006,2AFC_task,59.9786055034218,
stimuli/rgb_scene000095_render000000.png,stimuli/rgb_scene000095_render000002.png,0,58,58,85,"[0, 1]",right,1,963,23,m,y,y,2019_May_02_1006,2AFC_task,59.9786055034218,
stimuli/rgb_scene000146_render000002.png,stimuli/rgb_scene000146_render000003.png,0,59,59,179,"[1, 0]",left,1,963,23,m,y,y,2019_May_02_1006,2AFC_task,59.9786055034218,
stimuli/rgb_scene000004_render000001.png,stimuli/rgb_scene000004_render000002.png,0,60,60,6,"[0, 1]",right,1,963,23,m,y,y,2019_May_02_1006,2AFC_task,59.9786055034218,
stimuli/rgb_scene000102_render000000.png,stimuli/rgb_scene000102_render000004.png,0,61,61,129,"[1, 0]",left,1,963,23,m,y,y,2019_May_02_1006,2AFC_task,59.9786055034218,
stimuli/rgb_scene000195_render000001.png,stimuli/rgb_scene000195_render000006.png,0,62,62,199,"[1, 0]",left,1,963,23,m,y,y,2019_May_02_1006,2AFC_task,59.9786055034218,
stimuli/rgb_scene000095_render000004.png,stimuli/rgb_scene000095_render000006.png,0,63,63,103,"[1, 0]",left,1,963,23,m,y,y,2019_May_02_1006,2AFC_task,59.9786055034218,
stimuli/rgb_scene000146_render000001.png,stimuli/rgb_scene000146_render000004.png,0,64,64,176,"[0, 1]",right,1,963,23,m,y,y,2019_May_02_1006,2AFC_task,59.9786055034218,
stimuli/rgb_scene000195_render000000.png,stimuli/rgb_scene000195_render000006.png,0,65,65,194,"[0, 1]",right,1,963,23,m,y,y,2019_May_02_1006,2AFC_task,59.9786055034218,
stimuli/rgb_scene000012_render000004.png,stimuli/rgb_scene000012_render000006.png,0,66,66,61,"[0, 1]",right,1,963,23,m,y,y,2019_May_02_1006,2AFC_task,59.9786055034218,
stimuli/rgb_scene000012_render000002.png,stimuli/rgb_scene000012_render000006.png,0,67,67,56,"[1, 0]",left,1,963,23,m,y,y,2019_May_02_1006,2AFC_task,59.9786055034218,
stimuli/rgb_scene000090_render000000.png,stimuli/rgb_scene000090_render000001.png,0,68,68,63,"[1, 0]",left,1,963,23,m,y,y,2019_May_02_1006,2AFC_task,59.9786055034218,
stimuli/rgb_scene000095_render000002.png,stimuli/rgb_scene000095_render000004.png,0,69,69,96,"[1, 0]",left,1,963,23,m,y,y,2019_May_02_1006,2AFC_task,59.9786055034218,
stimuli/rgb_scene000004_render000002.png,stimuli/rgb_scene000004_render000003.png,0,70,70,11,"[1, 0]",left,1,963,23,m,y,y,2019_May_02_1006,2AFC_task,59.9786055034218,
stimuli/rgb_scene000102_render000002.png,stimuli/rgb_scene000102_render000006.png,0,71,71,140,"[1, 0]",left,1,963,23,m,y,y,2019_May_02_1006,2AFC_task,59.9786055034218,
stimuli/rgb_scene000004_render000004.png,stimuli/rgb_scene000004_render000006.png,0,72,72,19,"[1, 0]",left,1,963,23,m,y,y,2019_May_02_1006,2AFC_task,59.9786055034218,
stimuli/rgb_scene000096_render000005.png,stimuli/rgb_scene000096_render000006.png,0,73,73,125,"[0, 1]",right,1,963,23,m,y,y,2019_May_02_1006,2AFC_task,59.9786055034218,
stimuli/rgb_scene000004_render000000.png,stimuli/rgb_scene000004_render000003.png,0,74,74,2,"[1, 0]",left,1,963,23,m,y,y,2019_May_02_1006,2AFC_task,59.9786055034218,
stimuli/rgb_scene000113_render000004.png,stimuli/rgb_scene000113_render000005.png,0,75,75,165,"[0, 1]",right,1,963,23,m,y,y,2019_May_02_1006,2AFC_task,59.9786055034218,
stimuli/rgb_scene000012_render000001.png,stimuli/rgb_scene000012_render000004.png,0,76,76,50,"[0, 1]",right,1,963,23,m,y,y,2019_May_02_1006,2AFC_task,59.9786055034218,
stimuli/rgb_scene000113_render000002.png,stimuli/rgb_scene000113_render000004.png,0,77,77,159,"[0, 1]",right,1,963,23,m,y,y,2019_May_02_1006,2AFC_task,59.9786055034218,
stimuli/rgb_scene000102_render000001.png,stimuli/rgb_scene000102_render000005.png,0,78,78,135,"[0, 1]",right,1,963,23,m,y,y,2019_May_02_1006,2AFC_task,59.9786055034218,
stimuli/rgb_scene000102_render000002.png,stimuli/rgb_scene000102_render000003.png,0,79,79,137,"[0, 1]",right,1,963,23,m,y,y,2019_May_02_1006,2AFC_task,59.9786055034218,
stimuli/rgb_scene000095_render000002.png,stimuli/rgb_scene000095_render000003.png,0,80,80,95,"[1, 0]",left,1,963,23,m,y,y,2019_May_02_1006,2AFC_task,59.9786055034218,
stimuli/rgb_scene000096_render000001.png,stimuli/rgb_scene000096_render000006.png,0,81,81,115,"[1, 0]",left,1,963,23,m,y,y,2019_May_02_1006,2AFC_task,59.9786055034218,
stimuli/rgb_scene000012_render000003.png,stimuli/rgb_scene000012_render000005.png,0,82,82,58,"[1, 0]",left,1,963,23,m,y,y,2019_May_02_1006,2AFC_task,59.9786055034218,
stimuli/rgb_scene000012_render000000.png,stimuli/rgb_scene000012_render000002.png,0,83,83,43,"[1, 0]",left,1,963,23,m,y,y,2019_May_02_1006,2AFC_task,59.9786055034218,
stimuli/rgb_scene000102_render000003.png,stimuli/rgb_scene000102_render000006.png,0,84,84,143,"[1, 0]",left,1,963,23,m,y,y,2019_May_02_1006,2AFC_task,59.9786055034218,
stimuli/rgb_scene000195_render000003.png,stimuli/rgb_scene000195_render000005.png,0,85,85,205,"[1, 0]",left,1,963,23,m,y,y,2019_May_02_1006,2AFC_task,59.9786055034218,
stimuli/rgb_scene000005_render000000.png,stimuli/rgb_scene000005_render000001.png,0,86,86,21,"[1, 0]",left,1,963,23,m,y,y,2019_May_02_1006,2AFC_task,59.9786055034218,
stimuli/rgb_scene000102_render000004.png,stimuli/rgb_scene000102_render000005.png,0,87,87,144,"[1, 0]",left,1,963,23,m,y,y,2019_May_02_1006,2AFC_task,59.9786055034218,
stimuli/rgb_scene000113_render000000.png,stimuli/rgb_scene000113_render000006.png,0,88,88,152,"[1, 0]",left,1,963,23,m,y,y,2019_May_02_1006,2AFC_task,59.9786055034218,
stimuli/rgb_scene000195_render000000.png,stimuli/rgb_scene000195_render000002.png,0,89,89,190,"[0, 1]",right,1,963,23,m,y,y,2019_May_02_1006,2AFC_task,59.9786055034218,
stimuli/rgb_scene000195_render000000.png,stimuli/rgb_scene000195_render000003.png,0,90,90,191,"[0, 1]",right,1,963,23,m,y,y,2019_May_02_1006,2AFC_task,59.9786055034218,
stimuli/rgb_scene000195_render000000.png,stimuli/rgb_scene000195_render000005.png,0,91,91,193,"[0, 1]",right,1,963,23,m,y,y,2019_May_02_1006,2AFC_task,59.9786055034218,
stimuli/rgb_scene000004_render000001.png,stimuli/rgb_scene000004_render000003.png,0,92,92,7,"[1, 0]",left,1,963,23,m,y,y,2019_May_02_1006,2AFC_task,59.9786055034218,
stimuli/rgb_scene000090_render000001.png,stimuli/rgb_scene000090_render000004.png,0,93,93,71,"[1, 0]",left,1,963,23,m,y,y,2019_May_02_1006,2AFC_task,59.9786055034218,
stimuli/rgb_scene000004_render000000.png,stimuli/rgb_scene000004_render000004.png,0,94,94,3,"[1, 0]",left,1,963,23,m,y,y,2019_May_02_1006,2AFC_task,59.9786055034218,
stimuli/rgb_scene000005_render000003.png,stimuli/rgb_scene000005_render000004.png,0,95,95,36,"[1, 0]",left,1,963,23,m,y,y,2019_May_02_1006,2AFC_task,59.9786055034218,
stimuli/rgb_scene000113_render000003.png,stimuli/rgb_scene000113_render000006.png,0,96,96,164,"[0, 1]",right,1,963,23,m,y,y,2019_May_02_1006,2AFC_task,59.9786055034218,
stimuli/rgb_scene000102_render000004.png,stimuli/rgb_scene000102_render000006.png,0,97,97,145,"[0, 1]",right,1,963,23,m,y,y,2019_May_02_1006,2AFC_task,59.9786055034218,
stimuli/rgb_scene000146_render000000.png,stimuli/rgb_scene000146_render000004.png,0,98,98,171,"[1, 0]",left,1,963,23,m,y,y,2019_May_02_1006,2AFC_task,59.9786055034218,
stimuli/rgb_scene000095_render000001.png,stimuli/rgb_scene000095_render000006.png,0,99,99,94,"[0, 1]",right,1,963,23,m,y,y,2019_May_02_1006,2AFC_task,59.9786055034218,
stimuli/rgb_scene000005_render000001.png,stimuli/rgb_scene000005_render000002.png,0,100,100,27,"[0, 1]",right,1,963,23,m,y,y,2019_May_02_1006,2AFC_task,59.9786055034218,
stimuli/rgb_scene000012_render000001.png,stimuli/rgb_scene000012_render000003.png,0,101,101,49,"[1, 0]",left,1,963,23,m,y,y,2019_May_02_1006,2AFC_task,59.9786055034218,
stimuli/rgb_scene000005_render000003.png,stimuli/rgb_scene000005_render000005.png,0,102,102,37,"[1, 0]",left,1,963,23,m,y,y,2019_May_02_1006,2AFC_task,59.9786055034218,
stimuli/rgb_scene000146_render000001.png,stimuli/rgb_scene000146_render000006.png,0,103,103,178,"[1, 0]",left,1,963,23,m,y,y,2019_May_02_1006,2AFC_task,59.9786055034218,
stimuli/rgb_scene000004_render000002.png,stimuli/rgb_scene000004_render000006.png,0,104,104,14,"[1, 0]",left,1,963,23,m,y,y,2019_May_02_1006,2AFC_task,59.9786055034218,
stimuli/rgb_scene000095_render000001.png,stimuli/rgb_scene000095_render000002.png,0,105,105,90,"[0, 1]",right,1,963,23,m,y,y,2019_May_02_1006,2AFC_task,59.9786055034218,
stimuli/rgb_scene000096_render000003.png,stimuli/rgb_scene000096_render000006.png,0,106,106,122,"[0, 1]",right,1,963,23,m,y,y,2019_May_02_1006,2AFC_task,59.9786055034218,
stimuli/rgb_scene000096_render000002.png,stimuli/rgb_scene000096_render000004.png,0,107,107,117,"[0, 1]",right,1,963,23,m,y,y,2019_May_02_1006,2AFC_task,59.9786055034218,
stimuli/rgb_scene000012_render000002.png,stimuli/rgb_scene000012_render000005.png,0,108,108,55,"[0, 1]",right,1,963,23,m,y,y,2019_May_02_1006,2AFC_task,59.9786055034218,
stimuli/rgb_scene000090_render000003.png,stimuli/rgb_scene000090_render000005.png,0,109,109,79,"[1, 0]",left,1,963,23,m,y,y,2019_May_02_1006,2AFC_task,59.9786055034218,
stimuli/rgb_scene000146_render000000.png,stimuli/rgb_scene000146_render000005.png,0,110,110,172,"[0, 1]",right,1,963,23,m,y,y,2019_May_02_1006,2AFC_task,59.9786055034218,
stimuli/rgb_scene000195_render000001.png,stimuli/rgb_scene000195_render000005.png,0,111,111,198,"[1, 0]",left,1,963,23,m,y,y,2019_May_02_1006,2AFC_task,59.9786055034218,
stimuli/rgb_scene000102_render000003.png,stimuli/rgb_scene000102_render000004.png,0,112,112,141,"[1, 0]",left,1,963,23,m,y,y,2019_May_02_1006,2AFC_task,59.9786055034218,
stimuli/rgb_scene000005_render000002.png,stimuli/rgb_scene000005_render000005.png,0,113,113,34,"[1, 0]",left,1,963,23,m,y,y,2019_May_02_1006,2AFC_task,59.9786055034218,
stimuli/rgb_scene000113_render000001.png,stimuli/rgb_scene000113_render000006.png,0,114,114,157,"[1, 0]",left,1,963,23,m,y,y,2019_May_02_1006,2AFC_task,59.9786055034218,
stimuli/rgb_scene000195_render000002.png,stimuli/rgb_scene000195_render000006.png,0,115,115,203,"[1, 0]",left,1,963,23,m,y,y,2019_May_02_1006,2AFC_task,59.9786055034218,
stimuli/rgb_scene000095_render000002.png,stimuli/rgb_scene000095_render000006.png,0,116,116,98,"[1, 0]",left,1,963,23,m,y,y,2019_May_02_1006,2AFC_task,59.9786055034218,
stimuli/rgb_scene000096_render000000.png,stimuli/rgb_scene000096_render000004.png,0,117,117,108,"[0, 1]",right,1,963,23,m,y,y,2019_May_02_1006,2AFC_task,59.9786055034218,
stimuli/rgb_scene000090_render000002.png,stimuli/rgb_scene000090_render000006.png,0,118,118,77,"[1, 0]",left,1,963,23,m,y,y,2019_May_02_1006,2AFC_task,59.9786055034218,
stimuli/rgb_scene000146_render000005.png,stimuli/rgb_scene000146_render000006.png,0,119,119,188,"[1, 0]",left,1,963,23,m,y,y,2019_May_02_1006,2AFC_task,59.9786055034218,
stimuli/rgb_scene000095_render000000.png,stimuli/rgb_scene000095_render000006.png,0,120,120,89,"[0, 1]",right,1,963,23,m,y,y,2019_May_02_1006,2AFC_task,59.9786055034218,
stimuli/rgb_scene000012_render000000.png,stimuli/rgb_scene000012_render000005.png,0,121,121,46,"[1, 0]",left,1,963,23,m,y,y,2019_May_02_1006,2AFC_task,59.9786055034218,
stimuli/rgb_scene000096_render000003.png,stimuli/rgb_scene000096_render000004.png,0,122,122,120,"[1, 0]",left,1,963,23,m,y,y,2019_May_02_1006,2AFC_task,59.9786055034218,
stimuli/rgb_scene000095_render000003.png,stimuli/rgb_scene000095_render000005.png,0,123,123,100,"[1, 0]",left,1,963,23,m,y,y,2019_May_02_1006,2AFC_task,59.9786055034218,
stimuli/rgb_scene000012_render000002.png,stimuli/rgb_scene000012_render000004.png,0,124,124,54,"[0, 1]",right,1,963,23,m,y,y,2019_May_02_1006,2AFC_task,59.9786055034218,
stimuli/rgb_scene000090_render000000.png,stimuli/rgb_scene000090_render000004.png,0,125,125,66,"[1, 0]",left,1,963,23,m,y,y,2019_May_02_1006,2AFC_task,59.9786055034218,
stimuli/rgb_scene000090_render000004.png,stimuli/rgb_scene000090_render000006.png,0,126,126,82,"[1, 0]",right,0,963,23,m,y,y,2019_May_02_1006,2AFC_task,59.9786055034218,
stimuli/rgb_scene000005_render000003.png,stimuli/rgb_scene000005_render000006.png,0,127,127,38,"[1, 0]",right,0,963,23,m,y,y,2019_May_02_1006,2AFC_task,59.9786055034218,
stimuli/rgb_scene000012_render000000.png,stimuli/rgb_scene000012_render000004.png,0,128,128,45,"[1, 0]",left,1,963,23,m,y,y,2019_May_02_1006,2AFC_task,59.9786055034218,
stimuli/rgb_scene000005_render000000.png,stimuli/rgb_scene000005_render000005.png,0,129,129,25,"[0, 1]",right,1,963,23,m,y,y,2019_May_02_1006,2AFC_task,59.9786055034218,
stimuli/rgb_scene000090_render000000.png,stimuli/rgb_scene000090_render000005.png,0,130,130,67,"[1, 0]",left,1,963,23,m,y,y,2019_May_02_1006,2AFC_task,59.9786055034218,
stimuli/rgb_scene000102_render000001.png,stimuli/rgb_scene000102_render000003.png,0,131,131,133,"[0, 1]",right,1,963,23,m,y,y,2019_May_02_1006,2AFC_task,59.9786055034218,
stimuli/rgb_scene000004_render000000.png,stimuli/rgb_scene000004_render000002.png,0,132,132,1,"[0, 1]",right,1,963,23,m,y,y,2019_May_02_1006,2AFC_task,59.9786055034218,
stimuli/rgb_scene000146_render000000.png,stimuli/rgb_scene000146_render000006.png,0,133,133,173,"[1, 0]",left,1,963,23,m,y,y,2019_May_02_1006,2AFC_task,59.9786055034218,
stimuli/rgb_scene000195_render000001.png,stimuli/rgb_scene000195_render000002.png,0,134,134,195,"[1, 0]",left,1,963,23,m,y,y,2019_May_02_1006,2AFC_task,59.9786055034218,
stimuli/rgb_scene000113_render000001.png,stimuli/rgb_scene000113_render000004.png,0,135,135,155,"[0, 1]",right,1,963,23,m,y,y,2019_May_02_1006,2AFC_task,59.9786055034218,
stimuli/rgb_scene000102_render000001.png,stimuli/rgb_scene000102_render000006.png,0,136,136,136,"[1, 0]",left,1,963,23,m,y,y,2019_May_02_1006,2AFC_task,59.9786055034218,
stimuli/rgb_scene000113_render000000.png,stimuli/rgb_scene000113_render000001.png,0,137,137,147,"[1, 0]",left,1,963,23,m,y,y,2019_May_02_1006,2AFC_task,59.9786055034218,
stimuli/rgb_scene000096_render000002.png,stimuli/rgb_scene000096_render000006.png,0,138,138,119,"[0, 1]",right,1,963,23,m,y,y,2019_May_02_1006,2AFC_task,59.9786055034218,
stimuli/rgb_scene000095_render000000.png,stimuli/rgb_scene000095_render000001.png,0,139,139,84,"[1, 0]",left,1,963,23,m,y,y,2019_May_02_1006,2AFC_task,59.9786055034218,
stimuli/rgb_scene000004_render000001.png,stimuli/rgb_scene000004_render000004.png,0,140,140,8,"[0, 1]",right,1,963,23,m,y,y,2019_May_02_1006,2AFC_task,59.9786055034218,
stimuli/rgb_scene000096_render000000.png,stimuli/rgb_scene000096_render000006.png,0,141,141,110,"[0, 1]",right,1,963,23,m,y,y,2019_May_02_1006,2AFC_task,59.9786055034218,
stimuli/rgb_scene000195_render000002.png,stimuli/rgb_scene000195_render000005.png,0,142,142,202,"[1, 0]",left,1,963,23,m,y,y,2019_May_02_1006,2AFC_task,59.9786055034218,
stimuli/rgb_scene000113_render000002.png,stimuli/rgb_scene000113_render000006.png,0,143,143,161,"[1, 0]",left,1,963,23,m,y,y,2019_May_02_1006,2AFC_task,59.9786055034218,
stimuli/rgb_scene000113_render000004.png,stimuli/rgb_scene000113_render000006.png,0,144,144,166,"[0, 1]",right,1,963,23,m,y,y,2019_May_02_1006,2AFC_task,59.9786055034218,
stimuli/rgb_scene000146_render000004.png,stimuli/rgb_scene000146_render000006.png,0,145,145,187,"[0, 1]",right,1,963,23,m,y,y,2019_May_02_1006,2AFC_task,59.9786055034218,
stimuli/rgb_scene000090_render000003.png,stimuli/rgb_scene000090_render000006.png,0,146,146,80,"[0, 1]",right,1,963,23,m,y,y,2019_May_02_1006,2AFC_task,59.9786055034218,
stimuli/rgb_scene000102_render000000.png,stimuli/rgb_scene000102_render000006.png,0,147,147,131,"[1, 0]",left,1,963,23,m,y,y,2019_May_02_1006,2AFC_task,59.9786055034218,
stimuli/rgb_scene000113_render000001.png,stimuli/rgb_scene000113_render000002.png,0,148,148,153,"[1, 0]",left,1,963,23,m,y,y,2019_May_02_1006,2AFC_task,59.9786055034218,
stimuli/rgb_scene000146_render000002.png,stimuli/rgb_scene000146_render000005.png,0,149,149,181,"[1, 0]",left,1,963,23,m,y,y,2019_May_02_1006,2AFC_task,59.9786055034218,
stimuli/rgb_scene000102_render000000.png,stimuli/rgb_scene000102_render000005.png,0,150,150,130,"[0, 1]",right,1,963,23,m,y,y,2019_May_02_1006,2AFC_task,59.9786055034218,
stimuli/rgb_scene000090_render000004.png,stimuli/rgb_scene000090_render000005.png,0,151,151,81,"[1, 0]",left,1,963,23,m,y,y,2019_May_02_1006,2AFC_task,59.9786055034218,
stimuli/rgb_scene000096_render000000.png,stimuli/rgb_scene000096_render000001.png,0,152,152,105,"[1, 0]",left,1,963,23,m,y,y,2019_May_02_1006,2AFC_task,59.9786055034218,
stimuli/rgb_scene000090_render000001.png,stimuli/rgb_scene000090_render000003.png,0,153,153,70,"[1, 0]",left,1,963,23,m,y,y,2019_May_02_1006,2AFC_task,59.9786055034218,
stimuli/rgb_scene000012_render000002.png,stimuli/rgb_scene000012_render000003.png,0,154,154,53,"[1, 0]",left,1,963,23,m,y,y,2019_May_02_1006,2AFC_task,59.9786055034218,
stimuli/rgb_scene000004_render000005.png,stimuli/rgb_scene000004_render000006.png,0,155,155,20,"[1, 0]",left,1,963,23,m,y,y,2019_May_02_1006,2AFC_task,59.9786055034218,
stimuli/rgb_scene000146_render000003.png,stimuli/rgb_scene000146_render000006.png,0,156,156,185,"[1, 0]",left,1,963,23,m,y,y,2019_May_02_1006,2AFC_task,59.9786055034218,
stimuli/rgb_scene000090_render000001.png,stimuli/rgb_scene000090_render000002.png,0,157,157,69,"[0, 1]",right,1,963,23,m,y,y,2019_May_02_1006,2AFC_task,59.9786055034218,
stimuli/rgb_scene000096_render000002.png,stimuli/rgb_scene000096_render000005.png,0,158,158,118,"[1, 0]",left,1,963,23,m,y,y,2019_May_02_1006,2AFC_task,59.9786055034218,
stimuli/rgb_scene000005_render000002.png,stimuli/rgb_scene000005_render000003.png,0,159,159,32,"[1, 0]",left,1,963,23,m,y,y,2019_May_02_1006,2AFC_task,59.9786055034218,
stimuli/rgb_scene000195_render000005.png,stimuli/rgb_scene000195_render000006.png,0,160,160,209,"[1, 0]",right,0,963,23,m,y,y,2019_May_02_1006,2AFC_task,59.9786055034218,
stimuli/rgb_scene000195_render000003.png,stimuli/rgb_scene000195_render000006.png,0,161,161,206,"[1, 0]",right,0,963,23,m,y,y,2019_May_02_1006,2AFC_task,59.9786055034218,
stimuli/rgb_scene000095_render000000.png,stimuli/rgb_scene000095_render000004.png,0,162,162,87,"[0, 1]",right,1,963,23,m,y,y,2019_May_02_1006,2AFC_task,59.9786055034218,
stimuli/rgb_scene000146_render000001.png,stimuli/rgb_scene000146_render000003.png,0,163,163,175,"[1, 0]",left,1,963,23,m,y,y,2019_May_02_1006,2AFC_task,59.9786055034218,
stimuli/rgb_scene000146_render000002.png,stimuli/rgb_scene000146_render000006.png,0,164,164,182,"[1, 0]",left,1,963,23,m,y,y,2019_May_02_1006,2AFC_task,59.9786055034218,
stimuli/rgb_scene000004_render000003.png,stimuli/rgb_scene000004_render000004.png,0,165,165,15,"[0, 1]",right,1,963,23,m,y,y,2019_May_02_1006,2AFC_task,59.9786055034218,
stimuli/rgb_scene000102_render000005.png,stimuli/rgb_scene000102_render000006.png,0,166,166,146,"[1, 0]",left,1,963,23,m,y,y,2019_May_02_1006,2AFC_task,59.9786055034218,
stimuli/rgb_scene000146_render000001.png,stimuli/rgb_scene000146_render000005.png,0,167,167,177,"[1, 0]",left,1,963,23,m,y,y,2019_May_02_1006,2AFC_task,59.9786055034218,
stimuli/rgb_scene000195_render000004.png,stimuli/rgb_scene000195_render000006.png,0,168,168,208,"[0, 1]",left,0,963,23,m,y,y,2019_May_02_1006,2AFC_task,59.9786055034218,
stimuli/rgb_scene000102_render000000.png,stimuli/rgb_scene000102_render000002.png,0,169,169,127,"[0, 1]",right,1,963,23,m,y,y,2019_May_02_1006,2AFC_task,59.9786055034218,
stimuli/rgb_scene000004_render000000.png,stimuli/rgb_scene000004_render000005.png,0,170,170,4,"[0, 1]",right,1,963,23,m,y,y,2019_May_02_1006,2AFC_task,59.9786055034218,
stimuli/rgb_scene000102_render000002.png,stimuli/rgb_scene000102_render000005.png,0,171,171,139,"[1, 0]",left,1,963,23,m,y,y,2019_May_02_1006,2AFC_task,59.9786055034218,
stimuli/rgb_scene000005_render000001.png,stimuli/rgb_scene000005_render000006.png,0,172,172,31,"[1, 0]",left,1,963,23,m,y,y,2019_May_02_1006,2AFC_task,59.9786055034218,
stimuli/rgb_scene000195_render000002.png,stimuli/rgb_scene000195_render000004.png,0,173,173,201,"[0, 1]",right,1,963,23,m,y,y,2019_May_02_1006,2AFC_task,59.9786055034218,
stimuli/rgb_scene000005_render000002.png,stimuli/rgb_scene000005_render000004.png,0,174,174,33,"[1, 0]",left,1,963,23,m,y,y,2019_May_02_1006,2AFC_task,59.9786055034218,
stimuli/rgb_scene000113_render000001.png,stimuli/rgb_scene000113_render000005.png,0,175,175,156,"[0, 1]",right,1,963,23,m,y,y,2019_May_02_1006,2AFC_task,59.9786055034218,
stimuli/rgb_scene000146_render000000.png,stimuli/rgb_scene000146_render000003.png,0,176,176,170,"[0, 1]",right,1,963,23,m,y,y,2019_May_02_1006,2AFC_task,59.9786055034218,
stimuli/rgb_scene000095_render000001.png,stimuli/rgb_scene000095_render000003.png,0,177,177,91,"[1, 0]",left,1,963,23,m,y,y,2019_May_02_1006,2AFC_task,59.9786055034218,
stimuli/rgb_scene000102_render000001.png,stimuli/rgb_scene000102_render000002.png,0,178,178,132,"[0, 1]",right,1,963,23,m,y,y,2019_May_02_1006,2AFC_task,59.9786055034218,
stimuli/rgb_scene000005_render000000.png,stimuli/rgb_scene000005_render000004.png,0,179,179,24,"[0, 1]",right,1,963,23,m,y,y,2019_May_02_1006,2AFC_task,59.9786055034218,
stimuli/rgb_scene000096_render000004.png,stimuli/rgb_scene000096_render000005.png,0,180,180,123,"[1, 0]",left,1,963,23,m,y,y,2019_May_02_1006,2AFC_task,59.9786055034218,
stimuli/rgb_scene000004_render000003.png,stimuli/rgb_scene000004_render000005.png,0,181,181,16,"[0, 1]",right,1,963,23,m,y,y,2019_May_02_1006,2AFC_task,59.9786055034218,
stimuli/rgb_scene000012_render000005.png,stimuli/rgb_scene000012_render000006.png,0,182,182,62,"[1, 0]",left,1,963,23,m,y,y,2019_May_02_1006,2AFC_task,59.9786055034218,
stimuli/rgb_scene000090_render000000.png,stimuli/rgb_scene000090_render000006.png,0,183,183,68,"[1, 0]",left,1,963,23,m,y,y,2019_May_02_1006,2AFC_task,59.9786055034218,
stimuli/rgb_scene000113_render000000.png,stimuli/rgb_scene000113_render000004.png,0,184,184,150,"[0, 1]",right,1,963,23,m,y,y,2019_May_02_1006,2AFC_task,59.9786055034218,
stimuli/rgb_scene000195_render000003.png,stimuli/rgb_scene000195_render000004.png,0,185,185,204,"[0, 1]",right,1,963,23,m,y,y,2019_May_02_1006,2AFC_task,59.9786055034218,
stimuli/rgb_scene000195_render000000.png,stimuli/rgb_scene000195_render000004.png,0,186,186,192,"[0, 1]",right,1,963,23,m,y,y,2019_May_02_1006,2AFC_task,59.9786055034218,
stimuli/rgb_scene000096_render000000.png,stimuli/rgb_scene000096_render000002.png,0,187,187,106,"[0, 1]",right,1,963,23,m,y,y,2019_May_02_1006,2AFC_task,59.9786055034218,
stimuli/rgb_scene000004_render000002.png,stimuli/rgb_scene000004_render000005.png,0,188,188,13,"[1, 0]",left,1,963,23,m,y,y,2019_May_02_1006,2AFC_task,59.9786055034218,
stimuli/rgb_scene000004_render000000.png,stimuli/rgb_scene000004_render000006.png,0,189,189,5,"[0, 1]",right,1,963,23,m,y,y,2019_May_02_1006,2AFC_task,59.9786055034218,
stimuli/rgb_scene000090_render000002.png,stimuli/rgb_scene000090_render000003.png,0,190,190,74,"[0, 1]",right,1,963,23,m,y,y,2019_May_02_1006,2AFC_task,59.9786055034218,
stimuli/rgb_scene000004_render000001.png,stimuli/rgb_scene000004_render000005.png,0,191,191,9,"[1, 0]",left,1,963,23,m,y,y,2019_May_02_1006,2AFC_task,59.9786055034218,
stimuli/rgb_scene000012_render000000.png,stimuli/rgb_scene000012_render000003.png,0,192,192,44,"[0, 1]",right,1,963,23,m,y,y,2019_May_02_1006,2AFC_task,59.9786055034218,
stimuli/rgb_scene000012_render000001.png,stimuli/rgb_scene000012_render000002.png,0,193,193,48,"[0, 1]",right,1,963,23,m,y,y,2019_May_02_1006,2AFC_task,59.9786055034218,
stimuli/rgb_scene000096_render000004.png,stimuli/rgb_scene000096_render000006.png,0,194,194,124,"[0, 1]",right,1,963,23,m,y,y,2019_May_02_1006,2AFC_task,59.9786055034218,
stimuli/rgb_scene000096_render000003.png,stimuli/rgb_scene000096_render000005.png,0,195,195,121,"[0, 1]",right,1,963,23,m,y,y,2019_May_02_1006,2AFC_task,59.9786055034218,
stimuli/rgb_scene000095_render000003.png,stimuli/rgb_scene000095_render000004.png,0,196,196,99,"[1, 0]",left,1,963,23,m,y,y,2019_May_02_1006,2AFC_task,59.9786055034218,
stimuli/rgb_scene000090_render000001.png,stimuli/rgb_scene000090_render000006.png,0,197,197,73,"[0, 1]",right,1,963,23,m,y,y,2019_May_02_1006,2AFC_task,59.9786055034218,
stimuli/rgb_scene000004_render000003.png,stimuli/rgb_scene000004_render000006.png,0,198,198,17,"[0, 1]",right,1,963,23,m,y,y,2019_May_02_1006,2AFC_task,59.9786055034218,
stimuli/rgb_scene000096_render000002.png,stimuli/rgb_scene000096_render000003.png,0,199,199,116,"[1, 0]",left,1,963,23,m,y,y,2019_May_02_1006,2AFC_task,59.9786055034218,
stimuli/rgb_scene000095_render000004.png,stimuli/rgb_scene000095_render000005.png,0,200,200,102,"[0, 1]",right,1,963,23,m,y,y,2019_May_02_1006,2AFC_task,59.9786055034218,
stimuli/rgb_scene000113_render000003.png,stimuli/rgb_scene000113_render000004.png,0,201,201,162,"[1, 0]",left,1,963,23,m,y,y,2019_May_02_1006,2AFC_task,59.9786055034218,
stimuli/rgb_scene000096_render000000.png,stimuli/rgb_scene000096_render000003.png,0,202,202,107,"[1, 0]",left,1,963,23,m,y,y,2019_May_02_1006,2AFC_task,59.9786055034218,
stimuli/rgb_scene000146_render000001.png,stimuli/rgb_scene000146_render000002.png,0,203,203,174,"[1, 0]",left,1,963,23,m,y,y,2019_May_02_1006,2AFC_task,59.9786055034218,
stimuli/rgb_scene000195_render000001.png,stimuli/rgb_scene000195_render000003.png,0,204,204,196,"[0, 1]",right,1,963,23,m,y,y,2019_May_02_1006,2AFC_task,59.9786055034218,
stimuli/rgb_scene000095_render000001.png,stimuli/rgb_scene000095_render000004.png,0,205,205,92,"[1, 0]",left,1,963,23,m,y,y,2019_May_02_1006,2AFC_task,59.9786055034218,
stimuli/rgb_scene000005_render000002.png,stimuli/rgb_scene000005_render000006.png,0,206,206,35,"[0, 1]",right,1,963,23,m,y,y,2019_May_02_1006,2AFC_task,59.9786055034218,
stimuli/rgb_scene000102_render000003.png,stimuli/rgb_scene000102_render000005.png,0,207,207,142,"[1, 0]",left,1,963,23,m,y,y,2019_May_02_1006,2AFC_task,59.9786055034218,
stimuli/rgb_scene000005_render000000.png,stimuli/rgb_scene000005_render000003.png,0,208,208,23,"[0, 1]",right,1,963,23,m,y,y,2019_May_02_1006,2AFC_task,59.9786055034218,
stimuli/rgb_scene000090_render000000.png,stimuli/rgb_scene000090_render000003.png,0,209,209,65,"[1, 0]",left,1,963,23,m,y,y,2019_May_02_1006,2AFC_task,59.9786055034218,
stimuli/rgb_scene000012_render000001.png,stimuli/rgb_scene000012_render000006.png,1,0,210,52,"[1, 0]",left,1,963,23,m,y,y,2019_May_02_1006,2AFC_task,59.9786055034218,
stimuli/rgb_scene000095_render000002.png,stimuli/rgb_scene000095_render000006.png,1,1,211,98,"[1, 0]",left,1,963,23,m,y,y,2019_May_02_1006,2AFC_task,59.9786055034218,
stimuli/rgb_scene000004_render000000.png,stimuli/rgb_scene000004_render000001.png,1,2,212,0,"[0, 1]",right,1,963,23,m,y,y,2019_May_02_1006,2AFC_task,59.9786055034218,
stimuli/rgb_scene000004_render000001.png,stimuli/rgb_scene000004_render000002.png,1,3,213,6,"[1, 0]",left,1,963,23,m,y,y,2019_May_02_1006,2AFC_task,59.9786055034218,
stimuli/rgb_scene000095_render000000.png,stimuli/rgb_scene000095_render000002.png,1,4,214,85,"[1, 0]",left,1,963,23,m,y,y,2019_May_02_1006,2AFC_task,59.9786055034218,
stimuli/rgb_scene000113_render000001.png,stimuli/rgb_scene000113_render000004.png,1,5,215,155,"[0, 1]",right,1,963,23,m,y,y,2019_May_02_1006,2AFC_task,59.9786055034218,
stimuli/rgb_scene000090_render000002.png,stimuli/rgb_scene000090_render000004.png,1,6,216,75,"[1, 0]",left,1,963,23,m,y,y,2019_May_02_1006,2AFC_task,59.9786055034218,
stimuli/rgb_scene000012_render000000.png,stimuli/rgb_scene000012_render000005.png,1,7,217,46,"[1, 0]",left,1,963,23,m,y,y,2019_May_02_1006,2AFC_task,59.9786055034218,
stimuli/rgb_scene000146_render000000.png,stimuli/rgb_scene000146_render000005.png,1,8,218,172,"[1, 0]",left,1,963,23,m,y,y,2019_May_02_1006,2AFC_task,59.9786055034218,
stimuli/rgb_scene000096_render000002.png,stimuli/rgb_scene000096_render000006.png,1,9,219,119,"[0, 1]",right,1,963,23,m,y,y,2019_May_02_1006,2AFC_task,59.9786055034218,
stimuli/rgb_scene000102_render000000.png,stimuli/rgb_scene000102_render000001.png,1,10,220,126,"[0, 1]",right,1,963,23,m,y,y,2019_May_02_1006,2AFC_task,59.9786055034218,
stimuli/rgb_scene000102_render000003.png,stimuli/rgb_scene000102_render000005.png,1,11,221,142,"[1, 0]",left,1,963,23,m,y,y,2019_May_02_1006,2AFC_task,59.9786055034218,
stimuli/rgb_scene000005_render000000.png,stimuli/rgb_scene000005_render000001.png,1,12,222,21,"[0, 1]",right,1,963,23,m,y,y,2019_May_02_1006,2AFC_task,59.9786055034218,
stimuli/rgb_scene000095_render000001.png,stimuli/rgb_scene000095_render000004.png,1,13,223,92,"[1, 0]",left,1,963,23,m,y,y,2019_May_02_1006,2AFC_task,59.9786055034218,
stimuli/rgb_scene000005_render000002.png,stimuli/rgb_scene000005_render000005.png,1,14,224,34,"[1, 0]",left,1,963,23,m,y,y,2019_May_02_1006,2AFC_task,59.9786055034218,
stimuli/rgb_scene000195_render000002.png,stimuli/rgb_scene000195_render000004.png,1,15,225,201,"[0, 1]",right,1,963,23,m,y,y,2019_May_02_1006,2AFC_task,59.9786055034218,
stimuli/rgb_scene000012_render000000.png,stimuli/rgb_scene000012_render000002.png,1,16,226,43,"[0, 1]",right,1,963,23,m,y,y,2019_May_02_1006,2AFC_task,59.9786055034218,
stimuli/rgb_scene000146_render000000.png,stimuli/rgb_scene000146_render000004.png,1,17,227,171,"[0, 1]",right,1,963,23,m,y,y,2019_May_02_1006,2AFC_task,59.9786055034218,
stimuli/rgb_scene000005_render000003.png,stimuli/rgb_scene000005_render000006.png,1,18,228,38,"[0, 1]",left,0,963,23,m,y,y,2019_May_02_1006,2AFC_task,59.9786055034218,
stimuli/rgb_scene000113_render000000.png,stimuli/rgb_scene000113_render000003.png,1,19,229,149,"[0, 1]",right,1,963,23,m,y,y,2019_May_02_1006,2AFC_task,59.9786055034218,
stimuli/rgb_scene000146_render000004.png,stimuli/rgb_scene000146_render000006.png,1,20,230,187,"[0, 1]",right,1,963,23,m,y,y,2019_May_02_1006,2AFC_task,59.9786055034218,
stimuli/rgb_scene000004_render000003.png,stimuli/rgb_scene000004_render000005.png,1,21,231,16,"[0, 1]",right,1,963,23,m,y,y,2019_May_02_1006,2AFC_task,59.9786055034218,
stimuli/rgb_scene000096_render000000.png,stimuli/rgb_scene000096_render000003.png,1,22,232,107,"[1, 0]",left,1,963,23,m,y,y,2019_May_02_1006,2AFC_task,59.9786055034218,
stimuli/rgb_scene000095_render000005.png,stimuli/rgb_scene000095_render000006.png,1,23,233,104,"[1, 0]",left,1,963,23,m,y,y,2019_May_02_1006,2AFC_task,59.9786055034218,
stimuli/rgb_scene000005_render000000.png,stimuli/rgb_scene000005_render000002.png,1,24,234,22,"[1, 0]",left,1,963,23,m,y,y,2019_May_02_1006,2AFC_task,59.9786055034218,
stimuli/rgb_scene000195_render000000.png,stimuli/rgb_scene000195_render000005.png,1,25,235,193,"[1, 0]",left,1,963,23,m,y,y,2019_May_02_1006,2AFC_task,59.9786055034218,
stimuli/rgb_scene000102_render000002.png,stimuli/rgb_scene000102_render000006.png,1,26,236,140,"[1, 0]",left,1,963,23,m,y,y,2019_May_02_1006,2AFC_task,59.9786055034218,
stimuli/rgb_scene000012_render000001.png,stimuli/rgb_scene000012_render000002.png,1,27,237,48,"[1, 0]",left,1,963,23,m,y,y,2019_May_02_1006,2AFC_task,59.9786055034218,
stimuli/rgb_scene000005_render000000.png,stimuli/rgb_scene000005_render000003.png,1,28,238,23,"[1, 0]",left,1,963,23,m,y,y,2019_May_02_1006,2AFC_task,59.9786055034218,
stimuli/rgb_scene000095_render000004.png,stimuli/rgb_scene000095_render000006.png,1,29,239,103,"[1, 0]",left,1,963,23,m,y,y,2019_May_02_1006,2AFC_task,59.9786055034218,
stimuli/rgb_scene000195_render000000.png,stimuli/rgb_scene000195_render000003.png,1,30,240,191,"[0, 1]",right,1,963,23,m,y,y,2019_May_02_1006,2AFC_task,59.9786055034218,
stimuli/rgb_scene000102_render000001.png,stimuli/rgb_scene000102_render000003.png,1,31,241,133,"[1, 0]",left,1,963,23,m,y,y,2019_May_02_1006,2AFC_task,59.9786055034218,
stimuli/rgb_scene000012_render000000.png,stimuli/rgb_scene000012_render000003.png,1,32,242,44,"[1, 0]",left,1,963,23,m,y,y,2019_May_02_1006,2AFC_task,59.9786055034218,
stimuli/rgb_scene000090_render000000.png,stimuli/rgb_scene000090_render000006.png,1,33,243,68,"[0, 1]",right,1,963,23,m,y,y,2019_May_02_1006,2AFC_task,59.9786055034218,
stimuli/rgb_scene000102_render000000.png,stimuli/rgb_scene000102_render000002.png,1,34,244,127,"[0, 1]",right,1,963,23,m,y,y,2019_May_02_1006,2AFC_task,59.9786055034218,
stimuli/rgb_scene000195_render000003.png,stimuli/rgb_scene000195_render000004.png,1,35,245,204,"[1, 0]",left,1,963,23,m,y,y,2019_May_02_1006,2AFC_task,59.9786055034218,
stimuli/rgb_scene000102_render000001.png,stimuli/rgb_scene000102_render000002.png,1,36,246,132,"[0, 1]",right,1,963,23,m,y,y,2019_May_02_1006,2AFC_task,59.9786055034218,
stimuli/rgb_scene000012_render000002.png,stimuli/rgb_scene000012_render000006.png,1,37,247,56,"[0, 1]",right,1,963,23,m,y,y,2019_May_02_1006,2AFC_task,59.9786055034218,
stimuli/rgb_scene000113_render000002.png,stimuli/rgb_scene000113_render000004.png,1,38,248,159,"[1, 0]",left,1,963,23,m,y,y,2019_May_02_1006,2AFC_task,59.9786055034218,
stimuli/rgb_scene000096_render000000.png,stimuli/rgb_scene000096_render000002.png,1,39,249,106,"[0, 1]",right,1,963,23,m,y,y,2019_May_02_1006,2AFC_task,59.9786055034218,
stimuli/rgb_scene000195_render000001.png,stimuli/rgb_scene000195_render000002.png,1,40,250,195,"[1, 0]",left,1,963,23,m,y,y,2019_May_02_1006,2AFC_task,59.9786055034218,
stimuli/rgb_scene000195_render000001.png,stimuli/rgb_scene000195_render000004.png,1,41,251,197,"[0, 1]",right,1,963,23,m,y,y,2019_May_02_1006,2AFC_task,59.9786055034218,
stimuli/rgb_scene000012_render000002.png,stimuli/rgb_scene000012_render000004.png,1,42,252,54,"[0, 1]",right,1,963,23,m,y,y,2019_May_02_1006,2AFC_task,59.9786055034218,
stimuli/rgb_scene000096_render000002.png,stimuli/rgb_scene000096_render000005.png,1,43,253,118,"[1, 0]",left,1,963,23,m,y,y,2019_May_02_1006,2AFC_task,59.9786055034218,
stimuli/rgb_scene000090_render000000.png,stimuli/rgb_scene000090_render000004.png,1,44,254,66,"[0, 1]",right,1,963,23,m,y,y,2019_May_02_1006,2AFC_task,59.9786055034218,
stimuli/rgb_scene000146_render000001.png,stimuli/rgb_scene000146_render000005.png,1,45,255,177,"[1, 0]",left,1,963,23,m,y,y,2019_May_02_1006,2AFC_task,59.9786055034218,
stimuli/rgb_scene000095_render000000.png,stimuli/rgb_scene000095_render000005.png,1,46,256,88,"[0, 1]",right,1,963,23,m,y,y,2019_May_02_1006,2AFC_task,59.9786055034218,
stimuli/rgb_scene000095_render000001.png,stimuli/rgb_scene000095_render000002.png,1,47,257,90,"[1, 0]",left,1,963,23,m,y,y,2019_May_02_1006,2AFC_task,59.9786055034218,
stimuli/rgb_scene000113_render000004.png,stimuli/rgb_scene000113_render000006.png,1,48,258,166,"[0, 1]",right,1,963,23,m,y,y,2019_May_02_1006,2AFC_task,59.9786055034218,
stimuli/rgb_scene000095_render000000.png,stimuli/rgb_scene000095_render000006.png,1,49,259,89,"[0, 1]",right,1,963,23,m,y,y,2019_May_02_1006,2AFC_task,59.9786055034218,
stimuli/rgb_scene000012_render000000.png,stimuli/rgb_scene000012_render000004.png,1,50,260,45,"[1, 0]",left,1,963,23,m,y,y,2019_May_02_1006,2AFC_task,59.9786055034218,
stimuli/rgb_scene000005_render000000.png,stimuli/rgb_scene000005_render000006.png,1,51,261,26,"[0, 1]",right,1,963,23,m,y,y,2019_May_02_1006,2AFC_task,59.9786055034218,
stimuli/rgb_scene000146_render000001.png,stimuli/rgb_scene000146_render000003.png,1,52,262,175,"[1, 0]",left,1,963,23,m,y,y,2019_May_02_1006,2AFC_task,59.9786055034218,
stimuli/rgb_scene000195_render000000.png,stimuli/rgb_scene000195_render000001.png,1,53,263,189,"[1, 0]",left,1,963,23,m,y,y,2019_May_02_1006,2AFC_task,59.9786055034218,
stimuli/rgb_scene000095_render000003.png,stimuli/rgb_scene000095_render000006.png,1,54,264,101,"[0, 1]",right,1,963,23,m,y,y,2019_May_02_1006,2AFC_task,59.9786055034218,
stimuli/rgb_scene000095_render000001.png,stimuli/rgb_scene000095_render000003.png,1,55,265,91,"[0, 1]",right,1,963,23,m,y,y,2019_May_02_1006,2AFC_task,59.9786055034218,
stimuli/rgb_scene000096_render000001.png,stimuli/rgb_scene000096_render000005.png,1,56,266,114,"[0, 1]",right,1,963,23,m,y,y,2019_May_02_1006,2AFC_task,59.9786055034218,
stimuli/rgb_scene000113_render000002.png,stimuli/rgb_scene000113_render000005.png,1,57,267,160,"[0, 1]",right,1,963,23,m,y,y,2019_May_02_1006,2AFC_task,59.9786055034218,
stimuli/rgb_scene000004_render000004.png,stimuli/rgb_scene000004_render000006.png,1,58,268,19,"[1, 0]",left,1,963,23,m,y,y,2019_May_02_1006,2AFC_task,59.9786055034218,
stimuli/rgb_scene000090_render000002.png,stimuli/rgb_scene000090_render000005.png,1,59,269,76,"[1, 0]",left,1,963,23,m,y,y,2019_May_02_1006,2AFC_task,59.9786055034218,
stimuli/rgb_scene000146_render000002.png,stimuli/rgb_scene000146_render000003.png,1,60,270,179,"[0, 1]",right,1,963,23,m,y,y,2019_May_02_1006,2AFC_task,59.9786055034218,
stimuli/rgb_scene000095_render000000.png,stimuli/rgb_scene000095_render000001.png,1,61,271,84,"[0, 1]",right,1,963,23,m,y,y,2019_May_02_1006,2AFC_task,59.9786055034218,
stimuli/rgb_scene000113_render000001.png,stimuli/rgb_scene000113_render000003.png,1,62,272,154,"[0, 1]",right,1,963,23,m,y,y,2019_May_02_1006,2AFC_task,59.9786055034218,
stimuli/rgb_scene000004_render000002.png,stimuli/rgb_scene000004_render000004.png,1,63,273,12,"[1, 0]",left,1,963,23,m,y,y,2019_May_02_1006,2AFC_task,59.9786055034218,
stimuli/rgb_scene000004_render000000.png,stimuli/rgb_scene000004_render000004.png,1,64,274,3,"[1, 0]",left,1,963,23,m,y,y,2019_May_02_1006,2AFC_task,59.9786055034218,
stimuli/rgb_scene000113_render000002.png,stimuli/rgb_scene000113_render000006.png,1,65,275,161,"[1, 0]",left,1,963,23,m,y,y,2019_May_02_1006,2AFC_task,59.9786055034218,
stimuli/rgb_scene000195_render000003.png,stimuli/rgb_scene000195_render000006.png,1,66,276,206,"[1, 0]",left,1,963,23,m,y,y,2019_May_02_1006,2AFC_task,59.9786055034218,
stimuli/rgb_scene000195_render000000.png,stimuli/rgb_scene000195_render000002.png,1,67,277,190,"[0, 1]",right,1,963,23,m,y,y,2019_May_02_1006,2AFC_task,59.9786055034218,
stimuli/rgb_scene000146_render000005.png,stimuli/rgb_scene000146_render000006.png,1,68,278,188,"[0, 1]",right,1,963,23,m,y,y,2019_May_02_1006,2AFC_task,59.9786055034218,
stimuli/rgb_scene000005_render000000.png,stimuli/rgb_scene000005_render000005.png,1,69,279,25,"[0, 1]",right,1,963,23,m,y,y,2019_May_02_1006,2AFC_task,59.9786055034218,
stimuli/rgb_scene000096_render000000.png,stimuli/rgb_scene000096_render000006.png,1,70,280,110,"[0, 1]",right,1,963,23,m,y,y,2019_May_02_1006,2AFC_task,59.9786055034218,
stimuli/rgb_scene000090_render000005.png,stimuli/rgb_scene000090_render000006.png,1,71,281,83,"[0, 1]",left,0,963,23,m,y,y,2019_May_02_1006,2AFC_task,59.9786055034218,
stimuli/rgb_scene000096_render000000.png,stimuli/rgb_scene000096_render000001.png,1,72,282,105,"[1, 0]",left,1,963,23,m,y,y,2019_May_02_1006,2AFC_task,59.9786055034218,
stimuli/rgb_scene000012_render000004.png,stimuli/rgb_scene000012_render000005.png,1,73,283,60,"[1, 0]",left,1,963,23,m,y,y,2019_May_02_1006,2AFC_task,59.9786055034218,
stimuli/rgb_scene000005_render000005.png,stimuli/rgb_scene000005_render000006.png,1,74,284,41,"[1, 0]",right,0,963,23,m,y,y,2019_May_02_1006,2AFC_task,59.9786055034218,
stimuli/rgb_scene000195_render000000.png,stimuli/rgb_scene000195_render000006.png,1,75,285,194,"[0, 1]",right,1,963,23,m,y,y,2019_May_02_1006,2AFC_task,59.9786055034218,
stimuli/rgb_scene000113_render000003.png,stimuli/rgb_scene000113_render000004.png,1,76,286,162,"[1, 0]",left,1,963,23,m,y,y,2019_May_02_1006,2AFC_task,59.9786055034218,
stimuli/rgb_scene000012_render000002.png,stimuli/rgb_scene000012_render000003.png,1,77,287,53,"[0, 1]",right,1,963,23,m,y,y,2019_May_02_1006,2AFC_task,59.9786055034218,
stimuli/rgb_scene000102_render000002.png,stimuli/rgb_scene000102_render000003.png,1,78,288,137,"[1, 0]",left,1,963,23,m,y,y,2019_May_02_1006,2AFC_task,59.9786055034218,
stimuli/rgb_scene000005_render000001.png,stimuli/rgb_scene000005_render000003.png,1,79,289,28,"[1, 0]",left,1,963,23,m,y,y,2019_May_02_1006,2AFC_task,59.9786055034218,
stimuli/rgb_scene000102_render000000.png,stimuli/rgb_scene000102_render000004.png,1,80,290,129,"[1, 0]",left,1,963,23,m,y,y,2019_May_02_1006,2AFC_task,59.9786055034218,
stimuli/rgb_scene000095_render000002.png,stimuli/rgb_scene000095_render000003.png,1,81,291,95,"[0, 1]",right,1,963,23,m,y,y,2019_May_02_1006,2AFC_task,59.9786055034218,
stimuli/rgb_scene000146_render000001.png,stimuli/rgb_scene000146_render000002.png,1,82,292,174,"[1, 0]",left,1,963,23,m,y,y,2019_May_02_1006,2AFC_task,59.9786055034218,
stimuli/rgb_scene000004_render000000.png,stimuli/rgb_scene000004_render000005.png,1,83,293,4,"[1, 0]",left,1,963,23,m,y,y,2019_May_02_1006,2AFC_task,59.9786055034218,
stimuli/rgb_scene000146_render000002.png,stimuli/rgb_scene000146_render000005.png,1,84,294,181,"[1, 0]",left,1,963,23,m,y,y,2019_May_02_1006,2AFC_task,59.9786055034218,
stimuli/rgb_scene000090_render000001.png,stimuli/rgb_scene000090_render000003.png,1,85,295,70,"[0, 1]",right,1,963,23,m,y,y,2019_May_02_1006,2AFC_task,59.9786055034218,
stimuli/rgb_scene000146_render000000.png,stimuli/rgb_scene000146_render000002.png,1,86,296,169,"[0, 1]",right,1,963,23,m,y,y,2019_May_02_1006,2AFC_task,59.9786055034218,
stimuli/rgb_scene000090_render000001.png,stimuli/rgb_scene000090_render000006.png,1,87,297,73,"[1, 0]",left,1,963,23,m,y,y,2019_May_02_1006,2AFC_task,59.9786055034218,
stimuli/rgb_scene000096_render000001.png,stimuli/rgb_scene000096_render000004.png,1,88,298,113,"[1, 0]",left,1,963,23,m,y,y,2019_May_02_1006,2AFC_task,59.9786055034218,
stimuli/rgb_scene000102_render000004.png,stimuli/rgb_scene000102_render000006.png,1,89,299,145,"[0, 1]",right,1,963,23,m,y,y,2019_May_02_1006,2AFC_task,59.9786055034218,
stimuli/rgb_scene000102_render000002.png,stimuli/rgb_scene000102_render000004.png,1,90,300,138,"[1, 0]",left,1,963,23,m,y,y,2019_May_02_1006,2AFC_task,59.9786055034218,
stimuli/rgb_scene000096_render000003.png,stimuli/rgb_scene000096_render000006.png,1,91,301,122,"[0, 1]",right,1,963,23,m,y,y,2019_May_02_1006,2AFC_task,59.9786055034218,
stimuli/rgb_scene000012_render000003.png,stimuli/rgb_scene000012_render000005.png,1,92,302,58,"[0, 1]",right,1,963,23,m,y,y,2019_May_02_1006,2AFC_task,59.9786055034218,
stimuli/rgb_scene000095_render000000.png,stimuli/rgb_scene000095_render000003.png,1,93,303,86,"[0, 1]",right,1,963,23,m,y,y,2019_May_02_1006,2AFC_task,59.9786055034218,
stimuli/rgb_scene000102_render000001.png,stimuli/rgb_scene000102_render000004.png,1,94,304,134,"[0, 1]",right,1,963,23,m,y,y,2019_May_02_1006,2AFC_task,59.9786055034218,
stimuli/rgb_scene000195_render000001.png,stimuli/rgb_scene000195_render000006.png,1,95,305,199,"[0, 1]",right,1,963,23,m,y,y,2019_May_02_1006,2AFC_task,59.9786055034218,
stimuli/rgb_scene000102_render000003.png,stimuli/rgb_scene000102_render000004.png,1,96,306,141,"[1, 0]",left,1,963,23,m,y,y,2019_May_02_1006,2AFC_task,59.9786055034218,
stimuli/rgb_scene000113_render000000.png,stimuli/rgb_scene000113_render000002.png,1,97,307,148,"[1, 0]",left,1,963,23,m,y,y,2019_May_02_1006,2AFC_task,59.9786055034218,
stimuli/rgb_scene000012_render000003.png,stimuli/rgb_scene000012_render000004.png,1,98,308,57,"[0, 1]",right,1,963,23,m,y,y,2019_May_02_1006,2AFC_task,59.9786055034218,
stimuli/rgb_scene000090_render000001.png,stimuli/rgb_scene000090_render000004.png,1,99,309,71,"[1, 0]",left,1,963,23,m,y,y,2019_May_02_1006,2AFC_task,59.9786055034218,
stimuli/rgb_scene000146_render000001.png,stimuli/rgb_scene000146_render000006.png,1,100,310,178,"[0, 1]",right,1,963,23,m,y,y,2019_May_02_1006,2AFC_task,59.9786055034218,
stimuli/rgb_scene000146_render000000.png,stimuli/rgb_scene000146_render000003.png,1,101,311,170,"[1, 0]",left,1,963,23,m,y,y,2019_May_02_1006,2AFC_task,59.9786055034218,
stimuli/rgb_scene000102_render000004.png,stimuli/rgb_scene000102_render000005.png,1,102,312,144,"[1, 0]",left,1,963,23,m,y,y,2019_May_02_1006,2AFC_task,59.9786055034218,
stimuli/rgb_scene000095_render000000.png,stimuli/rgb_scene000095_render000004.png,1,103,313,87,"[1, 0]",left,1,963,23,m,y,y,2019_May_02_1006,2AFC_task,59.9786055034218,
stimuli/rgb_scene000005_render000003.png,stimuli/rgb_scene000005_render000005.png,1,104,314,37,"[0, 1]",right,1,963,23,m,y,y,2019_May_02_1006,2AFC_task,59.9786055034218,
stimuli/rgb_scene000195_render000000.png,stimuli/rgb_scene000195_render000004.png,1,105,315,192,"[0, 1]",right,1,963,23,m,y,y,2019_May_02_1006,2AFC_task,59.9786055034218,
stimuli/rgb_scene000012_render000001.png,stimuli/rgb_scene000012_render000005.png,1,106,316,51,"[0, 1]",right,1,963,23,m,y,y,2019_May_02_1006,2AFC_task,59.9786055034218,
stimuli/rgb_scene000090_render000004.png,stimuli/rgb_scene000090_render000005.png,1,107,317,81,"[1, 0]",left,1,963,23,m,y,y,2019_May_02_1006,2AFC_task,59.9786055034218,
stimuli/rgb_scene000102_render000000.png,stimuli/rgb_scene000102_render000006.png,1,108,318,131,"[0, 1]",right,1,963,23,m,y,y,2019_May_02_1006,2AFC_task,59.9786055034218,
stimuli/rgb_scene000096_render000002.png,stimuli/rgb_scene000096_render000003.png,1,109,319,116,"[1, 0]",left,1,963,23,m,y,y,2019_May_02_1006,2AFC_task,59.9786055034218,
stimuli/rgb_scene000146_render000003.png,stimuli/rgb_scene000146_render000006.png,1,110,320,185,"[1, 0]",left,1,963,23,m,y,y,2019_May_02_1006,2AFC_task,59.9786055034218,
stimuli/rgb_scene000005_render000000.png,stimuli/rgb_scene000005_render000004.png,1,111,321,24,"[1, 0]",left,1,963,23,m,y,y,2019_May_02_1006,2AFC_task,59.9786055034218,
stimuli/rgb_scene000090_render000000.png,stimuli/rgb_scene000090_render000001.png,1,112,322,63,"[1, 0]",left,1,963,23,m,y,y,2019_May_02_1006,2AFC_task,59.9786055034218,
stimuli/rgb_scene000113_render000002.png,stimuli/rgb_scene000113_render000003.png,1,113,323,158,"[1, 0]",left,1,963,23,m,y,y,2019_May_02_1006,2AFC_task,59.9786055034218,
stimuli/rgb_scene000095_render000002.png,stimuli/rgb_scene000095_render000005.png,1,114,324,97,"[1, 0]",left,1,963,23,m,y,y,2019_May_02_1006,2AFC_task,59.9786055034218,
stimuli/rgb_scene000004_render000000.png,stimuli/rgb_scene000004_render000002.png,1,115,325,1,"[1, 0]",left,1,963,23,m,y,y,2019_May_02_1006,2AFC_task,59.9786055034218,
stimuli/rgb_scene000095_render000001.png,stimuli/rgb_scene000095_render000005.png,1,116,326,93,"[1, 0]",left,1,963,23,m,y,y,2019_May_02_1006,2AFC_task,59.9786055034218,
stimuli/rgb_scene000096_render000001.png,stimuli/rgb_scene000096_render000003.png,1,117,327,112,"[1, 0]",left,1,963,23,m,y,y,2019_May_02_1006,2AFC_task,59.9786055034218,
stimuli/rgb_scene000005_render000003.png,stimuli/rgb_scene000005_render000004.png,1,118,328,36,"[0, 1]",right,1,963,23,m,y,y,2019_May_02_1006,2AFC_task,59.9786055034218,
stimuli/rgb_scene000004_render000004.png,stimuli/rgb_scene000004_render000005.png,1,119,329,18,"[0, 1]",right,1,963,23,m,y,y,2019_May_02_1006,2AFC_task,59.9786055034218,
stimuli/rgb_scene000113_render000003.png,stimuli/rgb_scene000113_render000006.png,1,120,330,164,"[1, 0]",left,1,963,23,m,y,y,2019_May_02_1006,2AFC_task,59.9786055034218,
stimuli/rgb_scene000113_render000001.png,stimuli/rgb_scene000113_render000006.png,1,121,331,157,"[0, 1]",right,1,963,23,m,y,y,2019_May_02_1006,2AFC_task,59.9786055034218,
stimuli/rgb_scene000096_render000003.png,stimuli/rgb_scene000096_render000004.png,1,122,332,120,"[1, 0]",left,1,963,23,m,y,y,2019_May_02_1006,2AFC_task,59.9786055034218,
stimuli/rgb_scene000090_render000003.png,stimuli/rgb_scene000090_render000005.png,1,123,333,79,"[1, 0]",right,0,963,23,m,y,y,2019_May_02_1006,2AFC_task,59.9786055034218,
stimuli/rgb_scene000005_render000001.png,stimuli/rgb_scene000005_render000004.png,1,124,334,29,"[0, 1]",right,1,963,23,m,y,y,2019_May_02_1006,2AFC_task,59.9786055034218,
stimuli/rgb_scene000195_render000004.png,stimuli/rgb_scene000195_render000005.png,1,125,335,207,"[0, 1]",left,0,963,23,m,y,y,2019_May_02_1006,2AFC_task,59.9786055034218,
stimuli/rgb_scene000113_render000000.png,stimuli/rgb_scene000113_render000004.png,1,126,336,150,"[0, 1]",right,1,963,23,m,y,y,2019_May_02_1006,2AFC_task,59.9786055034218,
stimuli/rgb_scene000102_render000000.png,stimuli/rgb_scene000102_render000003.png,1,127,337,128,"[1, 0]",left,1,963,23,m,y,y,2019_May_02_1006,2AFC_task,59.9786055034218,
stimuli/rgb_scene000005_render000002.png,stimuli/rgb_scene000005_render000003.png,1,128,338,32,"[0, 1]",right,1,963,23,m,y,y,2019_May_02_1006,2AFC_task,59.9786055034218,
stimuli/rgb_scene000095_render000002.png,stimuli/rgb_scene000095_render000004.png,1,129,339,96,"[0, 1]",right,1,963,23,m,y,y,2019_May_02_1006,2AFC_task,59.9786055034218,
stimuli/rgb_scene000012_render000001.png,stimuli/rgb_scene000012_render000003.png,1,130,340,49,"[0, 1]",right,1,963,23,m,y,y,2019_May_02_1006,2AFC_task,59.9786055034218,
stimuli/rgb_scene000090_render000003.png,stimuli/rgb_scene000090_render000006.png,1,131,341,80,"[1, 0]",right,0,963,23,m,y,y,2019_May_02_1006,2AFC_task,59.9786055034218,
stimuli/rgb_scene000005_render000002.png,stimuli/rgb_scene000005_render000006.png,1,132,342,35,"[1, 0]",left,1,963,23,m,y,y,2019_May_02_1006,2AFC_task,59.9786055034218,
stimuli/rgb_scene000004_render000002.png,stimuli/rgb_scene000004_render000003.png,1,133,343,11,"[0, 1]",right,1,963,23,m,y,y,2019_May_02_1006,2AFC_task,59.9786055034218,
stimuli/rgb_scene000096_render000001.png,stimuli/rgb_scene000096_render000002.png,1,134,344,111,"[1, 0]",left,1,963,23,m,y,y,2019_May_02_1006,2AFC_task,59.9786055034218,
stimuli/rgb_scene000113_render000000.png,stimuli/rgb_scene000113_render000006.png,1,135,345,152,"[0, 1]",right,1,963,23,m,y,y,2019_May_02_1006,2AFC_task,59.9786055034218,
stimuli/rgb_scene000004_render000002.png,stimuli/rgb_scene000004_render000005.png,1,136,346,13,"[0, 1]",right,1,963,23,m,y,y,2019_May_02_1006,2AFC_task,59.9786055034218,
stimuli/rgb_scene000090_render000000.png,stimuli/rgb_scene000090_render000002.png,1,137,347,64,"[0, 1]",right,1,963,23,m,y,y,2019_May_02_1006,2AFC_task,59.9786055034218,
stimuli/rgb_scene000113_render000004.png,stimuli/rgb_scene000113_render000005.png,1,138,348,165,"[0, 1]",right,1,963,23,m,y,y,2019_May_02_1006,2AFC_task,59.9786055034218,
stimuli/rgb_scene000195_render000003.png,stimuli/rgb_scene000195_render000005.png,1,139,349,205,"[1, 0]",right,0,963,23,m,y,y,2019_May_02_1006,2AFC_task,59.9786055034218,
stimuli/rgb_scene000096_render000000.png,stimuli/rgb_scene000096_render000005.png,1,140,350,109,"[1, 0]",left,1,963,23,m,y,y,2019_May_02_1006,2AFC_task,59.9786055034218,
stimuli/rgb_scene000012_render000000.png,stimuli/rgb_scene000012_render000006.png,1,141,351,47,"[0, 1]",right,1,963,23,m,y,y,2019_May_02_1006,2AFC_task,59.9786055034218,
stimuli/rgb_scene000090_render000001.png,stimuli/rgb_scene000090_render000005.png,1,142,352,72,"[1, 0]",left,1,963,23,m,y,y,2019_May_02_1006,2AFC_task,59.9786055034218,
stimuli/rgb_scene000005_render000004.png,stimuli/rgb_scene000005_render000006.png,1,143,353,40,"[0, 1]",left,0,963,23,m,y,y,2019_May_02_1006,2AFC_task,59.9786055034218,
stimuli/rgb_scene000090_render000003.png,stimuli/rgb_scene000090_render000004.png,1,144,354,78,"[1, 0]",left,1,963,23,m,y,y,2019_May_02_1006,2AFC_task,59.9786055034218,
stimuli/rgb_scene000113_render000001.png,stimuli/rgb_scene000113_render000005.png,1,145,355,156,"[0, 1]",right,1,963,23,m,y,y,2019_May_02_1006,2AFC_task,59.9786055034218,
stimuli/rgb_scene000146_render000000.png,stimuli/rgb_scene000146_render000001.png,1,146,356,168,"[0, 1]",right,1,963,23,m,y,y,2019_May_02_1006,2AFC_task,59.9786055034218,
stimuli/rgb_scene000113_render000000.png,stimuli/rgb_scene000113_render000001.png,1,147,357,147,"[0, 1]",right,1,963,23,m,y,y,2019_May_02_1006,2AFC_task,59.9786055034218,
stimuli/rgb_scene000096_render000004.png,stimuli/rgb_scene000096_render000006.png,1,148,358,124,"[1, 0]",left,1,963,23,m,y,y,2019_May_02_1006,2AFC_task,59.9786055034218,
stimuli/rgb_scene000096_render000001.png,stimuli/rgb_scene000096_render000006.png,1,149,359,115,"[0, 1]",right,1,963,23,m,y,y,2019_May_02_1006,2AFC_task,59.9786055034218,
stimuli/rgb_scene000090_render000002.png,stimuli/rgb_scene000090_render000006.png,1,150,360,77,"[0, 1]",right,1,963,23,m,y,y,2019_May_02_1006,2AFC_task,59.9786055034218,
stimuli/rgb_scene000102_render000002.png,stimuli/rgb_scene000102_render000005.png,1,151,361,139,"[1, 0]",left,1,963,23,m,y,y,2019_May_02_1006,2AFC_task,59.9786055034218,
stimuli/rgb_scene000096_render000000.png,stimuli/rgb_scene000096_render000004.png,1,152,362,108,"[1, 0]",left,1,963,23,m,y,y,2019_May_02_1006,2AFC_task,59.9786055034218,
stimuli/rgb_scene000090_render000000.png,stimuli/rgb_scene000090_render000003.png,1,153,363,65,"[1, 0]",left,1,963,23,m,y,y,2019_May_02_1006,2AFC_task,59.9786055034218,
stimuli/rgb_scene000095_render000001.png,stimuli/rgb_scene000095_render000006.png,1,154,364,94,"[1, 0]",left,1,963,23,m,y,y,2019_May_02_1006,2AFC_task,59.9786055034218,
stimuli/rgb_scene000005_render000004.png,stimuli/rgb_scene000005_render000005.png,1,155,365,39,"[1, 0]",left,1,963,23,m,y,y,2019_May_02_1006,2AFC_task,59.9786055034218,
stimuli/rgb_scene000004_render000001.png,stimuli/rgb_scene000004_render000005.png,1,156,366,9,"[1, 0]",left,1,963,23,m,y,y,2019_May_02_1006,2AFC_task,59.9786055034218,
stimuli/rgb_scene000004_render000000.png,stimuli/rgb_scene000004_render000003.png,1,157,367,2,"[0, 1]",right,1,963,23,m,y,y,2019_May_02_1006,2AFC_task,59.9786055034218,
stimuli/rgb_scene000012_render000005.png,stimuli/rgb_scene000012_render000006.png,1,158,368,62,"[1, 0]",right,0,963,23,m,y,y,2019_May_02_1006,2AFC_task,59.9786055034218,
stimuli/rgb_scene000005_render000001.png,stimuli/rgb_scene000005_render000002.png,1,159,369,27,"[1, 0]",left,1,963,23,m,y,y,2019_May_02_1006,2AFC_task,59.9786055034218,
stimuli/rgb_scene000146_render000004.png,stimuli/rgb_scene000146_render000005.png,1,160,370,186,"[0, 1]",right,1,963,23,m,y,y,2019_May_02_1006,2AFC_task,59.9786055034218,
stimuli/rgb_scene000113_render000001.png,stimuli/rgb_scene000113_render000002.png,1,161,371,153,"[1, 0]",left,1,963,23,m,y,y,2019_May_02_1006,2AFC_task,59.9786055034218,
stimuli/rgb_scene000004_render000003.png,stimuli/rgb_scene000004_render000006.png,1,162,372,17,"[1, 0]",left,1,963,23,m,y,y,2019_May_02_1006,2AFC_task,59.9786055034218,
stimuli/rgb_scene000096_render000005.png,stimuli/rgb_scene000096_render000006.png,1,163,373,125,"[0, 1]",right,1,963,23,m,y,y,2019_May_02_1006,2AFC_task,59.9786055034218,
stimuli/rgb_scene000113_render000005.png,stimuli/rgb_scene000113_render000006.png,1,164,374,167,"[1, 0]",left,1,963,23,m,y,y,2019_May_02_1006,2AFC_task,59.9786055034218,
stimuli/rgb_scene000095_render000003.png,stimuli/rgb_scene000095_render000005.png,1,165,375,100,"[0, 1]",right,1,963,23,m,y,y,2019_May_02_1006,2AFC_task,59.9786055034218,
stimuli/rgb_scene000195_render000002.png,stimuli/rgb_scene000195_render000005.png,1,166,376,202,"[0, 1]",right,1,963,23,m,y,y,2019_May_02_1006,2AFC_task,59.9786055034218,
stimuli/rgb_scene000113_render000000.png,stimuli/rgb_scene000113_render000005.png,1,167,377,151,"[1, 0]",left,1,963,23,m,y,y,2019_May_02_1006,2AFC_task,59.9786055034218,
stimuli/rgb_scene000012_render000002.png,stimuli/rgb_scene000012_render000005.png,1,168,378,55,"[1, 0]",left,1,963,23,m,y,y,2019_May_02_1006,2AFC_task,59.9786055034218,
stimuli/rgb_scene000102_render000001.png,stimuli/rgb_scene000102_render000005.png,1,169,379,135,"[1, 0]",left,1,963,23,m,y,y,2019_May_02_1006,2AFC_task,59.9786055034218,
stimuli/rgb_scene000146_render000002.png,stimuli/rgb_scene000146_render000004.png,1,170,380,180,"[0, 1]",right,1,963,23,m,y,y,2019_May_02_1006,2AFC_task,59.9786055034218,
stimuli/rgb_scene000005_render000001.png,stimuli/rgb_scene000005_render000005.png,1,171,381,30,"[1, 0]",left,1,963,23,m,y,y,2019_May_02_1006,2AFC_task,59.9786055034218,
stimuli/rgb_scene000095_render000003.png,stimuli/rgb_scene000095_render000004.png,1,172,382,99,"[0, 1]",right,1,963,23,m,y,y,2019_May_02_1006,2AFC_task,59.9786055034218,
stimuli/rgb_scene000005_render000002.png,stimuli/rgb_scene000005_render000004.png,1,173,383,33,"[0, 1]",right,1,963,23,m,y,y,2019_May_02_1006,2AFC_task,59.9786055034218,
stimuli/rgb_scene000146_render000001.png,stimuli/rgb_scene000146_render000004.png,1,174,384,176,"[1, 0]",left,1,963,23,m,y,y,2019_May_02_1006,2AFC_task,59.9786055034218,
stimuli/rgb_scene000096_render000004.png,stimuli/rgb_scene000096_render000005.png,1,175,385,123,"[1, 0]",left,1,963,23,m,y,y,2019_May_02_1006,2AFC_task,59.9786055034218,
stimuli/rgb_scene000195_render000004.png,stimuli/rgb_scene000195_render000006.png,1,176,386,208,"[0, 1]",left,0,963,23,m,y,y,2019_May_02_1006,2AFC_task,59.9786055034218,
stimuli/rgb_scene000012_render000000.png,stimuli/rgb_scene000012_render000001.png,1,177,387,42,"[1, 0]",left,1,963,23,m,y,y,2019_May_02_1006,2AFC_task,59.9786055034218,
stimuli/rgb_scene000146_render000003.png,stimuli/rgb_scene000146_render000005.png,1,178,388,184,"[0, 1]",right,1,963,23,m,y,y,2019_May_02_1006,2AFC_task,59.9786055034218,
stimuli/rgb_scene000004_render000001.png,stimuli/rgb_scene000004_render000003.png,1,179,389,7,"[1, 0]",left,1,963,23,m,y,y,2019_May_02_1006,2AFC_task,59.9786055034218,
stimuli/rgb_scene000005_render000001.png,stimuli/rgb_scene000005_render000006.png,1,180,390,31,"[0, 1]",right,1,963,23,m,y,y,2019_May_02_1006,2AFC_task,59.9786055034218,
stimuli/rgb_scene000195_render000005.png,stimuli/rgb_scene000195_render000006.png,1,181,391,209,"[1, 0]",right,0,963,23,m,y,y,2019_May_02_1006,2AFC_task,59.9786055034218,
stimuli/rgb_scene000096_render000002.png,stimuli/rgb_scene000096_render000004.png,1,182,392,117,"[0, 1]",right,1,963,23,m,y,y,2019_May_02_1006,2AFC_task,59.9786055034218,
stimuli/rgb_scene000195_render000001.png,stimuli/rgb_scene000195_render000005.png,1,183,393,198,"[0, 1]",right,1,963,23,m,y,y,2019_May_02_1006,2AFC_task,59.9786055034218,
stimuli/rgb_scene000195_render000001.png,stimuli/rgb_scene000195_render000003.png,1,184,394,196,"[1, 0]",left,1,963,23,m,y,y,2019_May_02_1006,2AFC_task,59.9786055034218,
stimuli/rgb_scene000004_render000000.png,stimuli/rgb_scene000004_render000006.png,1,185,395,5,"[1, 0]",left,1,963,23,m,y,y,2019_May_02_1006,2AFC_task,59.9786055034218,
stimuli/rgb_scene000004_render000003.png,stimuli/rgb_scene000004_render000004.png,1,186,396,15,"[1, 0]",left,1,963,23,m,y,y,2019_May_02_1006,2AFC_task,59.9786055034218,
stimuli/rgb_scene000146_render000000.png,stimuli/rgb_scene000146_render000006.png,1,187,397,173,"[1, 0]",left,1,963,23,m,y,y,2019_May_02_1006,2AFC_task,59.9786055034218,
stimuli/rgb_scene000004_render000005.png,stimuli/rgb_scene000004_render000006.png,1,188,398,20,"[1, 0]",left,1,963,23,m,y,y,2019_May_02_1006,2AFC_task,59.9786055034218,
stimuli/rgb_scene000090_render000000.png,stimuli/rgb_scene000090_render000005.png,1,189,399,67,"[0, 1]",right,1,963,23,m,y,y,2019_May_02_1006,2AFC_task,59.9786055034218,
stimuli/rgb_scene000090_render000001.png,stimuli/rgb_scene000090_render000002.png,1,190,400,69,"[1, 0]",left,1,963,23,m,y,y,2019_May_02_1006,2AFC_task,59.9786055034218,
stimuli/rgb_scene000102_render000005.png,stimuli/rgb_scene000102_render000006.png,1,191,401,146,"[0, 1]",right,1,963,23,m,y,y,2019_May_02_1006,2AFC_task,59.9786055034218,
stimuli/rgb_scene000113_render000003.png,stimuli/rgb_scene000113_render000005.png,1,192,402,163,"[0, 1]",right,1,963,23,m,y,y,2019_May_02_1006,2AFC_task,59.9786055034218,
stimuli/rgb_scene000195_render000002.png,stimuli/rgb_scene000195_render000006.png,1,193,403,203,"[0, 1]",right,1,963,23,m,y,y,2019_May_02_1006,2AFC_task,59.9786055034218,
stimuli/rgb_scene000012_render000001.png,stimuli/rgb_scene000012_render000004.png,1,194,404,50,"[1, 0]",left,1,963,23,m,y,y,2019_May_02_1006,2AFC_task,59.9786055034218,
stimuli/rgb_scene000012_render000003.png,stimuli/rgb_scene000012_render000006.png,1,195,405,59,"[1, 0]",right,0,963,23,m,y,y,2019_May_02_1006,2AFC_task,59.9786055034218,
stimuli/rgb_scene000090_render000004.png,stimuli/rgb_scene000090_render000006.png,1,196,406,82,"[1, 0]",right,0,963,23,m,y,y,2019_May_02_1006,2AFC_task,59.9786055034218,
stimuli/rgb_scene000102_render000001.png,stimuli/rgb_scene000102_render000006.png,1,197,407,136,"[0, 1]",right,1,963,23,m,y,y,2019_May_02_1006,2AFC_task,59.9786055034218,
stimuli/rgb_scene000004_render000001.png,stimuli/rgb_scene000004_render000006.png,1,198,408,10,"[1, 0]",left,1,963,23,m,y,y,2019_May_02_1006,2AFC_task,59.9786055034218,
stimuli/rgb_scene000102_render000000.png,stimuli/rgb_scene000102_render000005.png,1,199,409,130,"[0, 1]",right,1,963,23,m,y,y,2019_May_02_1006,2AFC_task,59.9786055034218,
stimuli/rgb_scene000012_render000004.png,stimuli/rgb_scene000012_render000006.png,1,200,410,61,"[0, 1]",left,0,963,23,m,y,y,2019_May_02_1006,2AFC_task,59.9786055034218,
stimuli/rgb_scene000090_render000002.png,stimuli/rgb_scene000090_render000003.png,1,201,411,74,"[1, 0]",left,1,963,23,m,y,y,2019_May_02_1006,2AFC_task,59.9786055034218,
stimuli/rgb_scene000004_render000002.png,stimuli/rgb_scene000004_render000006.png,1,202,412,14,"[1, 0]",left,1,963,23,m,y,y,2019_May_02_1006,2AFC_task,59.9786055034218,
stimuli/rgb_scene000102_render000003.png,stimuli/rgb_scene000102_render000006.png,1,203,413,143,"[1, 0]",left,1,963,23,m,y,y,2019_May_02_1006,2AFC_task,59.9786055034218,
stimuli/rgb_scene000095_render000004.png,stimuli/rgb_scene000095_render000005.png,1,204,414,102,"[1, 0]",left,1,963,23,m,y,y,2019_May_02_1006,2AFC_task,59.9786055034218,
stimuli/rgb_scene000146_render000002.png,stimuli/rgb_scene000146_render000006.png,1,205,415,182,"[1, 0]",left,1,963,23,m,y,y,2019_May_02_1006,2AFC_task,59.9786055034218,
stimuli/rgb_scene000096_render000003.png,stimuli/rgb_scene000096_render000005.png,1,206,416,121,"[1, 0]",left,1,963,23,m,y,y,2019_May_02_1006,2AFC_task,59.9786055034218,
stimuli/rgb_scene000195_render000002.png,stimuli/rgb_scene000195_render000003.png,1,207,417,200,"[0, 1]",right,1,963,23,m,y,y,2019_May_02_1006,2AFC_task,59.9786055034218,
stimuli/rgb_scene000146_render000003.png,stimuli/rgb_scene000146_render000004.png,1,208,418,183,"[1, 0]",left,1,963,23,m,y,y,2019_May_02_1006,2AFC_task,59.9786055034218,
stimuli/rgb_scene000004_render000001.png,stimuli/rgb_scene000004_render000004.png,1,209,419,8,"[1, 0]",left,1,963,23,m,y,y,2019_May_02_1006,2AFC_task,59.9786055034218,
