stimOne,stimTwo,stimThree,stimFour,stimFive,trials_1.thisRepN,trials_1.thisTrialN,trials_1.thisN,trials_1.thisIndex,presentation_positions,placement_order,participant ID (two digits, e.g. 01),age,gender (m/f/-),normal or corrected-to-normal vision (y/n),normal colour vision (y/n),date,expName,frameRate,
stimuli/MODEL_filters-64_resnets-3_logmixes-12_latents-10_repeat-01_SEED09_STEP00.png,stimuli/MODEL_filters-64_resnets-3_logmixes-12_latents-10_repeat-01_SEED09_STEP01.png,stimuli/MODEL_filters-64_resnets-3_logmixes-12_latents-10_repeat-01_SEED09_STEP02.png,stimuli/MODEL_filters-64_resnets-3_logmixes-12_latents-10_repeat-01_SEED09_STEP03.png,stimuli/MODEL_filters-64_resnets-3_logmixes-12_latents-10_repeat-01_SEED09_STEP04.png,0,0,0,15,"[0, 1, 3, 4, 2]","[2, 3, 1, 4, 5]",02,26,f,y,y,2019_Apr_03_1312,gloss_ordering_task,59.917473521694866,
stimuli/MODEL_filters-64_resnets-3_logmixes-12_latents-10_repeat-04_SEED09_STEP00.png,stimuli/MODEL_filters-64_resnets-3_logmixes-12_latents-10_repeat-04_SEED09_STEP01.png,stimuli/MODEL_filters-64_resnets-3_logmixes-12_latents-10_repeat-04_SEED09_STEP02.png,stimuli/MODEL_filters-64_resnets-3_logmixes-12_latents-10_repeat-04_SEED09_STEP03.png,stimuli/MODEL_filters-64_resnets-3_logmixes-12_latents-10_repeat-04_SEED09_STEP04.png,0,1,1,39,"[0, 4, 1, 3, 2]","[5, 4, 3, 2, 1]",02,26,f,y,y,2019_Apr_03_1312,gloss_ordering_task,59.917473521694866,
stimuli/MODEL_filters-64_resnets-3_logmixes-12_latents-10_repeat-06_SEED09_STEP00.png,stimuli/MODEL_filters-64_resnets-3_logmixes-12_latents-10_repeat-06_SEED09_STEP01.png,stimuli/MODEL_filters-64_resnets-3_logmixes-12_latents-10_repeat-06_SEED09_STEP02.png,stimuli/MODEL_filters-64_resnets-3_logmixes-12_latents-10_repeat-06_SEED09_STEP03.png,stimuli/MODEL_filters-64_resnets-3_logmixes-12_latents-10_repeat-06_SEED09_STEP04.png,0,2,2,55,"[2, 0, 4, 3, 1]","[2, 1, 3, 4, 5]",02,26,f,y,y,2019_Apr_03_1312,gloss_ordering_task,59.917473521694866,
stimuli/MODEL_filters-64_resnets-3_logmixes-12_latents-10_repeat-08_SEED06_STEP00.png,stimuli/MODEL_filters-64_resnets-3_logmixes-12_latents-10_repeat-08_SEED06_STEP01.png,stimuli/MODEL_filters-64_resnets-3_logmixes-12_latents-10_repeat-08_SEED06_STEP02.png,stimuli/MODEL_filters-64_resnets-3_logmixes-12_latents-10_repeat-08_SEED06_STEP03.png,stimuli/MODEL_filters-64_resnets-3_logmixes-12_latents-10_repeat-08_SEED06_STEP04.png,0,3,3,69,"[0, 1, 4, 2, 3]","[3, 2, 4, 1, 5]",02,26,f,y,y,2019_Apr_03_1312,gloss_ordering_task,59.917473521694866,
stimuli/MODEL_filters-64_resnets-3_logmixes-12_latents-10_repeat-08_SEED04_STEP00.png,stimuli/MODEL_filters-64_resnets-3_logmixes-12_latents-10_repeat-08_SEED04_STEP01.png,stimuli/MODEL_filters-64_resnets-3_logmixes-12_latents-10_repeat-08_SEED04_STEP02.png,stimuli/MODEL_filters-64_resnets-3_logmixes-12_latents-10_repeat-08_SEED04_STEP03.png,stimuli/MODEL_filters-64_resnets-3_logmixes-12_latents-10_repeat-08_SEED04_STEP04.png,0,4,4,67,"[0, 4, 3, 2, 1]","[4, 3, 5, 1, 2]",02,26,f,y,y,2019_Apr_03_1312,gloss_ordering_task,59.917473521694866,
stimuli/MODEL_filters-64_resnets-3_logmixes-12_latents-10_repeat-03_SEED06_STEP00.png,stimuli/MODEL_filters-64_resnets-3_logmixes-12_latents-10_repeat-03_SEED06_STEP01.png,stimuli/MODEL_filters-64_resnets-3_logmixes-12_latents-10_repeat-03_SEED06_STEP02.png,stimuli/MODEL_filters-64_resnets-3_logmixes-12_latents-10_repeat-03_SEED06_STEP03.png,stimuli/MODEL_filters-64_resnets-3_logmixes-12_latents-10_repeat-03_SEED06_STEP04.png,0,5,5,29,"[3, 1, 4, 2, 0]","[1, 2, 3, 4, 5]",02,26,f,y,y,2019_Apr_03_1312,gloss_ordering_task,59.917473521694866,
stimuli/MODEL_filters-64_resnets-3_logmixes-12_latents-10_repeat-00_SEED06_STEP00.png,stimuli/MODEL_filters-64_resnets-3_logmixes-12_latents-10_repeat-00_SEED06_STEP01.png,stimuli/MODEL_filters-64_resnets-3_logmixes-12_latents-10_repeat-00_SEED06_STEP02.png,stimuli/MODEL_filters-64_resnets-3_logmixes-12_latents-10_repeat-00_SEED06_STEP03.png,stimuli/MODEL_filters-64_resnets-3_logmixes-12_latents-10_repeat-00_SEED06_STEP04.png,0,6,6,5,"[1, 3, 4, 0, 2]","[1, 4, 2, 3, 5]",02,26,f,y,y,2019_Apr_03_1312,gloss_ordering_task,59.917473521694866,
stimuli/MODEL_filters-64_resnets-3_logmixes-12_latents-10_repeat-02_SEED03_STEP00.png,stimuli/MODEL_filters-64_resnets-3_logmixes-12_latents-10_repeat-02_SEED03_STEP01.png,stimuli/MODEL_filters-64_resnets-3_logmixes-12_latents-10_repeat-02_SEED03_STEP02.png,stimuli/MODEL_filters-64_resnets-3_logmixes-12_latents-10_repeat-02_SEED03_STEP03.png,stimuli/MODEL_filters-64_resnets-3_logmixes-12_latents-10_repeat-02_SEED03_STEP04.png,0,7,7,18,"[1, 2, 0, 3, 4]","[2, 1, 3, 4, 5]",02,26,f,y,y,2019_Apr_03_1312,gloss_ordering_task,59.917473521694866,
stimuli/MODEL_filters-64_resnets-3_logmixes-12_latents-10_repeat-06_SEED03_STEP00.png,stimuli/MODEL_filters-64_resnets-3_logmixes-12_latents-10_repeat-06_SEED03_STEP01.png,stimuli/MODEL_filters-64_resnets-3_logmixes-12_latents-10_repeat-06_SEED03_STEP02.png,stimuli/MODEL_filters-64_resnets-3_logmixes-12_latents-10_repeat-06_SEED03_STEP03.png,stimuli/MODEL_filters-64_resnets-3_logmixes-12_latents-10_repeat-06_SEED03_STEP04.png,0,8,8,50,"[2, 0, 4, 3, 1]","[1, 2, 4, 3, 5]",02,26,f,y,y,2019_Apr_03_1312,gloss_ordering_task,59.917473521694866,
stimuli/MODEL_filters-64_resnets-3_logmixes-12_latents-10_repeat-01_SEED05_STEP00.png,stimuli/MODEL_filters-64_resnets-3_logmixes-12_latents-10_repeat-01_SEED05_STEP01.png,stimuli/MODEL_filters-64_resnets-3_logmixes-12_latents-10_repeat-01_SEED05_STEP02.png,stimuli/MODEL_filters-64_resnets-3_logmixes-12_latents-10_repeat-01_SEED05_STEP03.png,stimuli/MODEL_filters-64_resnets-3_logmixes-12_latents-10_repeat-01_SEED05_STEP04.png,0,9,9,12,"[1, 2, 3, 0, 4]","[1, 2, 3, 4, 5]",02,26,f,y,y,2019_Apr_03_1312,gloss_ordering_task,59.917473521694866,
stimuli/MODEL_filters-64_resnets-3_logmixes-12_latents-10_repeat-08_SEED03_STEP00.png,stimuli/MODEL_filters-64_resnets-3_logmixes-12_latents-10_repeat-08_SEED03_STEP01.png,stimuli/MODEL_filters-64_resnets-3_logmixes-12_latents-10_repeat-08_SEED03_STEP02.png,stimuli/MODEL_filters-64_resnets-3_logmixes-12_latents-10_repeat-08_SEED03_STEP03.png,stimuli/MODEL_filters-64_resnets-3_logmixes-12_latents-10_repeat-08_SEED03_STEP04.png,0,10,10,66,"[1, 3, 2, 0, 4]","[1, 2, 3, 4, 5]",02,26,f,y,y,2019_Apr_03_1312,gloss_ordering_task,59.917473521694866,
stimuli/MODEL_filters-64_resnets-3_logmixes-12_latents-10_repeat-04_SEED05_STEP00.png,stimuli/MODEL_filters-64_resnets-3_logmixes-12_latents-10_repeat-04_SEED05_STEP01.png,stimuli/MODEL_filters-64_resnets-3_logmixes-12_latents-10_repeat-04_SEED05_STEP02.png,stimuli/MODEL_filters-64_resnets-3_logmixes-12_latents-10_repeat-04_SEED05_STEP03.png,stimuli/MODEL_filters-64_resnets-3_logmixes-12_latents-10_repeat-04_SEED05_STEP04.png,0,11,11,36,"[4, 1, 3, 2, 0]","[5, 4, 3, 2, 1]",02,26,f,y,y,2019_Apr_03_1312,gloss_ordering_task,59.917473521694866,
stimuli/MODEL_filters-64_resnets-3_logmixes-12_latents-10_repeat-02_SEED04_STEP00.png,stimuli/MODEL_filters-64_resnets-3_logmixes-12_latents-10_repeat-02_SEED04_STEP01.png,stimuli/MODEL_filters-64_resnets-3_logmixes-12_latents-10_repeat-02_SEED04_STEP02.png,stimuli/MODEL_filters-64_resnets-3_logmixes-12_latents-10_repeat-02_SEED04_STEP03.png,stimuli/MODEL_filters-64_resnets-3_logmixes-12_latents-10_repeat-02_SEED04_STEP04.png,0,12,12,19,"[0, 1, 2, 3, 4]","[1, 2, 4, 3, 5]",02,26,f,y,y,2019_Apr_03_1312,gloss_ordering_task,59.917473521694866,
stimuli/MODEL_filters-64_resnets-3_logmixes-12_latents-10_repeat-03_SEED02_STEP00.png,stimuli/MODEL_filters-64_resnets-3_logmixes-12_latents-10_repeat-03_SEED02_STEP01.png,stimuli/MODEL_filters-64_resnets-3_logmixes-12_latents-10_repeat-03_SEED02_STEP02.png,stimuli/MODEL_filters-64_resnets-3_logmixes-12_latents-10_repeat-03_SEED02_STEP03.png,stimuli/MODEL_filters-64_resnets-3_logmixes-12_latents-10_repeat-03_SEED02_STEP04.png,0,13,13,25,"[3, 4, 2, 1, 0]","[2, 4, 3, 5, 1]",02,26,f,y,y,2019_Apr_03_1312,gloss_ordering_task,59.917473521694866,
stimuli/MODEL_filters-64_resnets-3_logmixes-12_latents-10_repeat-05_SEED04_STEP00.png,stimuli/MODEL_filters-64_resnets-3_logmixes-12_latents-10_repeat-05_SEED04_STEP01.png,stimuli/MODEL_filters-64_resnets-3_logmixes-12_latents-10_repeat-05_SEED04_STEP02.png,stimuli/MODEL_filters-64_resnets-3_logmixes-12_latents-10_repeat-05_SEED04_STEP03.png,stimuli/MODEL_filters-64_resnets-3_logmixes-12_latents-10_repeat-05_SEED04_STEP04.png,0,14,14,43,"[3, 1, 2, 4, 0]","[1, 4, 2, 3, 5]",02,26,f,y,y,2019_Apr_03_1312,gloss_ordering_task,59.917473521694866,
stimuli/MODEL_filters-64_resnets-3_logmixes-12_latents-10_repeat-04_SEED07_STEP00.png,stimuli/MODEL_filters-64_resnets-3_logmixes-12_latents-10_repeat-04_SEED07_STEP01.png,stimuli/MODEL_filters-64_resnets-3_logmixes-12_latents-10_repeat-04_SEED07_STEP02.png,stimuli/MODEL_filters-64_resnets-3_logmixes-12_latents-10_repeat-04_SEED07_STEP03.png,stimuli/MODEL_filters-64_resnets-3_logmixes-12_latents-10_repeat-04_SEED07_STEP04.png,0,15,15,38,"[3, 1, 2, 4, 0]","[5, 4, 3, 1, 2]",02,26,f,y,y,2019_Apr_03_1312,gloss_ordering_task,59.917473521694866,
stimuli/MODEL_filters-64_resnets-3_logmixes-12_latents-10_repeat-05_SEED02_STEP00.png,stimuli/MODEL_filters-64_resnets-3_logmixes-12_latents-10_repeat-05_SEED02_STEP01.png,stimuli/MODEL_filters-64_resnets-3_logmixes-12_latents-10_repeat-05_SEED02_STEP02.png,stimuli/MODEL_filters-64_resnets-3_logmixes-12_latents-10_repeat-05_SEED02_STEP03.png,stimuli/MODEL_filters-64_resnets-3_logmixes-12_latents-10_repeat-05_SEED02_STEP04.png,0,16,16,41,"[0, 3, 2, 4, 1]","[2, 1, 5, 3, 4]",02,26,f,y,y,2019_Apr_03_1312,gloss_ordering_task,59.917473521694866,
stimuli/MODEL_filters-64_resnets-3_logmixes-12_latents-10_repeat-01_SEED02_STEP00.png,stimuli/MODEL_filters-64_resnets-3_logmixes-12_latents-10_repeat-01_SEED02_STEP01.png,stimuli/MODEL_filters-64_resnets-3_logmixes-12_latents-10_repeat-01_SEED02_STEP02.png,stimuli/MODEL_filters-64_resnets-3_logmixes-12_latents-10_repeat-01_SEED02_STEP03.png,stimuli/MODEL_filters-64_resnets-3_logmixes-12_latents-10_repeat-01_SEED02_STEP04.png,0,17,17,9,"[2, 1, 4, 0, 3]","[1, 4, 3, 2, 5]",02,26,f,y,y,2019_Apr_03_1312,gloss_ordering_task,59.917473521694866,
stimuli/MODEL_filters-64_resnets-3_logmixes-12_latents-10_repeat-03_SEED04_STEP00.png,stimuli/MODEL_filters-64_resnets-3_logmixes-12_latents-10_repeat-03_SEED04_STEP01.png,stimuli/MODEL_filters-64_resnets-3_logmixes-12_latents-10_repeat-03_SEED04_STEP02.png,stimuli/MODEL_filters-64_resnets-3_logmixes-12_latents-10_repeat-03_SEED04_STEP03.png,stimuli/MODEL_filters-64_resnets-3_logmixes-12_latents-10_repeat-03_SEED04_STEP04.png,0,18,18,27,"[3, 0, 4, 1, 2]","[1, 2, 4, 3, 5]",02,26,f,y,y,2019_Apr_03_1312,gloss_ordering_task,59.917473521694866,
stimuli/MODEL_filters-64_resnets-3_logmixes-12_latents-10_repeat-06_SEED06_STEP00.png,stimuli/MODEL_filters-64_resnets-3_logmixes-12_latents-10_repeat-06_SEED06_STEP01.png,stimuli/MODEL_filters-64_resnets-3_logmixes-12_latents-10_repeat-06_SEED06_STEP02.png,stimuli/MODEL_filters-64_resnets-3_logmixes-12_latents-10_repeat-06_SEED06_STEP03.png,stimuli/MODEL_filters-64_resnets-3_logmixes-12_latents-10_repeat-06_SEED06_STEP04.png,0,19,19,53,"[2, 4, 1, 0, 3]","[3, 1, 4, 2, 5]",02,26,f,y,y,2019_Apr_03_1312,gloss_ordering_task,59.917473521694866,
stimuli/MODEL_filters-64_resnets-3_logmixes-12_latents-10_repeat-09_SEED04_STEP00.png,stimuli/MODEL_filters-64_resnets-3_logmixes-12_latents-10_repeat-09_SEED04_STEP01.png,stimuli/MODEL_filters-64_resnets-3_logmixes-12_latents-10_repeat-09_SEED04_STEP02.png,stimuli/MODEL_filters-64_resnets-3_logmixes-12_latents-10_repeat-09_SEED04_STEP03.png,stimuli/MODEL_filters-64_resnets-3_logmixes-12_latents-10_repeat-09_SEED04_STEP04.png,0,20,20,75,"[2, 4, 1, 3, 0]","[3, 1, 2, 4, 5]",02,26,f,y,y,2019_Apr_03_1312,gloss_ordering_task,59.917473521694866,
stimuli/MODEL_filters-64_resnets-3_logmixes-12_latents-10_repeat-09_SEED09_STEP00.png,stimuli/MODEL_filters-64_resnets-3_logmixes-12_latents-10_repeat-09_SEED09_STEP01.png,stimuli/MODEL_filters-64_resnets-3_logmixes-12_latents-10_repeat-09_SEED09_STEP02.png,stimuli/MODEL_filters-64_resnets-3_logmixes-12_latents-10_repeat-09_SEED09_STEP03.png,stimuli/MODEL_filters-64_resnets-3_logmixes-12_latents-10_repeat-09_SEED09_STEP04.png,0,21,21,79,"[1, 0, 4, 3, 2]","[1, 2, 3, 4, 5]",02,26,f,y,y,2019_Apr_03_1312,gloss_ordering_task,59.917473521694866,
stimuli/MODEL_filters-64_resnets-3_logmixes-12_latents-10_repeat-01_SEED07_STEP00.png,stimuli/MODEL_filters-64_resnets-3_logmixes-12_latents-10_repeat-01_SEED07_STEP01.png,stimuli/MODEL_filters-64_resnets-3_logmixes-12_latents-10_repeat-01_SEED07_STEP02.png,stimuli/MODEL_filters-64_resnets-3_logmixes-12_latents-10_repeat-01_SEED07_STEP03.png,stimuli/MODEL_filters-64_resnets-3_logmixes-12_latents-10_repeat-01_SEED07_STEP04.png,0,22,22,14,"[3, 1, 2, 4, 0]","[1, 3, 2, 4, 5]",02,26,f,y,y,2019_Apr_03_1312,gloss_ordering_task,59.917473521694866,
stimuli/MODEL_filters-64_resnets-3_logmixes-12_latents-10_repeat-02_SEED06_STEP00.png,stimuli/MODEL_filters-64_resnets-3_logmixes-12_latents-10_repeat-02_SEED06_STEP01.png,stimuli/MODEL_filters-64_resnets-3_logmixes-12_latents-10_repeat-02_SEED06_STEP02.png,stimuli/MODEL_filters-64_resnets-3_logmixes-12_latents-10_repeat-02_SEED06_STEP03.png,stimuli/MODEL_filters-64_resnets-3_logmixes-12_latents-10_repeat-02_SEED06_STEP04.png,0,23,23,21,"[3, 4, 1, 0, 2]","[2, 1, 3, 4, 5]",02,26,f,y,y,2019_Apr_03_1312,gloss_ordering_task,59.917473521694866,
stimuli/MODEL_filters-64_resnets-3_logmixes-12_latents-10_repeat-07_SEED09_STEP00.png,stimuli/MODEL_filters-64_resnets-3_logmixes-12_latents-10_repeat-07_SEED09_STEP01.png,stimuli/MODEL_filters-64_resnets-3_logmixes-12_latents-10_repeat-07_SEED09_STEP02.png,stimuli/MODEL_filters-64_resnets-3_logmixes-12_latents-10_repeat-07_SEED09_STEP03.png,stimuli/MODEL_filters-64_resnets-3_logmixes-12_latents-10_repeat-07_SEED09_STEP04.png,0,24,24,63,"[1, 4, 2, 0, 3]","[5, 4, 3, 2, 1]",02,26,f,y,y,2019_Apr_03_1312,gloss_ordering_task,59.917473521694866,
stimuli/MODEL_filters-64_resnets-3_logmixes-12_latents-10_repeat-07_SEED02_STEP00.png,stimuli/MODEL_filters-64_resnets-3_logmixes-12_latents-10_repeat-07_SEED02_STEP01.png,stimuli/MODEL_filters-64_resnets-3_logmixes-12_latents-10_repeat-07_SEED02_STEP02.png,stimuli/MODEL_filters-64_resnets-3_logmixes-12_latents-10_repeat-07_SEED02_STEP03.png,stimuli/MODEL_filters-64_resnets-3_logmixes-12_latents-10_repeat-07_SEED02_STEP04.png,0,25,25,57,"[0, 1, 2, 3, 4]","[2, 1, 3, 4, 5]",02,26,f,y,y,2019_Apr_03_1312,gloss_ordering_task,59.917473521694866,
stimuli/MODEL_filters-64_resnets-3_logmixes-12_latents-10_repeat-00_SEED02_STEP00.png,stimuli/MODEL_filters-64_resnets-3_logmixes-12_latents-10_repeat-00_SEED02_STEP01.png,stimuli/MODEL_filters-64_resnets-3_logmixes-12_latents-10_repeat-00_SEED02_STEP02.png,stimuli/MODEL_filters-64_resnets-3_logmixes-12_latents-10_repeat-00_SEED02_STEP03.png,stimuli/MODEL_filters-64_resnets-3_logmixes-12_latents-10_repeat-00_SEED02_STEP04.png,0,26,26,1,"[0, 3, 1, 2, 4]","[1, 5, 4, 3, 2]",02,26,f,y,y,2019_Apr_03_1312,gloss_ordering_task,59.917473521694866,
stimuli/MODEL_filters-64_resnets-3_logmixes-12_latents-10_repeat-03_SEED09_STEP00.png,stimuli/MODEL_filters-64_resnets-3_logmixes-12_latents-10_repeat-03_SEED09_STEP01.png,stimuli/MODEL_filters-64_resnets-3_logmixes-12_latents-10_repeat-03_SEED09_STEP02.png,stimuli/MODEL_filters-64_resnets-3_logmixes-12_latents-10_repeat-03_SEED09_STEP03.png,stimuli/MODEL_filters-64_resnets-3_logmixes-12_latents-10_repeat-03_SEED09_STEP04.png,0,27,27,31,"[4, 1, 0, 2, 3]","[2, 1, 3, 4, 5]",02,26,f,y,y,2019_Apr_03_1312,gloss_ordering_task,59.917473521694866,
stimuli/MODEL_filters-64_resnets-3_logmixes-12_latents-10_repeat-07_SEED07_STEP00.png,stimuli/MODEL_filters-64_resnets-3_logmixes-12_latents-10_repeat-07_SEED07_STEP01.png,stimuli/MODEL_filters-64_resnets-3_logmixes-12_latents-10_repeat-07_SEED07_STEP02.png,stimuli/MODEL_filters-64_resnets-3_logmixes-12_latents-10_repeat-07_SEED07_STEP03.png,stimuli/MODEL_filters-64_resnets-3_logmixes-12_latents-10_repeat-07_SEED07_STEP04.png,0,28,28,62,"[4, 0, 2, 3, 1]","[2, 5, 3, 1, 4]",02,26,f,y,y,2019_Apr_03_1312,gloss_ordering_task,59.917473521694866,
stimuli/MODEL_filters-64_resnets-3_logmixes-12_latents-10_repeat-04_SEED06_STEP00.png,stimuli/MODEL_filters-64_resnets-3_logmixes-12_latents-10_repeat-04_SEED06_STEP01.png,stimuli/MODEL_filters-64_resnets-3_logmixes-12_latents-10_repeat-04_SEED06_STEP02.png,stimuli/MODEL_filters-64_resnets-3_logmixes-12_latents-10_repeat-04_SEED06_STEP03.png,stimuli/MODEL_filters-64_resnets-3_logmixes-12_latents-10_repeat-04_SEED06_STEP04.png,0,29,29,37,"[1, 2, 0, 4, 3]","[4, 5, 3, 2, 1]",02,26,f,y,y,2019_Apr_03_1312,gloss_ordering_task,59.917473521694866,
stimuli/MODEL_filters-64_resnets-3_logmixes-12_latents-10_repeat-03_SEED05_STEP00.png,stimuli/MODEL_filters-64_resnets-3_logmixes-12_latents-10_repeat-03_SEED05_STEP01.png,stimuli/MODEL_filters-64_resnets-3_logmixes-12_latents-10_repeat-03_SEED05_STEP02.png,stimuli/MODEL_filters-64_resnets-3_logmixes-12_latents-10_repeat-03_SEED05_STEP03.png,stimuli/MODEL_filters-64_resnets-3_logmixes-12_latents-10_repeat-03_SEED05_STEP04.png,0,30,30,28,"[2, 1, 3, 4, 0]","[2, 1, 3, 4, 5]",02,26,f,y,y,2019_Apr_03_1312,gloss_ordering_task,59.917473521694866,
stimuli/MODEL_filters-64_resnets-3_logmixes-12_latents-10_repeat-09_SEED05_STEP00.png,stimuli/MODEL_filters-64_resnets-3_logmixes-12_latents-10_repeat-09_SEED05_STEP01.png,stimuli/MODEL_filters-64_resnets-3_logmixes-12_latents-10_repeat-09_SEED05_STEP02.png,stimuli/MODEL_filters-64_resnets-3_logmixes-12_latents-10_repeat-09_SEED05_STEP03.png,stimuli/MODEL_filters-64_resnets-3_logmixes-12_latents-10_repeat-09_SEED05_STEP04.png,0,31,31,76,"[2, 3, 1, 4, 0]","[2, 3, 1, 4, 5]",02,26,f,y,y,2019_Apr_03_1312,gloss_ordering_task,59.917473521694866,
stimuli/MODEL_filters-64_resnets-3_logmixes-12_latents-10_repeat-06_SEED00_STEP00.png,stimuli/MODEL_filters-64_resnets-3_logmixes-12_latents-10_repeat-06_SEED00_STEP01.png,stimuli/MODEL_filters-64_resnets-3_logmixes-12_latents-10_repeat-06_SEED00_STEP02.png,stimuli/MODEL_filters-64_resnets-3_logmixes-12_latents-10_repeat-06_SEED00_STEP03.png,stimuli/MODEL_filters-64_resnets-3_logmixes-12_latents-10_repeat-06_SEED00_STEP04.png,0,32,32,48,"[4, 3, 1, 2, 0]","[2, 1, 3, 5, 4]",02,26,f,y,y,2019_Apr_03_1312,gloss_ordering_task,59.917473521694866,
stimuli/MODEL_filters-64_resnets-3_logmixes-12_latents-10_repeat-00_SEED05_STEP00.png,stimuli/MODEL_filters-64_resnets-3_logmixes-12_latents-10_repeat-00_SEED05_STEP01.png,stimuli/MODEL_filters-64_resnets-3_logmixes-12_latents-10_repeat-00_SEED05_STEP02.png,stimuli/MODEL_filters-64_resnets-3_logmixes-12_latents-10_repeat-00_SEED05_STEP03.png,stimuli/MODEL_filters-64_resnets-3_logmixes-12_latents-10_repeat-00_SEED05_STEP04.png,0,33,33,4,"[4, 3, 1, 2, 0]","[2, 1, 3, 5, 4]",02,26,f,y,y,2019_Apr_03_1312,gloss_ordering_task,59.917473521694866,
stimuli/MODEL_filters-64_resnets-3_logmixes-12_latents-10_repeat-02_SEED02_STEP00.png,stimuli/MODEL_filters-64_resnets-3_logmixes-12_latents-10_repeat-02_SEED02_STEP01.png,stimuli/MODEL_filters-64_resnets-3_logmixes-12_latents-10_repeat-02_SEED02_STEP02.png,stimuli/MODEL_filters-64_resnets-3_logmixes-12_latents-10_repeat-02_SEED02_STEP03.png,stimuli/MODEL_filters-64_resnets-3_logmixes-12_latents-10_repeat-02_SEED02_STEP04.png,0,34,34,17,"[2, 0, 4, 3, 1]","[1, 2, 4, 3, 5]",02,26,f,y,y,2019_Apr_03_1312,gloss_ordering_task,59.917473521694866,
stimuli/MODEL_filters-64_resnets-3_logmixes-12_latents-10_repeat-09_SEED03_STEP00.png,stimuli/MODEL_filters-64_resnets-3_logmixes-12_latents-10_repeat-09_SEED03_STEP01.png,stimuli/MODEL_filters-64_resnets-3_logmixes-12_latents-10_repeat-09_SEED03_STEP02.png,stimuli/MODEL_filters-64_resnets-3_logmixes-12_latents-10_repeat-09_SEED03_STEP03.png,stimuli/MODEL_filters-64_resnets-3_logmixes-12_latents-10_repeat-09_SEED03_STEP04.png,0,35,35,74,"[2, 3, 4, 0, 1]","[1, 2, 3, 4, 5]",02,26,f,y,y,2019_Apr_03_1312,gloss_ordering_task,59.917473521694866,
stimuli/MODEL_filters-64_resnets-3_logmixes-12_latents-10_repeat-06_SEED05_STEP00.png,stimuli/MODEL_filters-64_resnets-3_logmixes-12_latents-10_repeat-06_SEED05_STEP01.png,stimuli/MODEL_filters-64_resnets-3_logmixes-12_latents-10_repeat-06_SEED05_STEP02.png,stimuli/MODEL_filters-64_resnets-3_logmixes-12_latents-10_repeat-06_SEED05_STEP03.png,stimuli/MODEL_filters-64_resnets-3_logmixes-12_latents-10_repeat-06_SEED05_STEP04.png,0,36,36,52,"[2, 0, 1, 3, 4]","[1, 2, 4, 3, 5]",02,26,f,y,y,2019_Apr_03_1312,gloss_ordering_task,59.917473521694866,
stimuli/MODEL_filters-64_resnets-3_logmixes-12_latents-10_repeat-02_SEED05_STEP00.png,stimuli/MODEL_filters-64_resnets-3_logmixes-12_latents-10_repeat-02_SEED05_STEP01.png,stimuli/MODEL_filters-64_resnets-3_logmixes-12_latents-10_repeat-02_SEED05_STEP02.png,stimuli/MODEL_filters-64_resnets-3_logmixes-12_latents-10_repeat-02_SEED05_STEP03.png,stimuli/MODEL_filters-64_resnets-3_logmixes-12_latents-10_repeat-02_SEED05_STEP04.png,0,37,37,20,"[2, 0, 1, 4, 3]","[3, 1, 2, 5, 4]",02,26,f,y,y,2019_Apr_03_1312,gloss_ordering_task,59.917473521694866,
stimuli/MODEL_filters-64_resnets-3_logmixes-12_latents-10_repeat-07_SEED05_STEP00.png,stimuli/MODEL_filters-64_resnets-3_logmixes-12_latents-10_repeat-07_SEED05_STEP01.png,stimuli/MODEL_filters-64_resnets-3_logmixes-12_latents-10_repeat-07_SEED05_STEP02.png,stimuli/MODEL_filters-64_resnets-3_logmixes-12_latents-10_repeat-07_SEED05_STEP03.png,stimuli/MODEL_filters-64_resnets-3_logmixes-12_latents-10_repeat-07_SEED05_STEP04.png,0,38,38,60,"[3, 0, 4, 2, 1]","[2, 4, 1, 3, 5]",02,26,f,y,y,2019_Apr_03_1312,gloss_ordering_task,59.917473521694866,
stimuli/MODEL_filters-64_resnets-3_logmixes-12_latents-10_repeat-01_SEED03_STEP00.png,stimuli/MODEL_filters-64_resnets-3_logmixes-12_latents-10_repeat-01_SEED03_STEP01.png,stimuli/MODEL_filters-64_resnets-3_logmixes-12_latents-10_repeat-01_SEED03_STEP02.png,stimuli/MODEL_filters-64_resnets-3_logmixes-12_latents-10_repeat-01_SEED03_STEP03.png,stimuli/MODEL_filters-64_resnets-3_logmixes-12_latents-10_repeat-01_SEED03_STEP04.png,0,39,39,10,"[4, 0, 2, 1, 3]","[2, 1, 3, 4, 5]",02,26,f,y,y,2019_Apr_03_1312,gloss_ordering_task,59.917473521694866,
stimuli/MODEL_filters-64_resnets-3_logmixes-12_latents-10_repeat-07_SEED03_STEP00.png,stimuli/MODEL_filters-64_resnets-3_logmixes-12_latents-10_repeat-07_SEED03_STEP01.png,stimuli/MODEL_filters-64_resnets-3_logmixes-12_latents-10_repeat-07_SEED03_STEP02.png,stimuli/MODEL_filters-64_resnets-3_logmixes-12_latents-10_repeat-07_SEED03_STEP03.png,stimuli/MODEL_filters-64_resnets-3_logmixes-12_latents-10_repeat-07_SEED03_STEP04.png,0,40,40,58,"[0, 2, 3, 1, 4]","[2, 1, 3, 4, 5]",02,26,f,y,y,2019_Apr_03_1312,gloss_ordering_task,59.917473521694866,
stimuli/MODEL_filters-64_resnets-3_logmixes-12_latents-10_repeat-05_SEED00_STEP00.png,stimuli/MODEL_filters-64_resnets-3_logmixes-12_latents-10_repeat-05_SEED00_STEP01.png,stimuli/MODEL_filters-64_resnets-3_logmixes-12_latents-10_repeat-05_SEED00_STEP02.png,stimuli/MODEL_filters-64_resnets-3_logmixes-12_latents-10_repeat-05_SEED00_STEP03.png,stimuli/MODEL_filters-64_resnets-3_logmixes-12_latents-10_repeat-05_SEED00_STEP04.png,0,41,41,40,"[0, 4, 1, 2, 3]","[1, 2, 4, 3, 5]",02,26,f,y,y,2019_Apr_03_1312,gloss_ordering_task,59.917473521694866,
stimuli/MODEL_filters-64_resnets-3_logmixes-12_latents-10_repeat-09_SEED02_STEP00.png,stimuli/MODEL_filters-64_resnets-3_logmixes-12_latents-10_repeat-09_SEED02_STEP01.png,stimuli/MODEL_filters-64_resnets-3_logmixes-12_latents-10_repeat-09_SEED02_STEP02.png,stimuli/MODEL_filters-64_resnets-3_logmixes-12_latents-10_repeat-09_SEED02_STEP03.png,stimuli/MODEL_filters-64_resnets-3_logmixes-12_latents-10_repeat-09_SEED02_STEP04.png,0,42,42,73,"[3, 1, 4, 0, 2]","[2, 1, 4, 3, 5]",02,26,f,y,y,2019_Apr_03_1312,gloss_ordering_task,59.917473521694866,
stimuli/MODEL_filters-64_resnets-3_logmixes-12_latents-10_repeat-06_SEED07_STEP00.png,stimuli/MODEL_filters-64_resnets-3_logmixes-12_latents-10_repeat-06_SEED07_STEP01.png,stimuli/MODEL_filters-64_resnets-3_logmixes-12_latents-10_repeat-06_SEED07_STEP02.png,stimuli/MODEL_filters-64_resnets-3_logmixes-12_latents-10_repeat-06_SEED07_STEP03.png,stimuli/MODEL_filters-64_resnets-3_logmixes-12_latents-10_repeat-06_SEED07_STEP04.png,0,43,43,54,"[1, 0, 2, 4, 3]","[2, 3, 1, 5, 4]",02,26,f,y,y,2019_Apr_03_1312,gloss_ordering_task,59.917473521694866,
stimuli/MODEL_filters-64_resnets-3_logmixes-12_latents-10_repeat-01_SEED06_STEP00.png,stimuli/MODEL_filters-64_resnets-3_logmixes-12_latents-10_repeat-01_SEED06_STEP01.png,stimuli/MODEL_filters-64_resnets-3_logmixes-12_latents-10_repeat-01_SEED06_STEP02.png,stimuli/MODEL_filters-64_resnets-3_logmixes-12_latents-10_repeat-01_SEED06_STEP03.png,stimuli/MODEL_filters-64_resnets-3_logmixes-12_latents-10_repeat-01_SEED06_STEP04.png,0,44,44,13,"[3, 4, 2, 0, 1]","[1, 3, 2, 4, 5]",02,26,f,y,y,2019_Apr_03_1312,gloss_ordering_task,59.917473521694866,
stimuli/MODEL_filters-64_resnets-3_logmixes-12_latents-10_repeat-00_SEED09_STEP00.png,stimuli/MODEL_filters-64_resnets-3_logmixes-12_latents-10_repeat-00_SEED09_STEP01.png,stimuli/MODEL_filters-64_resnets-3_logmixes-12_latents-10_repeat-00_SEED09_STEP02.png,stimuli/MODEL_filters-64_resnets-3_logmixes-12_latents-10_repeat-00_SEED09_STEP03.png,stimuli/MODEL_filters-64_resnets-3_logmixes-12_latents-10_repeat-00_SEED09_STEP04.png,0,45,45,7,"[1, 0, 3, 2, 4]","[2, 3, 1, 4, 5]",02,26,f,y,y,2019_Apr_03_1312,gloss_ordering_task,59.917473521694866,
stimuli/MODEL_filters-64_resnets-3_logmixes-12_latents-10_repeat-00_SEED03_STEP00.png,stimuli/MODEL_filters-64_resnets-3_logmixes-12_latents-10_repeat-00_SEED03_STEP01.png,stimuli/MODEL_filters-64_resnets-3_logmixes-12_latents-10_repeat-00_SEED03_STEP02.png,stimuli/MODEL_filters-64_resnets-3_logmixes-12_latents-10_repeat-00_SEED03_STEP03.png,stimuli/MODEL_filters-64_resnets-3_logmixes-12_latents-10_repeat-00_SEED03_STEP04.png,0,46,46,2,"[2, 4, 3, 0, 1]","[2, 1, 3, 4, 5]",02,26,f,y,y,2019_Apr_03_1312,gloss_ordering_task,59.917473521694866,
stimuli/MODEL_filters-64_resnets-3_logmixes-12_latents-10_repeat-02_SEED09_STEP00.png,stimuli/MODEL_filters-64_resnets-3_logmixes-12_latents-10_repeat-02_SEED09_STEP01.png,stimuli/MODEL_filters-64_resnets-3_logmixes-12_latents-10_repeat-02_SEED09_STEP02.png,stimuli/MODEL_filters-64_resnets-3_logmixes-12_latents-10_repeat-02_SEED09_STEP03.png,stimuli/MODEL_filters-64_resnets-3_logmixes-12_latents-10_repeat-02_SEED09_STEP04.png,0,47,47,23,"[1, 3, 2, 0, 4]","[2, 4, 3, 1, 5]",02,26,f,y,y,2019_Apr_03_1312,gloss_ordering_task,59.917473521694866,
stimuli/MODEL_filters-64_resnets-3_logmixes-12_latents-10_repeat-01_SEED00_STEP00.png,stimuli/MODEL_filters-64_resnets-3_logmixes-12_latents-10_repeat-01_SEED00_STEP01.png,stimuli/MODEL_filters-64_resnets-3_logmixes-12_latents-10_repeat-01_SEED00_STEP02.png,stimuli/MODEL_filters-64_resnets-3_logmixes-12_latents-10_repeat-01_SEED00_STEP03.png,stimuli/MODEL_filters-64_resnets-3_logmixes-12_latents-10_repeat-01_SEED00_STEP04.png,0,48,48,8,"[0, 2, 3, 4, 1]","[1, 2, 3, 4, 5]",02,26,f,y,y,2019_Apr_03_1312,gloss_ordering_task,59.917473521694866,
stimuli/MODEL_filters-64_resnets-3_logmixes-12_latents-10_repeat-06_SEED02_STEP00.png,stimuli/MODEL_filters-64_resnets-3_logmixes-12_latents-10_repeat-06_SEED02_STEP01.png,stimuli/MODEL_filters-64_resnets-3_logmixes-12_latents-10_repeat-06_SEED02_STEP02.png,stimuli/MODEL_filters-64_resnets-3_logmixes-12_latents-10_repeat-06_SEED02_STEP03.png,stimuli/MODEL_filters-64_resnets-3_logmixes-12_latents-10_repeat-06_SEED02_STEP04.png,0,49,49,49,"[1, 2, 3, 4, 0]","[1, 2, 4, 3, 5]",02,26,f,y,y,2019_Apr_03_1312,gloss_ordering_task,59.917473521694866,
stimuli/MODEL_filters-64_resnets-3_logmixes-12_latents-10_repeat-09_SEED07_STEP00.png,stimuli/MODEL_filters-64_resnets-3_logmixes-12_latents-10_repeat-09_SEED07_STEP01.png,stimuli/MODEL_filters-64_resnets-3_logmixes-12_latents-10_repeat-09_SEED07_STEP02.png,stimuli/MODEL_filters-64_resnets-3_logmixes-12_latents-10_repeat-09_SEED07_STEP03.png,stimuli/MODEL_filters-64_resnets-3_logmixes-12_latents-10_repeat-09_SEED07_STEP04.png,0,50,50,78,"[4, 2, 0, 1, 3]","[2, 3, 1, 4, 5]",02,26,f,y,y,2019_Apr_03_1312,gloss_ordering_task,59.917473521694866,
stimuli/MODEL_filters-64_resnets-3_logmixes-12_latents-10_repeat-08_SEED09_STEP00.png,stimuli/MODEL_filters-64_resnets-3_logmixes-12_latents-10_repeat-08_SEED09_STEP01.png,stimuli/MODEL_filters-64_resnets-3_logmixes-12_latents-10_repeat-08_SEED09_STEP02.png,stimuli/MODEL_filters-64_resnets-3_logmixes-12_latents-10_repeat-08_SEED09_STEP03.png,stimuli/MODEL_filters-64_resnets-3_logmixes-12_latents-10_repeat-08_SEED09_STEP04.png,0,51,51,71,"[2, 3, 4, 0, 1]","[2, 1, 3, 4, 5]",02,26,f,y,y,2019_Apr_03_1312,gloss_ordering_task,59.917473521694866,
stimuli/MODEL_filters-64_resnets-3_logmixes-12_latents-10_repeat-02_SEED07_STEP00.png,stimuli/MODEL_filters-64_resnets-3_logmixes-12_latents-10_repeat-02_SEED07_STEP01.png,stimuli/MODEL_filters-64_resnets-3_logmixes-12_latents-10_repeat-02_SEED07_STEP02.png,stimuli/MODEL_filters-64_resnets-3_logmixes-12_latents-10_repeat-02_SEED07_STEP03.png,stimuli/MODEL_filters-64_resnets-3_logmixes-12_latents-10_repeat-02_SEED07_STEP04.png,0,52,52,22,"[0, 1, 3, 2, 4]","[2, 1, 3, 4, 5]",02,26,f,y,y,2019_Apr_03_1312,gloss_ordering_task,59.917473521694866,
stimuli/MODEL_filters-64_resnets-3_logmixes-12_latents-10_repeat-09_SEED00_STEP00.png,stimuli/MODEL_filters-64_resnets-3_logmixes-12_latents-10_repeat-09_SEED00_STEP01.png,stimuli/MODEL_filters-64_resnets-3_logmixes-12_latents-10_repeat-09_SEED00_STEP02.png,stimuli/MODEL_filters-64_resnets-3_logmixes-12_latents-10_repeat-09_SEED00_STEP03.png,stimuli/MODEL_filters-64_resnets-3_logmixes-12_latents-10_repeat-09_SEED00_STEP04.png,0,53,53,72,"[1, 4, 3, 2, 0]","[1, 2, 4, 3, 5]",02,26,f,y,y,2019_Apr_03_1312,gloss_ordering_task,59.917473521694866,
stimuli/MODEL_filters-64_resnets-3_logmixes-12_latents-10_repeat-00_SEED04_STEP00.png,stimuli/MODEL_filters-64_resnets-3_logmixes-12_latents-10_repeat-00_SEED04_STEP01.png,stimuli/MODEL_filters-64_resnets-3_logmixes-12_latents-10_repeat-00_SEED04_STEP02.png,stimuli/MODEL_filters-64_resnets-3_logmixes-12_latents-10_repeat-00_SEED04_STEP03.png,stimuli/MODEL_filters-64_resnets-3_logmixes-12_latents-10_repeat-00_SEED04_STEP04.png,0,54,54,3,"[1, 2, 0, 3, 4]","[3, 4, 5, 2, 1]",02,26,f,y,y,2019_Apr_03_1312,gloss_ordering_task,59.917473521694866,
stimuli/MODEL_filters-64_resnets-3_logmixes-12_latents-10_repeat-05_SEED06_STEP00.png,stimuli/MODEL_filters-64_resnets-3_logmixes-12_latents-10_repeat-05_SEED06_STEP01.png,stimuli/MODEL_filters-64_resnets-3_logmixes-12_latents-10_repeat-05_SEED06_STEP02.png,stimuli/MODEL_filters-64_resnets-3_logmixes-12_latents-10_repeat-05_SEED06_STEP03.png,stimuli/MODEL_filters-64_resnets-3_logmixes-12_latents-10_repeat-05_SEED06_STEP04.png,0,55,55,45,"[2, 3, 1, 4, 0]","[1, 2, 4, 3, 5]",02,26,f,y,y,2019_Apr_03_1312,gloss_ordering_task,59.917473521694866,
stimuli/MODEL_filters-64_resnets-3_logmixes-12_latents-10_repeat-07_SEED04_STEP00.png,stimuli/MODEL_filters-64_resnets-3_logmixes-12_latents-10_repeat-07_SEED04_STEP01.png,stimuli/MODEL_filters-64_resnets-3_logmixes-12_latents-10_repeat-07_SEED04_STEP02.png,stimuli/MODEL_filters-64_resnets-3_logmixes-12_latents-10_repeat-07_SEED04_STEP03.png,stimuli/MODEL_filters-64_resnets-3_logmixes-12_latents-10_repeat-07_SEED04_STEP04.png,0,56,56,59,"[4, 2, 1, 0, 3]","[4, 2, 3, 5, 1]",02,26,f,y,y,2019_Apr_03_1312,gloss_ordering_task,59.917473521694866,
stimuli/MODEL_filters-64_resnets-3_logmixes-12_latents-10_repeat-09_SEED06_STEP00.png,stimuli/MODEL_filters-64_resnets-3_logmixes-12_latents-10_repeat-09_SEED06_STEP01.png,stimuli/MODEL_filters-64_resnets-3_logmixes-12_latents-10_repeat-09_SEED06_STEP02.png,stimuli/MODEL_filters-64_resnets-3_logmixes-12_latents-10_repeat-09_SEED06_STEP03.png,stimuli/MODEL_filters-64_resnets-3_logmixes-12_latents-10_repeat-09_SEED06_STEP04.png,0,57,57,77,"[3, 1, 0, 2, 4]","[1, 2, 3, 4, 5]",02,26,f,y,y,2019_Apr_03_1312,gloss_ordering_task,59.917473521694866,
stimuli/MODEL_filters-64_resnets-3_logmixes-12_latents-10_repeat-04_SEED00_STEP00.png,stimuli/MODEL_filters-64_resnets-3_logmixes-12_latents-10_repeat-04_SEED00_STEP01.png,stimuli/MODEL_filters-64_resnets-3_logmixes-12_latents-10_repeat-04_SEED00_STEP02.png,stimuli/MODEL_filters-64_resnets-3_logmixes-12_latents-10_repeat-04_SEED00_STEP03.png,stimuli/MODEL_filters-64_resnets-3_logmixes-12_latents-10_repeat-04_SEED00_STEP04.png,0,58,58,32,"[2, 4, 3, 1, 0]","[1, 5, 3, 2, 4]",02,26,f,y,y,2019_Apr_03_1312,gloss_ordering_task,59.917473521694866,
stimuli/MODEL_filters-64_resnets-3_logmixes-12_latents-10_repeat-08_SEED05_STEP00.png,stimuli/MODEL_filters-64_resnets-3_logmixes-12_latents-10_repeat-08_SEED05_STEP01.png,stimuli/MODEL_filters-64_resnets-3_logmixes-12_latents-10_repeat-08_SEED05_STEP02.png,stimuli/MODEL_filters-64_resnets-3_logmixes-12_latents-10_repeat-08_SEED05_STEP03.png,stimuli/MODEL_filters-64_resnets-3_logmixes-12_latents-10_repeat-08_SEED05_STEP04.png,0,59,59,68,"[1, 4, 2, 0, 3]","[3, 4, 2, 1, 5]",02,26,f,y,y,2019_Apr_03_1312,gloss_ordering_task,59.917473521694866,
stimuli/MODEL_filters-64_resnets-3_logmixes-12_latents-10_repeat-08_SEED02_STEP00.png,stimuli/MODEL_filters-64_resnets-3_logmixes-12_latents-10_repeat-08_SEED02_STEP01.png,stimuli/MODEL_filters-64_resnets-3_logmixes-12_latents-10_repeat-08_SEED02_STEP02.png,stimuli/MODEL_filters-64_resnets-3_logmixes-12_latents-10_repeat-08_SEED02_STEP03.png,stimuli/MODEL_filters-64_resnets-3_logmixes-12_latents-10_repeat-08_SEED02_STEP04.png,0,60,60,65,"[1, 2, 4, 3, 0]","[1, 4, 2, 5, 3]",02,26,f,y,y,2019_Apr_03_1312,gloss_ordering_task,59.917473521694866,
stimuli/MODEL_filters-64_resnets-3_logmixes-12_latents-10_repeat-08_SEED00_STEP00.png,stimuli/MODEL_filters-64_resnets-3_logmixes-12_latents-10_repeat-08_SEED00_STEP01.png,stimuli/MODEL_filters-64_resnets-3_logmixes-12_latents-10_repeat-08_SEED00_STEP02.png,stimuli/MODEL_filters-64_resnets-3_logmixes-12_latents-10_repeat-08_SEED00_STEP03.png,stimuli/MODEL_filters-64_resnets-3_logmixes-12_latents-10_repeat-08_SEED00_STEP04.png,0,61,61,64,"[2, 0, 3, 4, 1]","[1, 2, 3, 5, 4]",02,26,f,y,y,2019_Apr_03_1312,gloss_ordering_task,59.917473521694866,
stimuli/MODEL_filters-64_resnets-3_logmixes-12_latents-10_repeat-00_SEED07_STEP00.png,stimuli/MODEL_filters-64_resnets-3_logmixes-12_latents-10_repeat-00_SEED07_STEP01.png,stimuli/MODEL_filters-64_resnets-3_logmixes-12_latents-10_repeat-00_SEED07_STEP02.png,stimuli/MODEL_filters-64_resnets-3_logmixes-12_latents-10_repeat-00_SEED07_STEP03.png,stimuli/MODEL_filters-64_resnets-3_logmixes-12_latents-10_repeat-00_SEED07_STEP04.png,0,62,62,6,"[4, 0, 3, 1, 2]","[3, 4, 2, 1, 5]",02,26,f,y,y,2019_Apr_03_1312,gloss_ordering_task,59.917473521694866,
stimuli/MODEL_filters-64_resnets-3_logmixes-12_latents-10_repeat-07_SEED06_STEP00.png,stimuli/MODEL_filters-64_resnets-3_logmixes-12_latents-10_repeat-07_SEED06_STEP01.png,stimuli/MODEL_filters-64_resnets-3_logmixes-12_latents-10_repeat-07_SEED06_STEP02.png,stimuli/MODEL_filters-64_resnets-3_logmixes-12_latents-10_repeat-07_SEED06_STEP03.png,stimuli/MODEL_filters-64_resnets-3_logmixes-12_latents-10_repeat-07_SEED06_STEP04.png,0,63,63,61,"[2, 3, 0, 4, 1]","[3, 2, 1, 4, 5]",02,26,f,y,y,2019_Apr_03_1312,gloss_ordering_task,59.917473521694866,
stimuli/MODEL_filters-64_resnets-3_logmixes-12_latents-10_repeat-02_SEED00_STEP00.png,stimuli/MODEL_filters-64_resnets-3_logmixes-12_latents-10_repeat-02_SEED00_STEP01.png,stimuli/MODEL_filters-64_resnets-3_logmixes-12_latents-10_repeat-02_SEED00_STEP02.png,stimuli/MODEL_filters-64_resnets-3_logmixes-12_latents-10_repeat-02_SEED00_STEP03.png,stimuli/MODEL_filters-64_resnets-3_logmixes-12_latents-10_repeat-02_SEED00_STEP04.png,0,64,64,16,"[0, 4, 3, 1, 2]","[1, 2, 3, 4, 5]",02,26,f,y,y,2019_Apr_03_1312,gloss_ordering_task,59.917473521694866,
stimuli/MODEL_filters-64_resnets-3_logmixes-12_latents-10_repeat-01_SEED04_STEP00.png,stimuli/MODEL_filters-64_resnets-3_logmixes-12_latents-10_repeat-01_SEED04_STEP01.png,stimuli/MODEL_filters-64_resnets-3_logmixes-12_latents-10_repeat-01_SEED04_STEP02.png,stimuli/MODEL_filters-64_resnets-3_logmixes-12_latents-10_repeat-01_SEED04_STEP03.png,stimuli/MODEL_filters-64_resnets-3_logmixes-12_latents-10_repeat-01_SEED04_STEP04.png,0,65,65,11,"[3, 0, 2, 4, 1]","[2, 1, 3, 4, 5]",02,26,f,y,y,2019_Apr_03_1312,gloss_ordering_task,59.917473521694866,
stimuli/MODEL_filters-64_resnets-3_logmixes-12_latents-10_repeat-04_SEED02_STEP00.png,stimuli/MODEL_filters-64_resnets-3_logmixes-12_latents-10_repeat-04_SEED02_STEP01.png,stimuli/MODEL_filters-64_resnets-3_logmixes-12_latents-10_repeat-04_SEED02_STEP02.png,stimuli/MODEL_filters-64_resnets-3_logmixes-12_latents-10_repeat-04_SEED02_STEP03.png,stimuli/MODEL_filters-64_resnets-3_logmixes-12_latents-10_repeat-04_SEED02_STEP04.png,0,66,66,33,"[4, 2, 0, 1, 3]","[5, 4, 2, 3, 1]",02,26,f,y,y,2019_Apr_03_1312,gloss_ordering_task,59.917473521694866,
stimuli/MODEL_filters-64_resnets-3_logmixes-12_latents-10_repeat-04_SEED04_STEP00.png,stimuli/MODEL_filters-64_resnets-3_logmixes-12_latents-10_repeat-04_SEED04_STEP01.png,stimuli/MODEL_filters-64_resnets-3_logmixes-12_latents-10_repeat-04_SEED04_STEP02.png,stimuli/MODEL_filters-64_resnets-3_logmixes-12_latents-10_repeat-04_SEED04_STEP03.png,stimuli/MODEL_filters-64_resnets-3_logmixes-12_latents-10_repeat-04_SEED04_STEP04.png,0,67,67,35,"[0, 2, 1, 4, 3]","[3, 2, 5, 4, 1]",02,26,f,y,y,2019_Apr_03_1312,gloss_ordering_task,59.917473521694866,
stimuli/MODEL_filters-64_resnets-3_logmixes-12_latents-10_repeat-06_SEED04_STEP00.png,stimuli/MODEL_filters-64_resnets-3_logmixes-12_latents-10_repeat-06_SEED04_STEP01.png,stimuli/MODEL_filters-64_resnets-3_logmixes-12_latents-10_repeat-06_SEED04_STEP02.png,stimuli/MODEL_filters-64_resnets-3_logmixes-12_latents-10_repeat-06_SEED04_STEP03.png,stimuli/MODEL_filters-64_resnets-3_logmixes-12_latents-10_repeat-06_SEED04_STEP04.png,0,68,68,51,"[1, 0, 3, 4, 2]","[2, 3, 1, 5, 4]",02,26,f,y,y,2019_Apr_03_1312,gloss_ordering_task,59.917473521694866,
stimuli/MODEL_filters-64_resnets-3_logmixes-12_latents-10_repeat-08_SEED07_STEP00.png,stimuli/MODEL_filters-64_resnets-3_logmixes-12_latents-10_repeat-08_SEED07_STEP01.png,stimuli/MODEL_filters-64_resnets-3_logmixes-12_latents-10_repeat-08_SEED07_STEP02.png,stimuli/MODEL_filters-64_resnets-3_logmixes-12_latents-10_repeat-08_SEED07_STEP03.png,stimuli/MODEL_filters-64_resnets-3_logmixes-12_latents-10_repeat-08_SEED07_STEP04.png,0,69,69,70,"[4, 0, 3, 2, 1]","[2, 3, 1, 4, 5]",02,26,f,y,y,2019_Apr_03_1312,gloss_ordering_task,59.917473521694866,
stimuli/MODEL_filters-64_resnets-3_logmixes-12_latents-10_repeat-00_SEED00_STEP00.png,stimuli/MODEL_filters-64_resnets-3_logmixes-12_latents-10_repeat-00_SEED00_STEP01.png,stimuli/MODEL_filters-64_resnets-3_logmixes-12_latents-10_repeat-00_SEED00_STEP02.png,stimuli/MODEL_filters-64_resnets-3_logmixes-12_latents-10_repeat-00_SEED00_STEP03.png,stimuli/MODEL_filters-64_resnets-3_logmixes-12_latents-10_repeat-00_SEED00_STEP04.png,0,70,70,0,"[0, 2, 1, 3, 4]","[1, 2, 3, 4, 5]",02,26,f,y,y,2019_Apr_03_1312,gloss_ordering_task,59.917473521694866,
stimuli/MODEL_filters-64_resnets-3_logmixes-12_latents-10_repeat-03_SEED00_STEP00.png,stimuli/MODEL_filters-64_resnets-3_logmixes-12_latents-10_repeat-03_SEED00_STEP01.png,stimuli/MODEL_filters-64_resnets-3_logmixes-12_latents-10_repeat-03_SEED00_STEP02.png,stimuli/MODEL_filters-64_resnets-3_logmixes-12_latents-10_repeat-03_SEED00_STEP03.png,stimuli/MODEL_filters-64_resnets-3_logmixes-12_latents-10_repeat-03_SEED00_STEP04.png,0,71,71,24,"[4, 3, 1, 2, 0]","[2, 1, 3, 4, 5]",02,26,f,y,y,2019_Apr_03_1312,gloss_ordering_task,59.917473521694866,
stimuli/MODEL_filters-64_resnets-3_logmixes-12_latents-10_repeat-03_SEED07_STEP00.png,stimuli/MODEL_filters-64_resnets-3_logmixes-12_latents-10_repeat-03_SEED07_STEP01.png,stimuli/MODEL_filters-64_resnets-3_logmixes-12_latents-10_repeat-03_SEED07_STEP02.png,stimuli/MODEL_filters-64_resnets-3_logmixes-12_latents-10_repeat-03_SEED07_STEP03.png,stimuli/MODEL_filters-64_resnets-3_logmixes-12_latents-10_repeat-03_SEED07_STEP04.png,0,72,72,30,"[1, 3, 0, 4, 2]","[1, 2, 3, 4, 5]",02,26,f,y,y,2019_Apr_03_1312,gloss_ordering_task,59.917473521694866,
stimuli/MODEL_filters-64_resnets-3_logmixes-12_latents-10_repeat-05_SEED03_STEP00.png,stimuli/MODEL_filters-64_resnets-3_logmixes-12_latents-10_repeat-05_SEED03_STEP01.png,stimuli/MODEL_filters-64_resnets-3_logmixes-12_latents-10_repeat-05_SEED03_STEP02.png,stimuli/MODEL_filters-64_resnets-3_logmixes-12_latents-10_repeat-05_SEED03_STEP03.png,stimuli/MODEL_filters-64_resnets-3_logmixes-12_latents-10_repeat-05_SEED03_STEP04.png,0,73,73,42,"[0, 4, 3, 2, 1]","[2, 1, 4, 3, 5]",02,26,f,y,y,2019_Apr_03_1312,gloss_ordering_task,59.917473521694866,
stimuli/MODEL_filters-64_resnets-3_logmixes-12_latents-10_repeat-04_SEED03_STEP00.png,stimuli/MODEL_filters-64_resnets-3_logmixes-12_latents-10_repeat-04_SEED03_STEP01.png,stimuli/MODEL_filters-64_resnets-3_logmixes-12_latents-10_repeat-04_SEED03_STEP02.png,stimuli/MODEL_filters-64_resnets-3_logmixes-12_latents-10_repeat-04_SEED03_STEP03.png,stimuli/MODEL_filters-64_resnets-3_logmixes-12_latents-10_repeat-04_SEED03_STEP04.png,0,74,74,34,"[2, 1, 3, 0, 4]","[1, 2, 3, 4, 5]",02,26,f,y,y,2019_Apr_03_1312,gloss_ordering_task,59.917473521694866,
stimuli/MODEL_filters-64_resnets-3_logmixes-12_latents-10_repeat-07_SEED00_STEP00.png,stimuli/MODEL_filters-64_resnets-3_logmixes-12_latents-10_repeat-07_SEED00_STEP01.png,stimuli/MODEL_filters-64_resnets-3_logmixes-12_latents-10_repeat-07_SEED00_STEP02.png,stimuli/MODEL_filters-64_resnets-3_logmixes-12_latents-10_repeat-07_SEED00_STEP03.png,stimuli/MODEL_filters-64_resnets-3_logmixes-12_latents-10_repeat-07_SEED00_STEP04.png,0,75,75,56,"[0, 1, 4, 2, 3]","[1, 2, 3, 4, 5]",02,26,f,y,y,2019_Apr_03_1312,gloss_ordering_task,59.917473521694866,
stimuli/MODEL_filters-64_resnets-3_logmixes-12_latents-10_repeat-05_SEED07_STEP00.png,stimuli/MODEL_filters-64_resnets-3_logmixes-12_latents-10_repeat-05_SEED07_STEP01.png,stimuli/MODEL_filters-64_resnets-3_logmixes-12_latents-10_repeat-05_SEED07_STEP02.png,stimuli/MODEL_filters-64_resnets-3_logmixes-12_latents-10_repeat-05_SEED07_STEP03.png,stimuli/MODEL_filters-64_resnets-3_logmixes-12_latents-10_repeat-05_SEED07_STEP04.png,0,76,76,46,"[0, 4, 3, 1, 2]","[5, 4, 1, 3, 2]",02,26,f,y,y,2019_Apr_03_1312,gloss_ordering_task,59.917473521694866,
stimuli/MODEL_filters-64_resnets-3_logmixes-12_latents-10_repeat-05_SEED05_STEP00.png,stimuli/MODEL_filters-64_resnets-3_logmixes-12_latents-10_repeat-05_SEED05_STEP01.png,stimuli/MODEL_filters-64_resnets-3_logmixes-12_latents-10_repeat-05_SEED05_STEP02.png,stimuli/MODEL_filters-64_resnets-3_logmixes-12_latents-10_repeat-05_SEED05_STEP03.png,stimuli/MODEL_filters-64_resnets-3_logmixes-12_latents-10_repeat-05_SEED05_STEP04.png,0,77,77,44,"[0, 3, 1, 4, 2]","[3, 4, 5, 2, 1]",02,26,f,y,y,2019_Apr_03_1312,gloss_ordering_task,59.917473521694866,
stimuli/MODEL_filters-64_resnets-3_logmixes-12_latents-10_repeat-03_SEED03_STEP00.png,stimuli/MODEL_filters-64_resnets-3_logmixes-12_latents-10_repeat-03_SEED03_STEP01.png,stimuli/MODEL_filters-64_resnets-3_logmixes-12_latents-10_repeat-03_SEED03_STEP02.png,stimuli/MODEL_filters-64_resnets-3_logmixes-12_latents-10_repeat-03_SEED03_STEP03.png,stimuli/MODEL_filters-64_resnets-3_logmixes-12_latents-10_repeat-03_SEED03_STEP04.png,0,78,78,26,"[4, 3, 2, 0, 1]","[1, 2, 3, 4, 5]",02,26,f,y,y,2019_Apr_03_1312,gloss_ordering_task,59.917473521694866,
stimuli/MODEL_filters-64_resnets-3_logmixes-12_latents-10_repeat-05_SEED09_STEP00.png,stimuli/MODEL_filters-64_resnets-3_logmixes-12_latents-10_repeat-05_SEED09_STEP01.png,stimuli/MODEL_filters-64_resnets-3_logmixes-12_latents-10_repeat-05_SEED09_STEP02.png,stimuli/MODEL_filters-64_resnets-3_logmixes-12_latents-10_repeat-05_SEED09_STEP03.png,stimuli/MODEL_filters-64_resnets-3_logmixes-12_latents-10_repeat-05_SEED09_STEP04.png,0,79,79,47,"[4, 0, 2, 1, 3]","[4, 3, 2, 1, 5]",02,26,f,y,y,2019_Apr_03_1312,gloss_ordering_task,59.917473521694866,
