stimOne,stimTwo,stimThree,stimFour,stimFive,trials_1.thisRepN,trials_1.thisTrialN,trials_1.thisN,trials_1.thisIndex,presentation_positions,placement_order,participant ID (two digits, e.g. 01),age,gender (m/f/-),normal or corrected-to-normal vision (y/n),normal colour vision (y/n),date,expName,frameRate,
stimuli/MODEL_filters-64_resnets-3_logmixes-12_latents-10_repeat-09_SEED09_STEP00.png,stimuli/MODEL_filters-64_resnets-3_logmixes-12_latents-10_repeat-09_SEED09_STEP01.png,stimuli/MODEL_filters-64_resnets-3_logmixes-12_latents-10_repeat-09_SEED09_STEP02.png,stimuli/MODEL_filters-64_resnets-3_logmixes-12_latents-10_repeat-09_SEED09_STEP03.png,stimuli/MODEL_filters-64_resnets-3_logmixes-12_latents-10_repeat-09_SEED09_STEP04.png,0,0,0,79,"[4, 0, 3, 2, 1]","[1, 3, 2, 4, 5]",04,19,f,y,y,2019_Apr_03_1601,gloss_ordering_task,59.980946498778096,
stimuli/MODEL_filters-64_resnets-3_logmixes-12_latents-10_repeat-08_SEED00_STEP00.png,stimuli/MODEL_filters-64_resnets-3_logmixes-12_latents-10_repeat-08_SEED00_STEP01.png,stimuli/MODEL_filters-64_resnets-3_logmixes-12_latents-10_repeat-08_SEED00_STEP02.png,stimuli/MODEL_filters-64_resnets-3_logmixes-12_latents-10_repeat-08_SEED00_STEP03.png,stimuli/MODEL_filters-64_resnets-3_logmixes-12_latents-10_repeat-08_SEED00_STEP04.png,0,1,1,64,"[3, 1, 2, 0, 4]","[1, 2, 3, 4, 5]",04,19,f,y,y,2019_Apr_03_1601,gloss_ordering_task,59.980946498778096,
stimuli/MODEL_filters-64_resnets-3_logmixes-12_latents-10_repeat-02_SEED02_STEP00.png,stimuli/MODEL_filters-64_resnets-3_logmixes-12_latents-10_repeat-02_SEED02_STEP01.png,stimuli/MODEL_filters-64_resnets-3_logmixes-12_latents-10_repeat-02_SEED02_STEP02.png,stimuli/MODEL_filters-64_resnets-3_logmixes-12_latents-10_repeat-02_SEED02_STEP03.png,stimuli/MODEL_filters-64_resnets-3_logmixes-12_latents-10_repeat-02_SEED02_STEP04.png,0,2,2,17,"[1, 0, 4, 3, 2]","[2, 1, 3, 4, 5]",04,19,f,y,y,2019_Apr_03_1601,gloss_ordering_task,59.980946498778096,
stimuli/MODEL_filters-64_resnets-3_logmixes-12_latents-10_repeat-05_SEED06_STEP00.png,stimuli/MODEL_filters-64_resnets-3_logmixes-12_latents-10_repeat-05_SEED06_STEP01.png,stimuli/MODEL_filters-64_resnets-3_logmixes-12_latents-10_repeat-05_SEED06_STEP02.png,stimuli/MODEL_filters-64_resnets-3_logmixes-12_latents-10_repeat-05_SEED06_STEP03.png,stimuli/MODEL_filters-64_resnets-3_logmixes-12_latents-10_repeat-05_SEED06_STEP04.png,0,3,3,45,"[3, 4, 1, 2, 0]","[2, 1, 4, 3, 5]",04,19,f,y,y,2019_Apr_03_1601,gloss_ordering_task,59.980946498778096,
stimuli/MODEL_filters-64_resnets-3_logmixes-12_latents-10_repeat-02_SEED05_STEP00.png,stimuli/MODEL_filters-64_resnets-3_logmixes-12_latents-10_repeat-02_SEED05_STEP01.png,stimuli/MODEL_filters-64_resnets-3_logmixes-12_latents-10_repeat-02_SEED05_STEP02.png,stimuli/MODEL_filters-64_resnets-3_logmixes-12_latents-10_repeat-02_SEED05_STEP03.png,stimuli/MODEL_filters-64_resnets-3_logmixes-12_latents-10_repeat-02_SEED05_STEP04.png,0,4,4,20,"[1, 2, 4, 0, 3]","[1, 3, 2, 4, 5]",04,19,f,y,y,2019_Apr_03_1601,gloss_ordering_task,59.980946498778096,
stimuli/MODEL_filters-64_resnets-3_logmixes-12_latents-10_repeat-01_SEED03_STEP00.png,stimuli/MODEL_filters-64_resnets-3_logmixes-12_latents-10_repeat-01_SEED03_STEP01.png,stimuli/MODEL_filters-64_resnets-3_logmixes-12_latents-10_repeat-01_SEED03_STEP02.png,stimuli/MODEL_filters-64_resnets-3_logmixes-12_latents-10_repeat-01_SEED03_STEP03.png,stimuli/MODEL_filters-64_resnets-3_logmixes-12_latents-10_repeat-01_SEED03_STEP04.png,0,5,5,10,"[0, 2, 3, 4, 1]","[2, 1, 3, 4, 5]",04,19,f,y,y,2019_Apr_03_1601,gloss_ordering_task,59.980946498778096,
stimuli/MODEL_filters-64_resnets-3_logmixes-12_latents-10_repeat-06_SEED04_STEP00.png,stimuli/MODEL_filters-64_resnets-3_logmixes-12_latents-10_repeat-06_SEED04_STEP01.png,stimuli/MODEL_filters-64_resnets-3_logmixes-12_latents-10_repeat-06_SEED04_STEP02.png,stimuli/MODEL_filters-64_resnets-3_logmixes-12_latents-10_repeat-06_SEED04_STEP03.png,stimuli/MODEL_filters-64_resnets-3_logmixes-12_latents-10_repeat-06_SEED04_STEP04.png,0,6,6,51,"[4, 2, 1, 3, 0]","[3, 2, 1, 4, 5]",04,19,f,y,y,2019_Apr_03_1601,gloss_ordering_task,59.980946498778096,
stimuli/MODEL_filters-64_resnets-3_logmixes-12_latents-10_repeat-03_SEED05_STEP00.png,stimuli/MODEL_filters-64_resnets-3_logmixes-12_latents-10_repeat-03_SEED05_STEP01.png,stimuli/MODEL_filters-64_resnets-3_logmixes-12_latents-10_repeat-03_SEED05_STEP02.png,stimuli/MODEL_filters-64_resnets-3_logmixes-12_latents-10_repeat-03_SEED05_STEP03.png,stimuli/MODEL_filters-64_resnets-3_logmixes-12_latents-10_repeat-03_SEED05_STEP04.png,0,7,7,28,"[1, 2, 3, 0, 4]","[1, 2, 3, 4, 5]",04,19,f,y,y,2019_Apr_03_1601,gloss_ordering_task,59.980946498778096,
stimuli/MODEL_filters-64_resnets-3_logmixes-12_latents-10_repeat-06_SEED07_STEP00.png,stimuli/MODEL_filters-64_resnets-3_logmixes-12_latents-10_repeat-06_SEED07_STEP01.png,stimuli/MODEL_filters-64_resnets-3_logmixes-12_latents-10_repeat-06_SEED07_STEP02.png,stimuli/MODEL_filters-64_resnets-3_logmixes-12_latents-10_repeat-06_SEED07_STEP03.png,stimuli/MODEL_filters-64_resnets-3_logmixes-12_latents-10_repeat-06_SEED07_STEP04.png,0,8,8,54,"[2, 3, 0, 4, 1]","[1, 3, 2, 4, 5]",04,19,f,y,y,2019_Apr_03_1601,gloss_ordering_task,59.980946498778096,
stimuli/MODEL_filters-64_resnets-3_logmixes-12_latents-10_repeat-06_SEED09_STEP00.png,stimuli/MODEL_filters-64_resnets-3_logmixes-12_latents-10_repeat-06_SEED09_STEP01.png,stimuli/MODEL_filters-64_resnets-3_logmixes-12_latents-10_repeat-06_SEED09_STEP02.png,stimuli/MODEL_filters-64_resnets-3_logmixes-12_latents-10_repeat-06_SEED09_STEP03.png,stimuli/MODEL_filters-64_resnets-3_logmixes-12_latents-10_repeat-06_SEED09_STEP04.png,0,9,9,55,"[2, 4, 1, 3, 0]","[2, 1, 4, 3, 5]",04,19,f,y,y,2019_Apr_03_1601,gloss_ordering_task,59.980946498778096,
stimuli/MODEL_filters-64_resnets-3_logmixes-12_latents-10_repeat-07_SEED09_STEP00.png,stimuli/MODEL_filters-64_resnets-3_logmixes-12_latents-10_repeat-07_SEED09_STEP01.png,stimuli/MODEL_filters-64_resnets-3_logmixes-12_latents-10_repeat-07_SEED09_STEP02.png,stimuli/MODEL_filters-64_resnets-3_logmixes-12_latents-10_repeat-07_SEED09_STEP03.png,stimuli/MODEL_filters-64_resnets-3_logmixes-12_latents-10_repeat-07_SEED09_STEP04.png,0,10,10,63,"[3, 0, 1, 2, 4]","[1, 2, 3, 4, 5]",04,19,f,y,y,2019_Apr_03_1601,gloss_ordering_task,59.980946498778096,
stimuli/MODEL_filters-64_resnets-3_logmixes-12_latents-10_repeat-08_SEED03_STEP00.png,stimuli/MODEL_filters-64_resnets-3_logmixes-12_latents-10_repeat-08_SEED03_STEP01.png,stimuli/MODEL_filters-64_resnets-3_logmixes-12_latents-10_repeat-08_SEED03_STEP02.png,stimuli/MODEL_filters-64_resnets-3_logmixes-12_latents-10_repeat-08_SEED03_STEP03.png,stimuli/MODEL_filters-64_resnets-3_logmixes-12_latents-10_repeat-08_SEED03_STEP04.png,0,11,11,66,"[0, 2, 4, 3, 1]","[1, 2, 3, 4, 5]",04,19,f,y,y,2019_Apr_03_1601,gloss_ordering_task,59.980946498778096,
stimuli/MODEL_filters-64_resnets-3_logmixes-12_latents-10_repeat-02_SEED06_STEP00.png,stimuli/MODEL_filters-64_resnets-3_logmixes-12_latents-10_repeat-02_SEED06_STEP01.png,stimuli/MODEL_filters-64_resnets-3_logmixes-12_latents-10_repeat-02_SEED06_STEP02.png,stimuli/MODEL_filters-64_resnets-3_logmixes-12_latents-10_repeat-02_SEED06_STEP03.png,stimuli/MODEL_filters-64_resnets-3_logmixes-12_latents-10_repeat-02_SEED06_STEP04.png,0,12,12,21,"[4, 1, 3, 0, 2]","[2, 1, 3, 4, 5]",04,19,f,y,y,2019_Apr_03_1601,gloss_ordering_task,59.980946498778096,
stimuli/MODEL_filters-64_resnets-3_logmixes-12_latents-10_repeat-05_SEED05_STEP00.png,stimuli/MODEL_filters-64_resnets-3_logmixes-12_latents-10_repeat-05_SEED05_STEP01.png,stimuli/MODEL_filters-64_resnets-3_logmixes-12_latents-10_repeat-05_SEED05_STEP02.png,stimuli/MODEL_filters-64_resnets-3_logmixes-12_latents-10_repeat-05_SEED05_STEP03.png,stimuli/MODEL_filters-64_resnets-3_logmixes-12_latents-10_repeat-05_SEED05_STEP04.png,0,13,13,44,"[2, 4, 1, 0, 3]","[5, 3, 4, 2, 1]",04,19,f,y,y,2019_Apr_03_1601,gloss_ordering_task,59.980946498778096,
stimuli/MODEL_filters-64_resnets-3_logmixes-12_latents-10_repeat-04_SEED09_STEP00.png,stimuli/MODEL_filters-64_resnets-3_logmixes-12_latents-10_repeat-04_SEED09_STEP01.png,stimuli/MODEL_filters-64_resnets-3_logmixes-12_latents-10_repeat-04_SEED09_STEP02.png,stimuli/MODEL_filters-64_resnets-3_logmixes-12_latents-10_repeat-04_SEED09_STEP03.png,stimuli/MODEL_filters-64_resnets-3_logmixes-12_latents-10_repeat-04_SEED09_STEP04.png,0,14,14,39,"[3, 0, 1, 2, 4]","[5, 4, 3, 2, 1]",04,19,f,y,y,2019_Apr_03_1601,gloss_ordering_task,59.980946498778096,
stimuli/MODEL_filters-64_resnets-3_logmixes-12_latents-10_repeat-04_SEED02_STEP00.png,stimuli/MODEL_filters-64_resnets-3_logmixes-12_latents-10_repeat-04_SEED02_STEP01.png,stimuli/MODEL_filters-64_resnets-3_logmixes-12_latents-10_repeat-04_SEED02_STEP02.png,stimuli/MODEL_filters-64_resnets-3_logmixes-12_latents-10_repeat-04_SEED02_STEP03.png,stimuli/MODEL_filters-64_resnets-3_logmixes-12_latents-10_repeat-04_SEED02_STEP04.png,0,15,15,33,"[2, 4, 1, 3, 0]","[5, 4, 2, 3, 1]",04,19,f,y,y,2019_Apr_03_1601,gloss_ordering_task,59.980946498778096,
stimuli/MODEL_filters-64_resnets-3_logmixes-12_latents-10_repeat-07_SEED03_STEP00.png,stimuli/MODEL_filters-64_resnets-3_logmixes-12_latents-10_repeat-07_SEED03_STEP01.png,stimuli/MODEL_filters-64_resnets-3_logmixes-12_latents-10_repeat-07_SEED03_STEP02.png,stimuli/MODEL_filters-64_resnets-3_logmixes-12_latents-10_repeat-07_SEED03_STEP03.png,stimuli/MODEL_filters-64_resnets-3_logmixes-12_latents-10_repeat-07_SEED03_STEP04.png,0,16,16,58,"[0, 1, 3, 4, 2]","[1, 2, 3, 4, 5]",04,19,f,y,y,2019_Apr_03_1601,gloss_ordering_task,59.980946498778096,
stimuli/MODEL_filters-64_resnets-3_logmixes-12_latents-10_repeat-00_SEED05_STEP00.png,stimuli/MODEL_filters-64_resnets-3_logmixes-12_latents-10_repeat-00_SEED05_STEP01.png,stimuli/MODEL_filters-64_resnets-3_logmixes-12_latents-10_repeat-00_SEED05_STEP02.png,stimuli/MODEL_filters-64_resnets-3_logmixes-12_latents-10_repeat-00_SEED05_STEP03.png,stimuli/MODEL_filters-64_resnets-3_logmixes-12_latents-10_repeat-00_SEED05_STEP04.png,0,17,17,4,"[0, 4, 1, 3, 2]","[3, 1, 2, 4, 5]",04,19,f,y,y,2019_Apr_03_1601,gloss_ordering_task,59.980946498778096,
stimuli/MODEL_filters-64_resnets-3_logmixes-12_latents-10_repeat-00_SEED04_STEP00.png,stimuli/MODEL_filters-64_resnets-3_logmixes-12_latents-10_repeat-00_SEED04_STEP01.png,stimuli/MODEL_filters-64_resnets-3_logmixes-12_latents-10_repeat-00_SEED04_STEP02.png,stimuli/MODEL_filters-64_resnets-3_logmixes-12_latents-10_repeat-00_SEED04_STEP03.png,stimuli/MODEL_filters-64_resnets-3_logmixes-12_latents-10_repeat-00_SEED04_STEP04.png,0,18,18,3,"[2, 3, 0, 4, 1]","[4, 5, 3, 2, 1]",04,19,f,y,y,2019_Apr_03_1601,gloss_ordering_task,59.980946498778096,
stimuli/MODEL_filters-64_resnets-3_logmixes-12_latents-10_repeat-07_SEED05_STEP00.png,stimuli/MODEL_filters-64_resnets-3_logmixes-12_latents-10_repeat-07_SEED05_STEP01.png,stimuli/MODEL_filters-64_resnets-3_logmixes-12_latents-10_repeat-07_SEED05_STEP02.png,stimuli/MODEL_filters-64_resnets-3_logmixes-12_latents-10_repeat-07_SEED05_STEP03.png,stimuli/MODEL_filters-64_resnets-3_logmixes-12_latents-10_repeat-07_SEED05_STEP04.png,0,19,19,60,"[4, 3, 2, 1, 0]","[2, 3, 1, 4, 5]",04,19,f,y,y,2019_Apr_03_1601,gloss_ordering_task,59.980946498778096,
stimuli/MODEL_filters-64_resnets-3_logmixes-12_latents-10_repeat-09_SEED00_STEP00.png,stimuli/MODEL_filters-64_resnets-3_logmixes-12_latents-10_repeat-09_SEED00_STEP01.png,stimuli/MODEL_filters-64_resnets-3_logmixes-12_latents-10_repeat-09_SEED00_STEP02.png,stimuli/MODEL_filters-64_resnets-3_logmixes-12_latents-10_repeat-09_SEED00_STEP03.png,stimuli/MODEL_filters-64_resnets-3_logmixes-12_latents-10_repeat-09_SEED00_STEP04.png,0,20,20,72,"[0, 1, 4, 2, 3]","[1, 2, 3, 4, 5]",04,19,f,y,y,2019_Apr_03_1601,gloss_ordering_task,59.980946498778096,
stimuli/MODEL_filters-64_resnets-3_logmixes-12_latents-10_repeat-05_SEED03_STEP00.png,stimuli/MODEL_filters-64_resnets-3_logmixes-12_latents-10_repeat-05_SEED03_STEP01.png,stimuli/MODEL_filters-64_resnets-3_logmixes-12_latents-10_repeat-05_SEED03_STEP02.png,stimuli/MODEL_filters-64_resnets-3_logmixes-12_latents-10_repeat-05_SEED03_STEP03.png,stimuli/MODEL_filters-64_resnets-3_logmixes-12_latents-10_repeat-05_SEED03_STEP04.png,0,21,21,42,"[4, 2, 1, 0, 3]","[1, 2, 4, 3, 5]",04,19,f,y,y,2019_Apr_03_1601,gloss_ordering_task,59.980946498778096,
stimuli/MODEL_filters-64_resnets-3_logmixes-12_latents-10_repeat-06_SEED06_STEP00.png,stimuli/MODEL_filters-64_resnets-3_logmixes-12_latents-10_repeat-06_SEED06_STEP01.png,stimuli/MODEL_filters-64_resnets-3_logmixes-12_latents-10_repeat-06_SEED06_STEP02.png,stimuli/MODEL_filters-64_resnets-3_logmixes-12_latents-10_repeat-06_SEED06_STEP03.png,stimuli/MODEL_filters-64_resnets-3_logmixes-12_latents-10_repeat-06_SEED06_STEP04.png,0,22,22,53,"[0, 4, 1, 2, 3]","[1, 2, 3, 4, 5]",04,19,f,y,y,2019_Apr_03_1601,gloss_ordering_task,59.980946498778096,
stimuli/MODEL_filters-64_resnets-3_logmixes-12_latents-10_repeat-05_SEED00_STEP00.png,stimuli/MODEL_filters-64_resnets-3_logmixes-12_latents-10_repeat-05_SEED00_STEP01.png,stimuli/MODEL_filters-64_resnets-3_logmixes-12_latents-10_repeat-05_SEED00_STEP02.png,stimuli/MODEL_filters-64_resnets-3_logmixes-12_latents-10_repeat-05_SEED00_STEP03.png,stimuli/MODEL_filters-64_resnets-3_logmixes-12_latents-10_repeat-05_SEED00_STEP04.png,0,23,23,40,"[0, 4, 3, 1, 2]","[2, 4, 1, 3, 5]",04,19,f,y,y,2019_Apr_03_1601,gloss_ordering_task,59.980946498778096,
stimuli/MODEL_filters-64_resnets-3_logmixes-12_latents-10_repeat-01_SEED02_STEP00.png,stimuli/MODEL_filters-64_resnets-3_logmixes-12_latents-10_repeat-01_SEED02_STEP01.png,stimuli/MODEL_filters-64_resnets-3_logmixes-12_latents-10_repeat-01_SEED02_STEP02.png,stimuli/MODEL_filters-64_resnets-3_logmixes-12_latents-10_repeat-01_SEED02_STEP03.png,stimuli/MODEL_filters-64_resnets-3_logmixes-12_latents-10_repeat-01_SEED02_STEP04.png,0,24,24,9,"[4, 1, 3, 0, 2]","[1, 3, 2, 4, 5]",04,19,f,y,y,2019_Apr_03_1601,gloss_ordering_task,59.980946498778096,
stimuli/MODEL_filters-64_resnets-3_logmixes-12_latents-10_repeat-00_SEED02_STEP00.png,stimuli/MODEL_filters-64_resnets-3_logmixes-12_latents-10_repeat-00_SEED02_STEP01.png,stimuli/MODEL_filters-64_resnets-3_logmixes-12_latents-10_repeat-00_SEED02_STEP02.png,stimuli/MODEL_filters-64_resnets-3_logmixes-12_latents-10_repeat-00_SEED02_STEP03.png,stimuli/MODEL_filters-64_resnets-3_logmixes-12_latents-10_repeat-00_SEED02_STEP04.png,0,25,25,1,"[3, 1, 0, 2, 4]","[4, 5, 1, 3, 2]",04,19,f,y,y,2019_Apr_03_1601,gloss_ordering_task,59.980946498778096,
stimuli/MODEL_filters-64_resnets-3_logmixes-12_latents-10_repeat-08_SEED07_STEP00.png,stimuli/MODEL_filters-64_resnets-3_logmixes-12_latents-10_repeat-08_SEED07_STEP01.png,stimuli/MODEL_filters-64_resnets-3_logmixes-12_latents-10_repeat-08_SEED07_STEP02.png,stimuli/MODEL_filters-64_resnets-3_logmixes-12_latents-10_repeat-08_SEED07_STEP03.png,stimuli/MODEL_filters-64_resnets-3_logmixes-12_latents-10_repeat-08_SEED07_STEP04.png,0,26,26,70,"[3, 2, 1, 0, 4]","[3, 2, 1, 4, 5]",04,19,f,y,y,2019_Apr_03_1601,gloss_ordering_task,59.980946498778096,
stimuli/MODEL_filters-64_resnets-3_logmixes-12_latents-10_repeat-02_SEED03_STEP00.png,stimuli/MODEL_filters-64_resnets-3_logmixes-12_latents-10_repeat-02_SEED03_STEP01.png,stimuli/MODEL_filters-64_resnets-3_logmixes-12_latents-10_repeat-02_SEED03_STEP02.png,stimuli/MODEL_filters-64_resnets-3_logmixes-12_latents-10_repeat-02_SEED03_STEP03.png,stimuli/MODEL_filters-64_resnets-3_logmixes-12_latents-10_repeat-02_SEED03_STEP04.png,0,27,27,18,"[0, 2, 4, 1, 3]","[2, 1, 3, 4, 5]",04,19,f,y,y,2019_Apr_03_1601,gloss_ordering_task,59.980946498778096,
stimuli/MODEL_filters-64_resnets-3_logmixes-12_latents-10_repeat-03_SEED00_STEP00.png,stimuli/MODEL_filters-64_resnets-3_logmixes-12_latents-10_repeat-03_SEED00_STEP01.png,stimuli/MODEL_filters-64_resnets-3_logmixes-12_latents-10_repeat-03_SEED00_STEP02.png,stimuli/MODEL_filters-64_resnets-3_logmixes-12_latents-10_repeat-03_SEED00_STEP03.png,stimuli/MODEL_filters-64_resnets-3_logmixes-12_latents-10_repeat-03_SEED00_STEP04.png,0,28,28,24,"[2, 1, 0, 4, 3]","[1, 2, 3, 4, 5]",04,19,f,y,y,2019_Apr_03_1601,gloss_ordering_task,59.980946498778096,
stimuli/MODEL_filters-64_resnets-3_logmixes-12_latents-10_repeat-00_SEED07_STEP00.png,stimuli/MODEL_filters-64_resnets-3_logmixes-12_latents-10_repeat-00_SEED07_STEP01.png,stimuli/MODEL_filters-64_resnets-3_logmixes-12_latents-10_repeat-00_SEED07_STEP02.png,stimuli/MODEL_filters-64_resnets-3_logmixes-12_latents-10_repeat-00_SEED07_STEP03.png,stimuli/MODEL_filters-64_resnets-3_logmixes-12_latents-10_repeat-00_SEED07_STEP04.png,0,29,29,6,"[2, 4, 1, 0, 3]","[3, 2, 1, 4, 5]",04,19,f,y,y,2019_Apr_03_1601,gloss_ordering_task,59.980946498778096,
stimuli/MODEL_filters-64_resnets-3_logmixes-12_latents-10_repeat-05_SEED09_STEP00.png,stimuli/MODEL_filters-64_resnets-3_logmixes-12_latents-10_repeat-05_SEED09_STEP01.png,stimuli/MODEL_filters-64_resnets-3_logmixes-12_latents-10_repeat-05_SEED09_STEP02.png,stimuli/MODEL_filters-64_resnets-3_logmixes-12_latents-10_repeat-05_SEED09_STEP03.png,stimuli/MODEL_filters-64_resnets-3_logmixes-12_latents-10_repeat-05_SEED09_STEP04.png,0,30,30,47,"[0, 4, 3, 1, 2]","[2, 3, 4, 1, 5]",04,19,f,y,y,2019_Apr_03_1601,gloss_ordering_task,59.980946498778096,
stimuli/MODEL_filters-64_resnets-3_logmixes-12_latents-10_repeat-03_SEED02_STEP00.png,stimuli/MODEL_filters-64_resnets-3_logmixes-12_latents-10_repeat-03_SEED02_STEP01.png,stimuli/MODEL_filters-64_resnets-3_logmixes-12_latents-10_repeat-03_SEED02_STEP02.png,stimuli/MODEL_filters-64_resnets-3_logmixes-12_latents-10_repeat-03_SEED02_STEP03.png,stimuli/MODEL_filters-64_resnets-3_logmixes-12_latents-10_repeat-03_SEED02_STEP04.png,0,31,31,25,"[0, 3, 4, 2, 1]","[3, 2, 4, 5, 1]",04,19,f,y,y,2019_Apr_03_1601,gloss_ordering_task,59.980946498778096,
stimuli/MODEL_filters-64_resnets-3_logmixes-12_latents-10_repeat-01_SEED04_STEP00.png,stimuli/MODEL_filters-64_resnets-3_logmixes-12_latents-10_repeat-01_SEED04_STEP01.png,stimuli/MODEL_filters-64_resnets-3_logmixes-12_latents-10_repeat-01_SEED04_STEP02.png,stimuli/MODEL_filters-64_resnets-3_logmixes-12_latents-10_repeat-01_SEED04_STEP03.png,stimuli/MODEL_filters-64_resnets-3_logmixes-12_latents-10_repeat-01_SEED04_STEP04.png,0,32,32,11,"[1, 2, 0, 3, 4]","[4, 2, 1, 3, 5]",04,19,f,y,y,2019_Apr_03_1601,gloss_ordering_task,59.980946498778096,
stimuli/MODEL_filters-64_resnets-3_logmixes-12_latents-10_repeat-06_SEED02_STEP00.png,stimuli/MODEL_filters-64_resnets-3_logmixes-12_latents-10_repeat-06_SEED02_STEP01.png,stimuli/MODEL_filters-64_resnets-3_logmixes-12_latents-10_repeat-06_SEED02_STEP02.png,stimuli/MODEL_filters-64_resnets-3_logmixes-12_latents-10_repeat-06_SEED02_STEP03.png,stimuli/MODEL_filters-64_resnets-3_logmixes-12_latents-10_repeat-06_SEED02_STEP04.png,0,33,33,49,"[2, 1, 0, 4, 3]","[2, 1, 5, 3, 4]",04,19,f,y,y,2019_Apr_03_1601,gloss_ordering_task,59.980946498778096,
stimuli/MODEL_filters-64_resnets-3_logmixes-12_latents-10_repeat-01_SEED00_STEP00.png,stimuli/MODEL_filters-64_resnets-3_logmixes-12_latents-10_repeat-01_SEED00_STEP01.png,stimuli/MODEL_filters-64_resnets-3_logmixes-12_latents-10_repeat-01_SEED00_STEP02.png,stimuli/MODEL_filters-64_resnets-3_logmixes-12_latents-10_repeat-01_SEED00_STEP03.png,stimuli/MODEL_filters-64_resnets-3_logmixes-12_latents-10_repeat-01_SEED00_STEP04.png,0,34,34,8,"[1, 2, 3, 4, 0]","[1, 2, 3, 4, 5]",04,19,f,y,y,2019_Apr_03_1601,gloss_ordering_task,59.980946498778096,
stimuli/MODEL_filters-64_resnets-3_logmixes-12_latents-10_repeat-02_SEED07_STEP00.png,stimuli/MODEL_filters-64_resnets-3_logmixes-12_latents-10_repeat-02_SEED07_STEP01.png,stimuli/MODEL_filters-64_resnets-3_logmixes-12_latents-10_repeat-02_SEED07_STEP02.png,stimuli/MODEL_filters-64_resnets-3_logmixes-12_latents-10_repeat-02_SEED07_STEP03.png,stimuli/MODEL_filters-64_resnets-3_logmixes-12_latents-10_repeat-02_SEED07_STEP04.png,0,35,35,22,"[1, 3, 4, 0, 2]","[1, 2, 3, 4, 5]",04,19,f,y,y,2019_Apr_03_1601,gloss_ordering_task,59.980946498778096,
stimuli/MODEL_filters-64_resnets-3_logmixes-12_latents-10_repeat-00_SEED06_STEP00.png,stimuli/MODEL_filters-64_resnets-3_logmixes-12_latents-10_repeat-00_SEED06_STEP01.png,stimuli/MODEL_filters-64_resnets-3_logmixes-12_latents-10_repeat-00_SEED06_STEP02.png,stimuli/MODEL_filters-64_resnets-3_logmixes-12_latents-10_repeat-00_SEED06_STEP03.png,stimuli/MODEL_filters-64_resnets-3_logmixes-12_latents-10_repeat-00_SEED06_STEP04.png,0,36,36,5,"[0, 1, 4, 2, 3]","[2, 1, 3, 4, 5]",04,19,f,y,y,2019_Apr_03_1601,gloss_ordering_task,59.980946498778096,
stimuli/MODEL_filters-64_resnets-3_logmixes-12_latents-10_repeat-04_SEED00_STEP00.png,stimuli/MODEL_filters-64_resnets-3_logmixes-12_latents-10_repeat-04_SEED00_STEP01.png,stimuli/MODEL_filters-64_resnets-3_logmixes-12_latents-10_repeat-04_SEED00_STEP02.png,stimuli/MODEL_filters-64_resnets-3_logmixes-12_latents-10_repeat-04_SEED00_STEP03.png,stimuli/MODEL_filters-64_resnets-3_logmixes-12_latents-10_repeat-04_SEED00_STEP04.png,0,37,37,32,"[0, 4, 2, 3, 1]","[5, 3, 2, 1, 4]",04,19,f,y,y,2019_Apr_03_1601,gloss_ordering_task,59.980946498778096,
stimuli/MODEL_filters-64_resnets-3_logmixes-12_latents-10_repeat-04_SEED04_STEP00.png,stimuli/MODEL_filters-64_resnets-3_logmixes-12_latents-10_repeat-04_SEED04_STEP01.png,stimuli/MODEL_filters-64_resnets-3_logmixes-12_latents-10_repeat-04_SEED04_STEP02.png,stimuli/MODEL_filters-64_resnets-3_logmixes-12_latents-10_repeat-04_SEED04_STEP03.png,stimuli/MODEL_filters-64_resnets-3_logmixes-12_latents-10_repeat-04_SEED04_STEP04.png,0,38,38,35,"[2, 3, 4, 0, 1]","[1, 2, 3, 4, 5]",04,19,f,y,y,2019_Apr_03_1601,gloss_ordering_task,59.980946498778096,
stimuli/MODEL_filters-64_resnets-3_logmixes-12_latents-10_repeat-04_SEED03_STEP00.png,stimuli/MODEL_filters-64_resnets-3_logmixes-12_latents-10_repeat-04_SEED03_STEP01.png,stimuli/MODEL_filters-64_resnets-3_logmixes-12_latents-10_repeat-04_SEED03_STEP02.png,stimuli/MODEL_filters-64_resnets-3_logmixes-12_latents-10_repeat-04_SEED03_STEP03.png,stimuli/MODEL_filters-64_resnets-3_logmixes-12_latents-10_repeat-04_SEED03_STEP04.png,0,39,39,34,"[0, 2, 1, 4, 3]","[1, 2, 3, 4, 5]",04,19,f,y,y,2019_Apr_03_1601,gloss_ordering_task,59.980946498778096,
stimuli/MODEL_filters-64_resnets-3_logmixes-12_latents-10_repeat-07_SEED00_STEP00.png,stimuli/MODEL_filters-64_resnets-3_logmixes-12_latents-10_repeat-07_SEED00_STEP01.png,stimuli/MODEL_filters-64_resnets-3_logmixes-12_latents-10_repeat-07_SEED00_STEP02.png,stimuli/MODEL_filters-64_resnets-3_logmixes-12_latents-10_repeat-07_SEED00_STEP03.png,stimuli/MODEL_filters-64_resnets-3_logmixes-12_latents-10_repeat-07_SEED00_STEP04.png,0,40,40,56,"[4, 1, 3, 0, 2]","[1, 2, 4, 3, 5]",04,19,f,y,y,2019_Apr_03_1601,gloss_ordering_task,59.980946498778096,
stimuli/MODEL_filters-64_resnets-3_logmixes-12_latents-10_repeat-02_SEED09_STEP00.png,stimuli/MODEL_filters-64_resnets-3_logmixes-12_latents-10_repeat-02_SEED09_STEP01.png,stimuli/MODEL_filters-64_resnets-3_logmixes-12_latents-10_repeat-02_SEED09_STEP02.png,stimuli/MODEL_filters-64_resnets-3_logmixes-12_latents-10_repeat-02_SEED09_STEP03.png,stimuli/MODEL_filters-64_resnets-3_logmixes-12_latents-10_repeat-02_SEED09_STEP04.png,0,41,41,23,"[2, 0, 4, 3, 1]","[3, 1, 2, 4, 5]",04,19,f,y,y,2019_Apr_03_1601,gloss_ordering_task,59.980946498778096,
stimuli/MODEL_filters-64_resnets-3_logmixes-12_latents-10_repeat-03_SEED06_STEP00.png,stimuli/MODEL_filters-64_resnets-3_logmixes-12_latents-10_repeat-03_SEED06_STEP01.png,stimuli/MODEL_filters-64_resnets-3_logmixes-12_latents-10_repeat-03_SEED06_STEP02.png,stimuli/MODEL_filters-64_resnets-3_logmixes-12_latents-10_repeat-03_SEED06_STEP03.png,stimuli/MODEL_filters-64_resnets-3_logmixes-12_latents-10_repeat-03_SEED06_STEP04.png,0,42,42,29,"[0, 2, 4, 1, 3]","[3, 2, 1, 4, 5]",04,19,f,y,y,2019_Apr_03_1601,gloss_ordering_task,59.980946498778096,
stimuli/MODEL_filters-64_resnets-3_logmixes-12_latents-10_repeat-09_SEED06_STEP00.png,stimuli/MODEL_filters-64_resnets-3_logmixes-12_latents-10_repeat-09_SEED06_STEP01.png,stimuli/MODEL_filters-64_resnets-3_logmixes-12_latents-10_repeat-09_SEED06_STEP02.png,stimuli/MODEL_filters-64_resnets-3_logmixes-12_latents-10_repeat-09_SEED06_STEP03.png,stimuli/MODEL_filters-64_resnets-3_logmixes-12_latents-10_repeat-09_SEED06_STEP04.png,0,43,43,77,"[4, 1, 0, 3, 2]","[2, 1, 3, 4, 5]",04,19,f,y,y,2019_Apr_03_1601,gloss_ordering_task,59.980946498778096,
stimuli/MODEL_filters-64_resnets-3_logmixes-12_latents-10_repeat-01_SEED06_STEP00.png,stimuli/MODEL_filters-64_resnets-3_logmixes-12_latents-10_repeat-01_SEED06_STEP01.png,stimuli/MODEL_filters-64_resnets-3_logmixes-12_latents-10_repeat-01_SEED06_STEP02.png,stimuli/MODEL_filters-64_resnets-3_logmixes-12_latents-10_repeat-01_SEED06_STEP03.png,stimuli/MODEL_filters-64_resnets-3_logmixes-12_latents-10_repeat-01_SEED06_STEP04.png,0,44,44,13,"[2, 1, 4, 0, 3]","[1, 3, 2, 4, 5]",04,19,f,y,y,2019_Apr_03_1601,gloss_ordering_task,59.980946498778096,
stimuli/MODEL_filters-64_resnets-3_logmixes-12_latents-10_repeat-07_SEED07_STEP00.png,stimuli/MODEL_filters-64_resnets-3_logmixes-12_latents-10_repeat-07_SEED07_STEP01.png,stimuli/MODEL_filters-64_resnets-3_logmixes-12_latents-10_repeat-07_SEED07_STEP02.png,stimuli/MODEL_filters-64_resnets-3_logmixes-12_latents-10_repeat-07_SEED07_STEP03.png,stimuli/MODEL_filters-64_resnets-3_logmixes-12_latents-10_repeat-07_SEED07_STEP04.png,0,45,45,62,"[4, 1, 3, 0, 2]","[1, 2, 3, 5, 4]",04,19,f,y,y,2019_Apr_03_1601,gloss_ordering_task,59.980946498778096,
stimuli/MODEL_filters-64_resnets-3_logmixes-12_latents-10_repeat-06_SEED03_STEP00.png,stimuli/MODEL_filters-64_resnets-3_logmixes-12_latents-10_repeat-06_SEED03_STEP01.png,stimuli/MODEL_filters-64_resnets-3_logmixes-12_latents-10_repeat-06_SEED03_STEP02.png,stimuli/MODEL_filters-64_resnets-3_logmixes-12_latents-10_repeat-06_SEED03_STEP03.png,stimuli/MODEL_filters-64_resnets-3_logmixes-12_latents-10_repeat-06_SEED03_STEP04.png,0,46,46,50,"[1, 0, 3, 4, 2]","[1, 2, 4, 3, 5]",04,19,f,y,y,2019_Apr_03_1601,gloss_ordering_task,59.980946498778096,
stimuli/MODEL_filters-64_resnets-3_logmixes-12_latents-10_repeat-04_SEED07_STEP00.png,stimuli/MODEL_filters-64_resnets-3_logmixes-12_latents-10_repeat-04_SEED07_STEP01.png,stimuli/MODEL_filters-64_resnets-3_logmixes-12_latents-10_repeat-04_SEED07_STEP02.png,stimuli/MODEL_filters-64_resnets-3_logmixes-12_latents-10_repeat-04_SEED07_STEP03.png,stimuli/MODEL_filters-64_resnets-3_logmixes-12_latents-10_repeat-04_SEED07_STEP04.png,0,47,47,38,"[1, 3, 2, 0, 4]","[5, 2, 1, 3, 4]",04,19,f,y,y,2019_Apr_03_1601,gloss_ordering_task,59.980946498778096,
stimuli/MODEL_filters-64_resnets-3_logmixes-12_latents-10_repeat-08_SEED04_STEP00.png,stimuli/MODEL_filters-64_resnets-3_logmixes-12_latents-10_repeat-08_SEED04_STEP01.png,stimuli/MODEL_filters-64_resnets-3_logmixes-12_latents-10_repeat-08_SEED04_STEP02.png,stimuli/MODEL_filters-64_resnets-3_logmixes-12_latents-10_repeat-08_SEED04_STEP03.png,stimuli/MODEL_filters-64_resnets-3_logmixes-12_latents-10_repeat-08_SEED04_STEP04.png,0,48,48,67,"[2, 0, 1, 4, 3]","[4, 3, 1, 5, 2]",04,19,f,y,y,2019_Apr_03_1601,gloss_ordering_task,59.980946498778096,
stimuli/MODEL_filters-64_resnets-3_logmixes-12_latents-10_repeat-07_SEED04_STEP00.png,stimuli/MODEL_filters-64_resnets-3_logmixes-12_latents-10_repeat-07_SEED04_STEP01.png,stimuli/MODEL_filters-64_resnets-3_logmixes-12_latents-10_repeat-07_SEED04_STEP02.png,stimuli/MODEL_filters-64_resnets-3_logmixes-12_latents-10_repeat-07_SEED04_STEP03.png,stimuli/MODEL_filters-64_resnets-3_logmixes-12_latents-10_repeat-07_SEED04_STEP04.png,0,49,49,59,"[0, 2, 4, 3, 1]","[4, 2, 1, 3, 5]",04,19,f,y,y,2019_Apr_03_1601,gloss_ordering_task,59.980946498778096,
stimuli/MODEL_filters-64_resnets-3_logmixes-12_latents-10_repeat-04_SEED06_STEP00.png,stimuli/MODEL_filters-64_resnets-3_logmixes-12_latents-10_repeat-04_SEED06_STEP01.png,stimuli/MODEL_filters-64_resnets-3_logmixes-12_latents-10_repeat-04_SEED06_STEP02.png,stimuli/MODEL_filters-64_resnets-3_logmixes-12_latents-10_repeat-04_SEED06_STEP03.png,stimuli/MODEL_filters-64_resnets-3_logmixes-12_latents-10_repeat-04_SEED06_STEP04.png,0,50,50,37,"[1, 3, 4, 2, 0]","[5, 1, 3, 4, 2]",04,19,f,y,y,2019_Apr_03_1601,gloss_ordering_task,59.980946498778096,
stimuli/MODEL_filters-64_resnets-3_logmixes-12_latents-10_repeat-06_SEED05_STEP00.png,stimuli/MODEL_filters-64_resnets-3_logmixes-12_latents-10_repeat-06_SEED05_STEP01.png,stimuli/MODEL_filters-64_resnets-3_logmixes-12_latents-10_repeat-06_SEED05_STEP02.png,stimuli/MODEL_filters-64_resnets-3_logmixes-12_latents-10_repeat-06_SEED05_STEP03.png,stimuli/MODEL_filters-64_resnets-3_logmixes-12_latents-10_repeat-06_SEED05_STEP04.png,0,51,51,52,"[1, 0, 2, 4, 3]","[3, 1, 4, 2, 5]",04,19,f,y,y,2019_Apr_03_1601,gloss_ordering_task,59.980946498778096,
stimuli/MODEL_filters-64_resnets-3_logmixes-12_latents-10_repeat-09_SEED03_STEP00.png,stimuli/MODEL_filters-64_resnets-3_logmixes-12_latents-10_repeat-09_SEED03_STEP01.png,stimuli/MODEL_filters-64_resnets-3_logmixes-12_latents-10_repeat-09_SEED03_STEP02.png,stimuli/MODEL_filters-64_resnets-3_logmixes-12_latents-10_repeat-09_SEED03_STEP03.png,stimuli/MODEL_filters-64_resnets-3_logmixes-12_latents-10_repeat-09_SEED03_STEP04.png,0,52,52,74,"[0, 3, 4, 2, 1]","[1, 2, 3, 4, 5]",04,19,f,y,y,2019_Apr_03_1601,gloss_ordering_task,59.980946498778096,
stimuli/MODEL_filters-64_resnets-3_logmixes-12_latents-10_repeat-09_SEED04_STEP00.png,stimuli/MODEL_filters-64_resnets-3_logmixes-12_latents-10_repeat-09_SEED04_STEP01.png,stimuli/MODEL_filters-64_resnets-3_logmixes-12_latents-10_repeat-09_SEED04_STEP02.png,stimuli/MODEL_filters-64_resnets-3_logmixes-12_latents-10_repeat-09_SEED04_STEP03.png,stimuli/MODEL_filters-64_resnets-3_logmixes-12_latents-10_repeat-09_SEED04_STEP04.png,0,53,53,75,"[2, 4, 1, 0, 3]","[4, 3, 1, 2, 5]",04,19,f,y,y,2019_Apr_03_1601,gloss_ordering_task,59.980946498778096,
stimuli/MODEL_filters-64_resnets-3_logmixes-12_latents-10_repeat-09_SEED05_STEP00.png,stimuli/MODEL_filters-64_resnets-3_logmixes-12_latents-10_repeat-09_SEED05_STEP01.png,stimuli/MODEL_filters-64_resnets-3_logmixes-12_latents-10_repeat-09_SEED05_STEP02.png,stimuli/MODEL_filters-64_resnets-3_logmixes-12_latents-10_repeat-09_SEED05_STEP03.png,stimuli/MODEL_filters-64_resnets-3_logmixes-12_latents-10_repeat-09_SEED05_STEP04.png,0,54,54,76,"[1, 2, 0, 3, 4]","[1, 3, 2, 4, 5]",04,19,f,y,y,2019_Apr_03_1601,gloss_ordering_task,59.980946498778096,
stimuli/MODEL_filters-64_resnets-3_logmixes-12_latents-10_repeat-01_SEED05_STEP00.png,stimuli/MODEL_filters-64_resnets-3_logmixes-12_latents-10_repeat-01_SEED05_STEP01.png,stimuli/MODEL_filters-64_resnets-3_logmixes-12_latents-10_repeat-01_SEED05_STEP02.png,stimuli/MODEL_filters-64_resnets-3_logmixes-12_latents-10_repeat-01_SEED05_STEP03.png,stimuli/MODEL_filters-64_resnets-3_logmixes-12_latents-10_repeat-01_SEED05_STEP04.png,0,55,55,12,"[2, 3, 4, 1, 0]","[1, 2, 3, 4, 5]",04,19,f,y,y,2019_Apr_03_1601,gloss_ordering_task,59.980946498778096,
stimuli/MODEL_filters-64_resnets-3_logmixes-12_latents-10_repeat-01_SEED07_STEP00.png,stimuli/MODEL_filters-64_resnets-3_logmixes-12_latents-10_repeat-01_SEED07_STEP01.png,stimuli/MODEL_filters-64_resnets-3_logmixes-12_latents-10_repeat-01_SEED07_STEP02.png,stimuli/MODEL_filters-64_resnets-3_logmixes-12_latents-10_repeat-01_SEED07_STEP03.png,stimuli/MODEL_filters-64_resnets-3_logmixes-12_latents-10_repeat-01_SEED07_STEP04.png,0,56,56,14,"[4, 2, 3, 0, 1]","[2, 3, 1, 4, 5]",04,19,f,y,y,2019_Apr_03_1601,gloss_ordering_task,59.980946498778096,
stimuli/MODEL_filters-64_resnets-3_logmixes-12_latents-10_repeat-07_SEED02_STEP00.png,stimuli/MODEL_filters-64_resnets-3_logmixes-12_latents-10_repeat-07_SEED02_STEP01.png,stimuli/MODEL_filters-64_resnets-3_logmixes-12_latents-10_repeat-07_SEED02_STEP02.png,stimuli/MODEL_filters-64_resnets-3_logmixes-12_latents-10_repeat-07_SEED02_STEP03.png,stimuli/MODEL_filters-64_resnets-3_logmixes-12_latents-10_repeat-07_SEED02_STEP04.png,0,57,57,57,"[4, 0, 1, 2, 3]","[2, 1, 3, 4, 5]",04,19,f,y,y,2019_Apr_03_1601,gloss_ordering_task,59.980946498778096,
stimuli/MODEL_filters-64_resnets-3_logmixes-12_latents-10_repeat-07_SEED06_STEP00.png,stimuli/MODEL_filters-64_resnets-3_logmixes-12_latents-10_repeat-07_SEED06_STEP01.png,stimuli/MODEL_filters-64_resnets-3_logmixes-12_latents-10_repeat-07_SEED06_STEP02.png,stimuli/MODEL_filters-64_resnets-3_logmixes-12_latents-10_repeat-07_SEED06_STEP03.png,stimuli/MODEL_filters-64_resnets-3_logmixes-12_latents-10_repeat-07_SEED06_STEP04.png,0,58,58,61,"[1, 4, 0, 2, 3]","[1, 2, 3, 4, 5]",04,19,f,y,y,2019_Apr_03_1601,gloss_ordering_task,59.980946498778096,
stimuli/MODEL_filters-64_resnets-3_logmixes-12_latents-10_repeat-00_SEED09_STEP00.png,stimuli/MODEL_filters-64_resnets-3_logmixes-12_latents-10_repeat-00_SEED09_STEP01.png,stimuli/MODEL_filters-64_resnets-3_logmixes-12_latents-10_repeat-00_SEED09_STEP02.png,stimuli/MODEL_filters-64_resnets-3_logmixes-12_latents-10_repeat-00_SEED09_STEP03.png,stimuli/MODEL_filters-64_resnets-3_logmixes-12_latents-10_repeat-00_SEED09_STEP04.png,0,59,59,7,"[2, 4, 1, 0, 3]","[1, 4, 3, 2, 5]",04,19,f,y,y,2019_Apr_03_1601,gloss_ordering_task,59.980946498778096,
stimuli/MODEL_filters-64_resnets-3_logmixes-12_latents-10_repeat-02_SEED04_STEP00.png,stimuli/MODEL_filters-64_resnets-3_logmixes-12_latents-10_repeat-02_SEED04_STEP01.png,stimuli/MODEL_filters-64_resnets-3_logmixes-12_latents-10_repeat-02_SEED04_STEP02.png,stimuli/MODEL_filters-64_resnets-3_logmixes-12_latents-10_repeat-02_SEED04_STEP03.png,stimuli/MODEL_filters-64_resnets-3_logmixes-12_latents-10_repeat-02_SEED04_STEP04.png,0,60,60,19,"[1, 2, 4, 3, 0]","[3, 1, 2, 5, 4]",04,19,f,y,y,2019_Apr_03_1601,gloss_ordering_task,59.980946498778096,
stimuli/MODEL_filters-64_resnets-3_logmixes-12_latents-10_repeat-02_SEED00_STEP00.png,stimuli/MODEL_filters-64_resnets-3_logmixes-12_latents-10_repeat-02_SEED00_STEP01.png,stimuli/MODEL_filters-64_resnets-3_logmixes-12_latents-10_repeat-02_SEED00_STEP02.png,stimuli/MODEL_filters-64_resnets-3_logmixes-12_latents-10_repeat-02_SEED00_STEP03.png,stimuli/MODEL_filters-64_resnets-3_logmixes-12_latents-10_repeat-02_SEED00_STEP04.png,0,61,61,16,"[3, 2, 4, 0, 1]","[1, 2, 3, 4, 5]",04,19,f,y,y,2019_Apr_03_1601,gloss_ordering_task,59.980946498778096,
stimuli/MODEL_filters-64_resnets-3_logmixes-12_latents-10_repeat-09_SEED07_STEP00.png,stimuli/MODEL_filters-64_resnets-3_logmixes-12_latents-10_repeat-09_SEED07_STEP01.png,stimuli/MODEL_filters-64_resnets-3_logmixes-12_latents-10_repeat-09_SEED07_STEP02.png,stimuli/MODEL_filters-64_resnets-3_logmixes-12_latents-10_repeat-09_SEED07_STEP03.png,stimuli/MODEL_filters-64_resnets-3_logmixes-12_latents-10_repeat-09_SEED07_STEP04.png,0,62,62,78,"[2, 0, 3, 1, 4]","[1, 2, 3, 4, 5]",04,19,f,y,y,2019_Apr_03_1601,gloss_ordering_task,59.980946498778096,
stimuli/MODEL_filters-64_resnets-3_logmixes-12_latents-10_repeat-08_SEED09_STEP00.png,stimuli/MODEL_filters-64_resnets-3_logmixes-12_latents-10_repeat-08_SEED09_STEP01.png,stimuli/MODEL_filters-64_resnets-3_logmixes-12_latents-10_repeat-08_SEED09_STEP02.png,stimuli/MODEL_filters-64_resnets-3_logmixes-12_latents-10_repeat-08_SEED09_STEP03.png,stimuli/MODEL_filters-64_resnets-3_logmixes-12_latents-10_repeat-08_SEED09_STEP04.png,0,63,63,71,"[0, 2, 3, 4, 1]","[1, 3, 4, 2, 5]",04,19,f,y,y,2019_Apr_03_1601,gloss_ordering_task,59.980946498778096,
stimuli/MODEL_filters-64_resnets-3_logmixes-12_latents-10_repeat-06_SEED00_STEP00.png,stimuli/MODEL_filters-64_resnets-3_logmixes-12_latents-10_repeat-06_SEED00_STEP01.png,stimuli/MODEL_filters-64_resnets-3_logmixes-12_latents-10_repeat-06_SEED00_STEP02.png,stimuli/MODEL_filters-64_resnets-3_logmixes-12_latents-10_repeat-06_SEED00_STEP03.png,stimuli/MODEL_filters-64_resnets-3_logmixes-12_latents-10_repeat-06_SEED00_STEP04.png,0,64,64,48,"[2, 3, 1, 4, 0]","[1, 2, 3, 5, 4]",04,19,f,y,y,2019_Apr_03_1601,gloss_ordering_task,59.980946498778096,
stimuli/MODEL_filters-64_resnets-3_logmixes-12_latents-10_repeat-03_SEED03_STEP00.png,stimuli/MODEL_filters-64_resnets-3_logmixes-12_latents-10_repeat-03_SEED03_STEP01.png,stimuli/MODEL_filters-64_resnets-3_logmixes-12_latents-10_repeat-03_SEED03_STEP02.png,stimuli/MODEL_filters-64_resnets-3_logmixes-12_latents-10_repeat-03_SEED03_STEP03.png,stimuli/MODEL_filters-64_resnets-3_logmixes-12_latents-10_repeat-03_SEED03_STEP04.png,0,65,65,26,"[3, 0, 4, 2, 1]","[1, 2, 3, 4, 5]",04,19,f,y,y,2019_Apr_03_1601,gloss_ordering_task,59.980946498778096,
stimuli/MODEL_filters-64_resnets-3_logmixes-12_latents-10_repeat-05_SEED04_STEP00.png,stimuli/MODEL_filters-64_resnets-3_logmixes-12_latents-10_repeat-05_SEED04_STEP01.png,stimuli/MODEL_filters-64_resnets-3_logmixes-12_latents-10_repeat-05_SEED04_STEP02.png,stimuli/MODEL_filters-64_resnets-3_logmixes-12_latents-10_repeat-05_SEED04_STEP03.png,stimuli/MODEL_filters-64_resnets-3_logmixes-12_latents-10_repeat-05_SEED04_STEP04.png,0,66,66,43,"[1, 3, 4, 0, 2]","[2, 3, 1, 4, 5]",04,19,f,y,y,2019_Apr_03_1601,gloss_ordering_task,59.980946498778096,
stimuli/MODEL_filters-64_resnets-3_logmixes-12_latents-10_repeat-05_SEED07_STEP00.png,stimuli/MODEL_filters-64_resnets-3_logmixes-12_latents-10_repeat-05_SEED07_STEP01.png,stimuli/MODEL_filters-64_resnets-3_logmixes-12_latents-10_repeat-05_SEED07_STEP02.png,stimuli/MODEL_filters-64_resnets-3_logmixes-12_latents-10_repeat-05_SEED07_STEP03.png,stimuli/MODEL_filters-64_resnets-3_logmixes-12_latents-10_repeat-05_SEED07_STEP04.png,0,67,67,46,"[4, 2, 3, 0, 1]","[1, 3, 2, 4, 5]",04,19,f,y,y,2019_Apr_03_1601,gloss_ordering_task,59.980946498778096,
stimuli/MODEL_filters-64_resnets-3_logmixes-12_latents-10_repeat-03_SEED09_STEP00.png,stimuli/MODEL_filters-64_resnets-3_logmixes-12_latents-10_repeat-03_SEED09_STEP01.png,stimuli/MODEL_filters-64_resnets-3_logmixes-12_latents-10_repeat-03_SEED09_STEP02.png,stimuli/MODEL_filters-64_resnets-3_logmixes-12_latents-10_repeat-03_SEED09_STEP03.png,stimuli/MODEL_filters-64_resnets-3_logmixes-12_latents-10_repeat-03_SEED09_STEP04.png,0,68,68,31,"[0, 2, 4, 1, 3]","[2, 1, 3, 4, 5]",04,19,f,y,y,2019_Apr_03_1601,gloss_ordering_task,59.980946498778096,
stimuli/MODEL_filters-64_resnets-3_logmixes-12_latents-10_repeat-05_SEED02_STEP00.png,stimuli/MODEL_filters-64_resnets-3_logmixes-12_latents-10_repeat-05_SEED02_STEP01.png,stimuli/MODEL_filters-64_resnets-3_logmixes-12_latents-10_repeat-05_SEED02_STEP02.png,stimuli/MODEL_filters-64_resnets-3_logmixes-12_latents-10_repeat-05_SEED02_STEP03.png,stimuli/MODEL_filters-64_resnets-3_logmixes-12_latents-10_repeat-05_SEED02_STEP04.png,0,69,69,41,"[3, 1, 4, 0, 2]","[1, 5, 4, 2, 3]",04,19,f,y,y,2019_Apr_03_1601,gloss_ordering_task,59.980946498778096,
stimuli/MODEL_filters-64_resnets-3_logmixes-12_latents-10_repeat-03_SEED04_STEP00.png,stimuli/MODEL_filters-64_resnets-3_logmixes-12_latents-10_repeat-03_SEED04_STEP01.png,stimuli/MODEL_filters-64_resnets-3_logmixes-12_latents-10_repeat-03_SEED04_STEP02.png,stimuli/MODEL_filters-64_resnets-3_logmixes-12_latents-10_repeat-03_SEED04_STEP03.png,stimuli/MODEL_filters-64_resnets-3_logmixes-12_latents-10_repeat-03_SEED04_STEP04.png,0,70,70,27,"[4, 2, 0, 3, 1]","[3, 2, 1, 4, 5]",04,19,f,y,y,2019_Apr_03_1601,gloss_ordering_task,59.980946498778096,
stimuli/MODEL_filters-64_resnets-3_logmixes-12_latents-10_repeat-08_SEED06_STEP00.png,stimuli/MODEL_filters-64_resnets-3_logmixes-12_latents-10_repeat-08_SEED06_STEP01.png,stimuli/MODEL_filters-64_resnets-3_logmixes-12_latents-10_repeat-08_SEED06_STEP02.png,stimuli/MODEL_filters-64_resnets-3_logmixes-12_latents-10_repeat-08_SEED06_STEP03.png,stimuli/MODEL_filters-64_resnets-3_logmixes-12_latents-10_repeat-08_SEED06_STEP04.png,0,71,71,69,"[0, 3, 4, 2, 1]","[1, 4, 3, 2, 5]",04,19,f,y,y,2019_Apr_03_1601,gloss_ordering_task,59.980946498778096,
stimuli/MODEL_filters-64_resnets-3_logmixes-12_latents-10_repeat-08_SEED05_STEP00.png,stimuli/MODEL_filters-64_resnets-3_logmixes-12_latents-10_repeat-08_SEED05_STEP01.png,stimuli/MODEL_filters-64_resnets-3_logmixes-12_latents-10_repeat-08_SEED05_STEP02.png,stimuli/MODEL_filters-64_resnets-3_logmixes-12_latents-10_repeat-08_SEED05_STEP03.png,stimuli/MODEL_filters-64_resnets-3_logmixes-12_latents-10_repeat-08_SEED05_STEP04.png,0,72,72,68,"[1, 2, 3, 0, 4]","[3, 2, 1, 4, 5]",04,19,f,y,y,2019_Apr_03_1601,gloss_ordering_task,59.980946498778096,
stimuli/MODEL_filters-64_resnets-3_logmixes-12_latents-10_repeat-00_SEED03_STEP00.png,stimuli/MODEL_filters-64_resnets-3_logmixes-12_latents-10_repeat-00_SEED03_STEP01.png,stimuli/MODEL_filters-64_resnets-3_logmixes-12_latents-10_repeat-00_SEED03_STEP02.png,stimuli/MODEL_filters-64_resnets-3_logmixes-12_latents-10_repeat-00_SEED03_STEP03.png,stimuli/MODEL_filters-64_resnets-3_logmixes-12_latents-10_repeat-00_SEED03_STEP04.png,0,73,73,2,"[4, 1, 0, 2, 3]","[1, 2, 3, 4, 5]",04,19,f,y,y,2019_Apr_03_1601,gloss_ordering_task,59.980946498778096,
stimuli/MODEL_filters-64_resnets-3_logmixes-12_latents-10_repeat-03_SEED07_STEP00.png,stimuli/MODEL_filters-64_resnets-3_logmixes-12_latents-10_repeat-03_SEED07_STEP01.png,stimuli/MODEL_filters-64_resnets-3_logmixes-12_latents-10_repeat-03_SEED07_STEP02.png,stimuli/MODEL_filters-64_resnets-3_logmixes-12_latents-10_repeat-03_SEED07_STEP03.png,stimuli/MODEL_filters-64_resnets-3_logmixes-12_latents-10_repeat-03_SEED07_STEP04.png,0,74,74,30,"[0, 4, 2, 1, 3]","[2, 1, 3, 4, 5]",04,19,f,y,y,2019_Apr_03_1601,gloss_ordering_task,59.980946498778096,
stimuli/MODEL_filters-64_resnets-3_logmixes-12_latents-10_repeat-09_SEED02_STEP00.png,stimuli/MODEL_filters-64_resnets-3_logmixes-12_latents-10_repeat-09_SEED02_STEP01.png,stimuli/MODEL_filters-64_resnets-3_logmixes-12_latents-10_repeat-09_SEED02_STEP02.png,stimuli/MODEL_filters-64_resnets-3_logmixes-12_latents-10_repeat-09_SEED02_STEP03.png,stimuli/MODEL_filters-64_resnets-3_logmixes-12_latents-10_repeat-09_SEED02_STEP04.png,0,75,75,73,"[2, 1, 0, 3, 4]","[1, 2, 3, 4, 5]",04,19,f,y,y,2019_Apr_03_1601,gloss_ordering_task,59.980946498778096,
stimuli/MODEL_filters-64_resnets-3_logmixes-12_latents-10_repeat-08_SEED02_STEP00.png,stimuli/MODEL_filters-64_resnets-3_logmixes-12_latents-10_repeat-08_SEED02_STEP01.png,stimuli/MODEL_filters-64_resnets-3_logmixes-12_latents-10_repeat-08_SEED02_STEP02.png,stimuli/MODEL_filters-64_resnets-3_logmixes-12_latents-10_repeat-08_SEED02_STEP03.png,stimuli/MODEL_filters-64_resnets-3_logmixes-12_latents-10_repeat-08_SEED02_STEP04.png,0,76,76,65,"[1, 4, 3, 2, 0]","[1, 4, 2, 3, 5]",04,19,f,y,y,2019_Apr_03_1601,gloss_ordering_task,59.980946498778096,
stimuli/MODEL_filters-64_resnets-3_logmixes-12_latents-10_repeat-00_SEED00_STEP00.png,stimuli/MODEL_filters-64_resnets-3_logmixes-12_latents-10_repeat-00_SEED00_STEP01.png,stimuli/MODEL_filters-64_resnets-3_logmixes-12_latents-10_repeat-00_SEED00_STEP02.png,stimuli/MODEL_filters-64_resnets-3_logmixes-12_latents-10_repeat-00_SEED00_STEP03.png,stimuli/MODEL_filters-64_resnets-3_logmixes-12_latents-10_repeat-00_SEED00_STEP04.png,0,77,77,0,"[1, 2, 0, 3, 4]","[1, 2, 3, 4, 5]",04,19,f,y,y,2019_Apr_03_1601,gloss_ordering_task,59.980946498778096,
stimuli/MODEL_filters-64_resnets-3_logmixes-12_latents-10_repeat-04_SEED05_STEP00.png,stimuli/MODEL_filters-64_resnets-3_logmixes-12_latents-10_repeat-04_SEED05_STEP01.png,stimuli/MODEL_filters-64_resnets-3_logmixes-12_latents-10_repeat-04_SEED05_STEP02.png,stimuli/MODEL_filters-64_resnets-3_logmixes-12_latents-10_repeat-04_SEED05_STEP03.png,stimuli/MODEL_filters-64_resnets-3_logmixes-12_latents-10_repeat-04_SEED05_STEP04.png,0,78,78,36,"[1, 0, 4, 3, 2]","[5, 4, 3, 2, 1]",04,19,f,y,y,2019_Apr_03_1601,gloss_ordering_task,59.980946498778096,
stimuli/MODEL_filters-64_resnets-3_logmixes-12_latents-10_repeat-01_SEED09_STEP00.png,stimuli/MODEL_filters-64_resnets-3_logmixes-12_latents-10_repeat-01_SEED09_STEP01.png,stimuli/MODEL_filters-64_resnets-3_logmixes-12_latents-10_repeat-01_SEED09_STEP02.png,stimuli/MODEL_filters-64_resnets-3_logmixes-12_latents-10_repeat-01_SEED09_STEP03.png,stimuli/MODEL_filters-64_resnets-3_logmixes-12_latents-10_repeat-01_SEED09_STEP04.png,0,79,79,15,"[2, 4, 0, 1, 3]","[1, 2, 3, 4, 5]",04,19,f,y,y,2019_Apr_03_1601,gloss_ordering_task,59.980946498778096,
