stimOne,stimTwo,stimThree,stimFour,stimFive,trials_1.thisRepN,trials_1.thisTrialN,trials_1.thisN,trials_1.thisIndex,presentation_positions,placement_order,participant ID (two digits, e.g. 01),age,gender (m/f/-),normal or corrected-to-normal vision (y/n),normal colour vision (y/n),date,expName,frameRate,
stimuli\MODEL_filters-64_resnets-3_logmixes-12_latents-10_repeat-07_SEED04_STEP00.png,stimuli\MODEL_filters-64_resnets-3_logmixes-12_latents-10_repeat-07_SEED04_STEP01.png,stimuli\MODEL_filters-64_resnets-3_logmixes-12_latents-10_repeat-07_SEED04_STEP02.png,stimuli\MODEL_filters-64_resnets-3_logmixes-12_latents-10_repeat-07_SEED04_STEP03.png,stimuli\MODEL_filters-64_resnets-3_logmixes-12_latents-10_repeat-07_SEED04_STEP04.png,0,0,0,59,"[4, 1, 2, 3, 0]","[1, 2, 3, 4, 5]",06,24,f,y,y,2019_Apr_04_1258,gloss_ordering_task,59.95031316502389,
stimuli\MODEL_filters-64_resnets-3_logmixes-12_latents-10_repeat-02_SEED05_STEP00.png,stimuli\MODEL_filters-64_resnets-3_logmixes-12_latents-10_repeat-02_SEED05_STEP01.png,stimuli\MODEL_filters-64_resnets-3_logmixes-12_latents-10_repeat-02_SEED05_STEP02.png,stimuli\MODEL_filters-64_resnets-3_logmixes-12_latents-10_repeat-02_SEED05_STEP03.png,stimuli\MODEL_filters-64_resnets-3_logmixes-12_latents-10_repeat-02_SEED05_STEP04.png,0,1,1,20,"[3, 2, 4, 1, 0]","[2, 1, 3, 4, 5]",06,24,f,y,y,2019_Apr_04_1258,gloss_ordering_task,59.95031316502389,
stimuli\MODEL_filters-64_resnets-3_logmixes-12_latents-10_repeat-00_SEED07_STEP00.png,stimuli\MODEL_filters-64_resnets-3_logmixes-12_latents-10_repeat-00_SEED07_STEP01.png,stimuli\MODEL_filters-64_resnets-3_logmixes-12_latents-10_repeat-00_SEED07_STEP02.png,stimuli\MODEL_filters-64_resnets-3_logmixes-12_latents-10_repeat-00_SEED07_STEP03.png,stimuli\MODEL_filters-64_resnets-3_logmixes-12_latents-10_repeat-00_SEED07_STEP04.png,0,2,2,6,"[1, 3, 4, 0, 2]","[3, 2, 1, 4, 5]",06,24,f,y,y,2019_Apr_04_1258,gloss_ordering_task,59.95031316502389,
stimuli\MODEL_filters-64_resnets-3_logmixes-12_latents-10_repeat-03_SEED04_STEP00.png,stimuli\MODEL_filters-64_resnets-3_logmixes-12_latents-10_repeat-03_SEED04_STEP01.png,stimuli\MODEL_filters-64_resnets-3_logmixes-12_latents-10_repeat-03_SEED04_STEP02.png,stimuli\MODEL_filters-64_resnets-3_logmixes-12_latents-10_repeat-03_SEED04_STEP03.png,stimuli\MODEL_filters-64_resnets-3_logmixes-12_latents-10_repeat-03_SEED04_STEP04.png,0,3,3,27,"[4, 3, 0, 2, 1]","[1, 2, 3, 4, 5]",06,24,f,y,y,2019_Apr_04_1258,gloss_ordering_task,59.95031316502389,
stimuli\MODEL_filters-64_resnets-3_logmixes-12_latents-10_repeat-08_SEED04_STEP00.png,stimuli\MODEL_filters-64_resnets-3_logmixes-12_latents-10_repeat-08_SEED04_STEP01.png,stimuli\MODEL_filters-64_resnets-3_logmixes-12_latents-10_repeat-08_SEED04_STEP02.png,stimuli\MODEL_filters-64_resnets-3_logmixes-12_latents-10_repeat-08_SEED04_STEP03.png,stimuli\MODEL_filters-64_resnets-3_logmixes-12_latents-10_repeat-08_SEED04_STEP04.png,0,4,4,67,"[4, 0, 3, 2, 1]","[1, 2, 3, 4, 5]",06,24,f,y,y,2019_Apr_04_1258,gloss_ordering_task,59.95031316502389,
stimuli\MODEL_filters-64_resnets-3_logmixes-12_latents-10_repeat-09_SEED07_STEP00.png,stimuli\MODEL_filters-64_resnets-3_logmixes-12_latents-10_repeat-09_SEED07_STEP01.png,stimuli\MODEL_filters-64_resnets-3_logmixes-12_latents-10_repeat-09_SEED07_STEP02.png,stimuli\MODEL_filters-64_resnets-3_logmixes-12_latents-10_repeat-09_SEED07_STEP03.png,stimuli\MODEL_filters-64_resnets-3_logmixes-12_latents-10_repeat-09_SEED07_STEP04.png,0,5,5,78,"[1, 4, 0, 3, 2]","[1, 2, 3, 4, 5]",06,24,f,y,y,2019_Apr_04_1258,gloss_ordering_task,59.95031316502389,
stimuli\MODEL_filters-64_resnets-3_logmixes-12_latents-10_repeat-09_SEED00_STEP00.png,stimuli\MODEL_filters-64_resnets-3_logmixes-12_latents-10_repeat-09_SEED00_STEP01.png,stimuli\MODEL_filters-64_resnets-3_logmixes-12_latents-10_repeat-09_SEED00_STEP02.png,stimuli\MODEL_filters-64_resnets-3_logmixes-12_latents-10_repeat-09_SEED00_STEP03.png,stimuli\MODEL_filters-64_resnets-3_logmixes-12_latents-10_repeat-09_SEED00_STEP04.png,0,6,6,72,"[4, 1, 0, 2, 3]","[1, 2, 3, 4, 5]",06,24,f,y,y,2019_Apr_04_1258,gloss_ordering_task,59.95031316502389,
stimuli\MODEL_filters-64_resnets-3_logmixes-12_latents-10_repeat-07_SEED03_STEP00.png,stimuli\MODEL_filters-64_resnets-3_logmixes-12_latents-10_repeat-07_SEED03_STEP01.png,stimuli\MODEL_filters-64_resnets-3_logmixes-12_latents-10_repeat-07_SEED03_STEP02.png,stimuli\MODEL_filters-64_resnets-3_logmixes-12_latents-10_repeat-07_SEED03_STEP03.png,stimuli\MODEL_filters-64_resnets-3_logmixes-12_latents-10_repeat-07_SEED03_STEP04.png,0,7,7,58,"[3, 2, 4, 0, 1]","[2, 1, 3, 4, 5]",06,24,f,y,y,2019_Apr_04_1258,gloss_ordering_task,59.95031316502389,
stimuli\MODEL_filters-64_resnets-3_logmixes-12_latents-10_repeat-02_SEED09_STEP00.png,stimuli\MODEL_filters-64_resnets-3_logmixes-12_latents-10_repeat-02_SEED09_STEP01.png,stimuli\MODEL_filters-64_resnets-3_logmixes-12_latents-10_repeat-02_SEED09_STEP02.png,stimuli\MODEL_filters-64_resnets-3_logmixes-12_latents-10_repeat-02_SEED09_STEP03.png,stimuli\MODEL_filters-64_resnets-3_logmixes-12_latents-10_repeat-02_SEED09_STEP04.png,0,8,8,23,"[1, 3, 4, 2, 0]","[2, 1, 3, 4, 5]",06,24,f,y,y,2019_Apr_04_1258,gloss_ordering_task,59.95031316502389,
stimuli\MODEL_filters-64_resnets-3_logmixes-12_latents-10_repeat-03_SEED09_STEP00.png,stimuli\MODEL_filters-64_resnets-3_logmixes-12_latents-10_repeat-03_SEED09_STEP01.png,stimuli\MODEL_filters-64_resnets-3_logmixes-12_latents-10_repeat-03_SEED09_STEP02.png,stimuli\MODEL_filters-64_resnets-3_logmixes-12_latents-10_repeat-03_SEED09_STEP03.png,stimuli\MODEL_filters-64_resnets-3_logmixes-12_latents-10_repeat-03_SEED09_STEP04.png,0,9,9,31,"[4, 0, 1, 3, 2]","[1, 2, 3, 4, 5]",06,24,f,y,y,2019_Apr_04_1258,gloss_ordering_task,59.95031316502389,
stimuli\MODEL_filters-64_resnets-3_logmixes-12_latents-10_repeat-05_SEED05_STEP00.png,stimuli\MODEL_filters-64_resnets-3_logmixes-12_latents-10_repeat-05_SEED05_STEP01.png,stimuli\MODEL_filters-64_resnets-3_logmixes-12_latents-10_repeat-05_SEED05_STEP02.png,stimuli\MODEL_filters-64_resnets-3_logmixes-12_latents-10_repeat-05_SEED05_STEP03.png,stimuli\MODEL_filters-64_resnets-3_logmixes-12_latents-10_repeat-05_SEED05_STEP04.png,0,10,10,44,"[2, 3, 1, 0, 4]","[3, 4, 5, 2, 1]",06,24,f,y,y,2019_Apr_04_1258,gloss_ordering_task,59.95031316502389,
stimuli\MODEL_filters-64_resnets-3_logmixes-12_latents-10_repeat-07_SEED06_STEP00.png,stimuli\MODEL_filters-64_resnets-3_logmixes-12_latents-10_repeat-07_SEED06_STEP01.png,stimuli\MODEL_filters-64_resnets-3_logmixes-12_latents-10_repeat-07_SEED06_STEP02.png,stimuli\MODEL_filters-64_resnets-3_logmixes-12_latents-10_repeat-07_SEED06_STEP03.png,stimuli\MODEL_filters-64_resnets-3_logmixes-12_latents-10_repeat-07_SEED06_STEP04.png,0,11,11,61,"[3, 4, 0, 1, 2]","[2, 3, 1, 4, 5]",06,24,f,y,y,2019_Apr_04_1258,gloss_ordering_task,59.95031316502389,
stimuli\MODEL_filters-64_resnets-3_logmixes-12_latents-10_repeat-01_SEED03_STEP00.png,stimuli\MODEL_filters-64_resnets-3_logmixes-12_latents-10_repeat-01_SEED03_STEP01.png,stimuli\MODEL_filters-64_resnets-3_logmixes-12_latents-10_repeat-01_SEED03_STEP02.png,stimuli\MODEL_filters-64_resnets-3_logmixes-12_latents-10_repeat-01_SEED03_STEP03.png,stimuli\MODEL_filters-64_resnets-3_logmixes-12_latents-10_repeat-01_SEED03_STEP04.png,0,12,12,10,"[0, 4, 2, 3, 1]","[2, 1, 3, 4, 5]",06,24,f,y,y,2019_Apr_04_1258,gloss_ordering_task,59.95031316502389,
stimuli\MODEL_filters-64_resnets-3_logmixes-12_latents-10_repeat-00_SEED06_STEP00.png,stimuli\MODEL_filters-64_resnets-3_logmixes-12_latents-10_repeat-00_SEED06_STEP01.png,stimuli\MODEL_filters-64_resnets-3_logmixes-12_latents-10_repeat-00_SEED06_STEP02.png,stimuli\MODEL_filters-64_resnets-3_logmixes-12_latents-10_repeat-00_SEED06_STEP03.png,stimuli\MODEL_filters-64_resnets-3_logmixes-12_latents-10_repeat-00_SEED06_STEP04.png,0,13,13,5,"[2, 3, 0, 1, 4]","[2, 1, 4, 3, 5]",06,24,f,y,y,2019_Apr_04_1258,gloss_ordering_task,59.95031316502389,
stimuli\MODEL_filters-64_resnets-3_logmixes-12_latents-10_repeat-02_SEED02_STEP00.png,stimuli\MODEL_filters-64_resnets-3_logmixes-12_latents-10_repeat-02_SEED02_STEP01.png,stimuli\MODEL_filters-64_resnets-3_logmixes-12_latents-10_repeat-02_SEED02_STEP02.png,stimuli\MODEL_filters-64_resnets-3_logmixes-12_latents-10_repeat-02_SEED02_STEP03.png,stimuli\MODEL_filters-64_resnets-3_logmixes-12_latents-10_repeat-02_SEED02_STEP04.png,0,14,14,17,"[1, 3, 0, 2, 4]","[1, 2, 3, 5, 4]",06,24,f,y,y,2019_Apr_04_1258,gloss_ordering_task,59.95031316502389,
stimuli\MODEL_filters-64_resnets-3_logmixes-12_latents-10_repeat-03_SEED05_STEP00.png,stimuli\MODEL_filters-64_resnets-3_logmixes-12_latents-10_repeat-03_SEED05_STEP01.png,stimuli\MODEL_filters-64_resnets-3_logmixes-12_latents-10_repeat-03_SEED05_STEP02.png,stimuli\MODEL_filters-64_resnets-3_logmixes-12_latents-10_repeat-03_SEED05_STEP03.png,stimuli\MODEL_filters-64_resnets-3_logmixes-12_latents-10_repeat-03_SEED05_STEP04.png,0,15,15,28,"[0, 4, 1, 3, 2]","[1, 2, 3, 4, 5]",06,24,f,y,y,2019_Apr_04_1258,gloss_ordering_task,59.95031316502389,
stimuli\MODEL_filters-64_resnets-3_logmixes-12_latents-10_repeat-07_SEED09_STEP00.png,stimuli\MODEL_filters-64_resnets-3_logmixes-12_latents-10_repeat-07_SEED09_STEP01.png,stimuli\MODEL_filters-64_resnets-3_logmixes-12_latents-10_repeat-07_SEED09_STEP02.png,stimuli\MODEL_filters-64_resnets-3_logmixes-12_latents-10_repeat-07_SEED09_STEP03.png,stimuli\MODEL_filters-64_resnets-3_logmixes-12_latents-10_repeat-07_SEED09_STEP04.png,0,16,16,63,"[2, 0, 3, 4, 1]","[1, 2, 3, 4, 5]",06,24,f,y,y,2019_Apr_04_1258,gloss_ordering_task,59.95031316502389,
stimuli\MODEL_filters-64_resnets-3_logmixes-12_latents-10_repeat-05_SEED04_STEP00.png,stimuli\MODEL_filters-64_resnets-3_logmixes-12_latents-10_repeat-05_SEED04_STEP01.png,stimuli\MODEL_filters-64_resnets-3_logmixes-12_latents-10_repeat-05_SEED04_STEP02.png,stimuli\MODEL_filters-64_resnets-3_logmixes-12_latents-10_repeat-05_SEED04_STEP03.png,stimuli\MODEL_filters-64_resnets-3_logmixes-12_latents-10_repeat-05_SEED04_STEP04.png,0,17,17,43,"[3, 0, 2, 1, 4]","[5, 4, 1, 3, 2]",06,24,f,y,y,2019_Apr_04_1258,gloss_ordering_task,59.95031316502389,
stimuli\MODEL_filters-64_resnets-3_logmixes-12_latents-10_repeat-09_SEED02_STEP00.png,stimuli\MODEL_filters-64_resnets-3_logmixes-12_latents-10_repeat-09_SEED02_STEP01.png,stimuli\MODEL_filters-64_resnets-3_logmixes-12_latents-10_repeat-09_SEED02_STEP02.png,stimuli\MODEL_filters-64_resnets-3_logmixes-12_latents-10_repeat-09_SEED02_STEP03.png,stimuli\MODEL_filters-64_resnets-3_logmixes-12_latents-10_repeat-09_SEED02_STEP04.png,0,18,18,73,"[3, 0, 4, 2, 1]","[1, 2, 3, 4, 5]",06,24,f,y,y,2019_Apr_04_1258,gloss_ordering_task,59.95031316502389,
stimuli\MODEL_filters-64_resnets-3_logmixes-12_latents-10_repeat-09_SEED04_STEP00.png,stimuli\MODEL_filters-64_resnets-3_logmixes-12_latents-10_repeat-09_SEED04_STEP01.png,stimuli\MODEL_filters-64_resnets-3_logmixes-12_latents-10_repeat-09_SEED04_STEP02.png,stimuli\MODEL_filters-64_resnets-3_logmixes-12_latents-10_repeat-09_SEED04_STEP03.png,stimuli\MODEL_filters-64_resnets-3_logmixes-12_latents-10_repeat-09_SEED04_STEP04.png,0,19,19,75,"[2, 1, 3, 0, 4]","[1, 2, 3, 4, 5]",06,24,f,y,y,2019_Apr_04_1258,gloss_ordering_task,59.95031316502389,
stimuli\MODEL_filters-64_resnets-3_logmixes-12_latents-10_repeat-04_SEED06_STEP00.png,stimuli\MODEL_filters-64_resnets-3_logmixes-12_latents-10_repeat-04_SEED06_STEP01.png,stimuli\MODEL_filters-64_resnets-3_logmixes-12_latents-10_repeat-04_SEED06_STEP02.png,stimuli\MODEL_filters-64_resnets-3_logmixes-12_latents-10_repeat-04_SEED06_STEP03.png,stimuli\MODEL_filters-64_resnets-3_logmixes-12_latents-10_repeat-04_SEED06_STEP04.png,0,20,20,37,"[2, 3, 0, 4, 1]","[5, 4, 3, 2, 1]",06,24,f,y,y,2019_Apr_04_1258,gloss_ordering_task,59.95031316502389,
stimuli\MODEL_filters-64_resnets-3_logmixes-12_latents-10_repeat-05_SEED07_STEP00.png,stimuli\MODEL_filters-64_resnets-3_logmixes-12_latents-10_repeat-05_SEED07_STEP01.png,stimuli\MODEL_filters-64_resnets-3_logmixes-12_latents-10_repeat-05_SEED07_STEP02.png,stimuli\MODEL_filters-64_resnets-3_logmixes-12_latents-10_repeat-05_SEED07_STEP03.png,stimuli\MODEL_filters-64_resnets-3_logmixes-12_latents-10_repeat-05_SEED07_STEP04.png,0,21,21,46,"[2, 4, 1, 3, 0]","[2, 1, 3, 5, 4]",06,24,f,y,y,2019_Apr_04_1258,gloss_ordering_task,59.95031316502389,
stimuli\MODEL_filters-64_resnets-3_logmixes-12_latents-10_repeat-04_SEED03_STEP00.png,stimuli\MODEL_filters-64_resnets-3_logmixes-12_latents-10_repeat-04_SEED03_STEP01.png,stimuli\MODEL_filters-64_resnets-3_logmixes-12_latents-10_repeat-04_SEED03_STEP02.png,stimuli\MODEL_filters-64_resnets-3_logmixes-12_latents-10_repeat-04_SEED03_STEP03.png,stimuli\MODEL_filters-64_resnets-3_logmixes-12_latents-10_repeat-04_SEED03_STEP04.png,0,22,22,34,"[3, 1, 4, 2, 0]","[1, 2, 3, 4, 5]",06,24,f,y,y,2019_Apr_04_1258,gloss_ordering_task,59.95031316502389,
stimuli\MODEL_filters-64_resnets-3_logmixes-12_latents-10_repeat-08_SEED06_STEP00.png,stimuli\MODEL_filters-64_resnets-3_logmixes-12_latents-10_repeat-08_SEED06_STEP01.png,stimuli\MODEL_filters-64_resnets-3_logmixes-12_latents-10_repeat-08_SEED06_STEP02.png,stimuli\MODEL_filters-64_resnets-3_logmixes-12_latents-10_repeat-08_SEED06_STEP03.png,stimuli\MODEL_filters-64_resnets-3_logmixes-12_latents-10_repeat-08_SEED06_STEP04.png,0,23,23,69,"[0, 4, 2, 1, 3]","[1, 3, 4, 2, 5]",06,24,f,y,y,2019_Apr_04_1258,gloss_ordering_task,59.95031316502389,
stimuli\MODEL_filters-64_resnets-3_logmixes-12_latents-10_repeat-04_SEED04_STEP00.png,stimuli\MODEL_filters-64_resnets-3_logmixes-12_latents-10_repeat-04_SEED04_STEP01.png,stimuli\MODEL_filters-64_resnets-3_logmixes-12_latents-10_repeat-04_SEED04_STEP02.png,stimuli\MODEL_filters-64_resnets-3_logmixes-12_latents-10_repeat-04_SEED04_STEP03.png,stimuli\MODEL_filters-64_resnets-3_logmixes-12_latents-10_repeat-04_SEED04_STEP04.png,0,24,24,35,"[1, 2, 3, 4, 0]","[3, 1, 2, 4, 5]",06,24,f,y,y,2019_Apr_04_1258,gloss_ordering_task,59.95031316502389,
stimuli\MODEL_filters-64_resnets-3_logmixes-12_latents-10_repeat-06_SEED03_STEP00.png,stimuli\MODEL_filters-64_resnets-3_logmixes-12_latents-10_repeat-06_SEED03_STEP01.png,stimuli\MODEL_filters-64_resnets-3_logmixes-12_latents-10_repeat-06_SEED03_STEP02.png,stimuli\MODEL_filters-64_resnets-3_logmixes-12_latents-10_repeat-06_SEED03_STEP03.png,stimuli\MODEL_filters-64_resnets-3_logmixes-12_latents-10_repeat-06_SEED03_STEP04.png,0,25,25,50,"[0, 2, 4, 1, 3]","[1, 2, 3, 4, 5]",06,24,f,y,y,2019_Apr_04_1258,gloss_ordering_task,59.95031316502389,
stimuli\MODEL_filters-64_resnets-3_logmixes-12_latents-10_repeat-03_SEED02_STEP00.png,stimuli\MODEL_filters-64_resnets-3_logmixes-12_latents-10_repeat-03_SEED02_STEP01.png,stimuli\MODEL_filters-64_resnets-3_logmixes-12_latents-10_repeat-03_SEED02_STEP02.png,stimuli\MODEL_filters-64_resnets-3_logmixes-12_latents-10_repeat-03_SEED02_STEP03.png,stimuli\MODEL_filters-64_resnets-3_logmixes-12_latents-10_repeat-03_SEED02_STEP04.png,0,26,26,25,"[3, 2, 0, 1, 4]","[2, 3, 1, 4, 5]",06,24,f,y,y,2019_Apr_04_1258,gloss_ordering_task,59.95031316502389,
stimuli\MODEL_filters-64_resnets-3_logmixes-12_latents-10_repeat-05_SEED09_STEP00.png,stimuli\MODEL_filters-64_resnets-3_logmixes-12_latents-10_repeat-05_SEED09_STEP01.png,stimuli\MODEL_filters-64_resnets-3_logmixes-12_latents-10_repeat-05_SEED09_STEP02.png,stimuli\MODEL_filters-64_resnets-3_logmixes-12_latents-10_repeat-05_SEED09_STEP03.png,stimuli\MODEL_filters-64_resnets-3_logmixes-12_latents-10_repeat-05_SEED09_STEP04.png,0,27,27,47,"[1, 4, 2, 0, 3]","[4, 2, 3, 1, 5]",06,24,f,y,y,2019_Apr_04_1258,gloss_ordering_task,59.95031316502389,
stimuli\MODEL_filters-64_resnets-3_logmixes-12_latents-10_repeat-02_SEED07_STEP00.png,stimuli\MODEL_filters-64_resnets-3_logmixes-12_latents-10_repeat-02_SEED07_STEP01.png,stimuli\MODEL_filters-64_resnets-3_logmixes-12_latents-10_repeat-02_SEED07_STEP02.png,stimuli\MODEL_filters-64_resnets-3_logmixes-12_latents-10_repeat-02_SEED07_STEP03.png,stimuli\MODEL_filters-64_resnets-3_logmixes-12_latents-10_repeat-02_SEED07_STEP04.png,0,28,28,22,"[0, 3, 4, 2, 1]","[2, 1, 3, 4, 5]",06,24,f,y,y,2019_Apr_04_1258,gloss_ordering_task,59.95031316502389,
stimuli\MODEL_filters-64_resnets-3_logmixes-12_latents-10_repeat-00_SEED02_STEP00.png,stimuli\MODEL_filters-64_resnets-3_logmixes-12_latents-10_repeat-00_SEED02_STEP01.png,stimuli\MODEL_filters-64_resnets-3_logmixes-12_latents-10_repeat-00_SEED02_STEP02.png,stimuli\MODEL_filters-64_resnets-3_logmixes-12_latents-10_repeat-00_SEED02_STEP03.png,stimuli\MODEL_filters-64_resnets-3_logmixes-12_latents-10_repeat-00_SEED02_STEP04.png,0,29,29,1,"[4, 0, 2, 1, 3]","[1, 4, 5, 3, 2]",06,24,f,y,y,2019_Apr_04_1258,gloss_ordering_task,59.95031316502389,
stimuli\MODEL_filters-64_resnets-3_logmixes-12_latents-10_repeat-00_SEED05_STEP00.png,stimuli\MODEL_filters-64_resnets-3_logmixes-12_latents-10_repeat-00_SEED05_STEP01.png,stimuli\MODEL_filters-64_resnets-3_logmixes-12_latents-10_repeat-00_SEED05_STEP02.png,stimuli\MODEL_filters-64_resnets-3_logmixes-12_latents-10_repeat-00_SEED05_STEP03.png,stimuli\MODEL_filters-64_resnets-3_logmixes-12_latents-10_repeat-00_SEED05_STEP04.png,0,30,30,4,"[2, 0, 4, 1, 3]","[1, 2, 3, 4, 5]",06,24,f,y,y,2019_Apr_04_1258,gloss_ordering_task,59.95031316502389,
stimuli\MODEL_filters-64_resnets-3_logmixes-12_latents-10_repeat-08_SEED09_STEP00.png,stimuli\MODEL_filters-64_resnets-3_logmixes-12_latents-10_repeat-08_SEED09_STEP01.png,stimuli\MODEL_filters-64_resnets-3_logmixes-12_latents-10_repeat-08_SEED09_STEP02.png,stimuli\MODEL_filters-64_resnets-3_logmixes-12_latents-10_repeat-08_SEED09_STEP03.png,stimuli\MODEL_filters-64_resnets-3_logmixes-12_latents-10_repeat-08_SEED09_STEP04.png,0,31,31,71,"[2, 0, 3, 4, 1]","[1, 3, 2, 4, 5]",06,24,f,y,y,2019_Apr_04_1258,gloss_ordering_task,59.95031316502389,
stimuli\MODEL_filters-64_resnets-3_logmixes-12_latents-10_repeat-06_SEED07_STEP00.png,stimuli\MODEL_filters-64_resnets-3_logmixes-12_latents-10_repeat-06_SEED07_STEP01.png,stimuli\MODEL_filters-64_resnets-3_logmixes-12_latents-10_repeat-06_SEED07_STEP02.png,stimuli\MODEL_filters-64_resnets-3_logmixes-12_latents-10_repeat-06_SEED07_STEP03.png,stimuli\MODEL_filters-64_resnets-3_logmixes-12_latents-10_repeat-06_SEED07_STEP04.png,0,32,32,54,"[1, 4, 3, 2, 0]","[2, 1, 3, 4, 5]",06,24,f,y,y,2019_Apr_04_1258,gloss_ordering_task,59.95031316502389,
stimuli\MODEL_filters-64_resnets-3_logmixes-12_latents-10_repeat-01_SEED04_STEP00.png,stimuli\MODEL_filters-64_resnets-3_logmixes-12_latents-10_repeat-01_SEED04_STEP01.png,stimuli\MODEL_filters-64_resnets-3_logmixes-12_latents-10_repeat-01_SEED04_STEP02.png,stimuli\MODEL_filters-64_resnets-3_logmixes-12_latents-10_repeat-01_SEED04_STEP03.png,stimuli\MODEL_filters-64_resnets-3_logmixes-12_latents-10_repeat-01_SEED04_STEP04.png,0,33,33,11,"[1, 4, 2, 0, 3]","[3, 4, 2, 1, 5]",06,24,f,y,y,2019_Apr_04_1258,gloss_ordering_task,59.95031316502389,
stimuli\MODEL_filters-64_resnets-3_logmixes-12_latents-10_repeat-01_SEED05_STEP00.png,stimuli\MODEL_filters-64_resnets-3_logmixes-12_latents-10_repeat-01_SEED05_STEP01.png,stimuli\MODEL_filters-64_resnets-3_logmixes-12_latents-10_repeat-01_SEED05_STEP02.png,stimuli\MODEL_filters-64_resnets-3_logmixes-12_latents-10_repeat-01_SEED05_STEP03.png,stimuli\MODEL_filters-64_resnets-3_logmixes-12_latents-10_repeat-01_SEED05_STEP04.png,0,34,34,12,"[0, 3, 2, 1, 4]","[2, 1, 3, 4, 5]",06,24,f,y,y,2019_Apr_04_1258,gloss_ordering_task,59.95031316502389,
stimuli\MODEL_filters-64_resnets-3_logmixes-12_latents-10_repeat-06_SEED05_STEP00.png,stimuli\MODEL_filters-64_resnets-3_logmixes-12_latents-10_repeat-06_SEED05_STEP01.png,stimuli\MODEL_filters-64_resnets-3_logmixes-12_latents-10_repeat-06_SEED05_STEP02.png,stimuli\MODEL_filters-64_resnets-3_logmixes-12_latents-10_repeat-06_SEED05_STEP03.png,stimuli\MODEL_filters-64_resnets-3_logmixes-12_latents-10_repeat-06_SEED05_STEP04.png,0,35,35,52,"[3, 2, 0, 4, 1]","[1, 2, 3, 4, 5]",06,24,f,y,y,2019_Apr_04_1258,gloss_ordering_task,59.95031316502389,
stimuli\MODEL_filters-64_resnets-3_logmixes-12_latents-10_repeat-02_SEED00_STEP00.png,stimuli\MODEL_filters-64_resnets-3_logmixes-12_latents-10_repeat-02_SEED00_STEP01.png,stimuli\MODEL_filters-64_resnets-3_logmixes-12_latents-10_repeat-02_SEED00_STEP02.png,stimuli\MODEL_filters-64_resnets-3_logmixes-12_latents-10_repeat-02_SEED00_STEP03.png,stimuli\MODEL_filters-64_resnets-3_logmixes-12_latents-10_repeat-02_SEED00_STEP04.png,0,36,36,16,"[0, 1, 4, 3, 2]","[1, 2, 3, 4, 5]",06,24,f,y,y,2019_Apr_04_1258,gloss_ordering_task,59.95031316502389,
stimuli\MODEL_filters-64_resnets-3_logmixes-12_latents-10_repeat-04_SEED07_STEP00.png,stimuli\MODEL_filters-64_resnets-3_logmixes-12_latents-10_repeat-04_SEED07_STEP01.png,stimuli\MODEL_filters-64_resnets-3_logmixes-12_latents-10_repeat-04_SEED07_STEP02.png,stimuli\MODEL_filters-64_resnets-3_logmixes-12_latents-10_repeat-04_SEED07_STEP03.png,stimuli\MODEL_filters-64_resnets-3_logmixes-12_latents-10_repeat-04_SEED07_STEP04.png,0,37,37,38,"[3, 1, 4, 2, 0]","[5, 3, 1, 2, 4]",06,24,f,y,y,2019_Apr_04_1258,gloss_ordering_task,59.95031316502389,
stimuli\MODEL_filters-64_resnets-3_logmixes-12_latents-10_repeat-05_SEED06_STEP00.png,stimuli\MODEL_filters-64_resnets-3_logmixes-12_latents-10_repeat-05_SEED06_STEP01.png,stimuli\MODEL_filters-64_resnets-3_logmixes-12_latents-10_repeat-05_SEED06_STEP02.png,stimuli\MODEL_filters-64_resnets-3_logmixes-12_latents-10_repeat-05_SEED06_STEP03.png,stimuli\MODEL_filters-64_resnets-3_logmixes-12_latents-10_repeat-05_SEED06_STEP04.png,0,38,38,45,"[2, 0, 4, 3, 1]","[2, 1, 4, 3, 5]",06,24,f,y,y,2019_Apr_04_1258,gloss_ordering_task,59.95031316502389,
stimuli\MODEL_filters-64_resnets-3_logmixes-12_latents-10_repeat-03_SEED00_STEP00.png,stimuli\MODEL_filters-64_resnets-3_logmixes-12_latents-10_repeat-03_SEED00_STEP01.png,stimuli\MODEL_filters-64_resnets-3_logmixes-12_latents-10_repeat-03_SEED00_STEP02.png,stimuli\MODEL_filters-64_resnets-3_logmixes-12_latents-10_repeat-03_SEED00_STEP03.png,stimuli\MODEL_filters-64_resnets-3_logmixes-12_latents-10_repeat-03_SEED00_STEP04.png,0,39,39,24,"[4, 1, 2, 0, 3]","[1, 2, 3, 4, 5]",06,24,f,y,y,2019_Apr_04_1258,gloss_ordering_task,59.95031316502389,
stimuli\MODEL_filters-64_resnets-3_logmixes-12_latents-10_repeat-03_SEED03_STEP00.png,stimuli\MODEL_filters-64_resnets-3_logmixes-12_latents-10_repeat-03_SEED03_STEP01.png,stimuli\MODEL_filters-64_resnets-3_logmixes-12_latents-10_repeat-03_SEED03_STEP02.png,stimuli\MODEL_filters-64_resnets-3_logmixes-12_latents-10_repeat-03_SEED03_STEP03.png,stimuli\MODEL_filters-64_resnets-3_logmixes-12_latents-10_repeat-03_SEED03_STEP04.png,0,40,40,26,"[2, 0, 3, 4, 1]","[1, 2, 3, 4, 5]",06,24,f,y,y,2019_Apr_04_1258,gloss_ordering_task,59.95031316502389,
stimuli\MODEL_filters-64_resnets-3_logmixes-12_latents-10_repeat-09_SEED05_STEP00.png,stimuli\MODEL_filters-64_resnets-3_logmixes-12_latents-10_repeat-09_SEED05_STEP01.png,stimuli\MODEL_filters-64_resnets-3_logmixes-12_latents-10_repeat-09_SEED05_STEP02.png,stimuli\MODEL_filters-64_resnets-3_logmixes-12_latents-10_repeat-09_SEED05_STEP03.png,stimuli\MODEL_filters-64_resnets-3_logmixes-12_latents-10_repeat-09_SEED05_STEP04.png,0,41,41,76,"[2, 1, 3, 0, 4]","[1, 2, 3, 4, 5]",06,24,f,y,y,2019_Apr_04_1258,gloss_ordering_task,59.95031316502389,
stimuli\MODEL_filters-64_resnets-3_logmixes-12_latents-10_repeat-01_SEED02_STEP00.png,stimuli\MODEL_filters-64_resnets-3_logmixes-12_latents-10_repeat-01_SEED02_STEP01.png,stimuli\MODEL_filters-64_resnets-3_logmixes-12_latents-10_repeat-01_SEED02_STEP02.png,stimuli\MODEL_filters-64_resnets-3_logmixes-12_latents-10_repeat-01_SEED02_STEP03.png,stimuli\MODEL_filters-64_resnets-3_logmixes-12_latents-10_repeat-01_SEED02_STEP04.png,0,42,42,9,"[4, 3, 1, 2, 0]","[2, 1, 3, 4, 5]",06,24,f,y,y,2019_Apr_04_1258,gloss_ordering_task,59.95031316502389,
stimuli\MODEL_filters-64_resnets-3_logmixes-12_latents-10_repeat-09_SEED09_STEP00.png,stimuli\MODEL_filters-64_resnets-3_logmixes-12_latents-10_repeat-09_SEED09_STEP01.png,stimuli\MODEL_filters-64_resnets-3_logmixes-12_latents-10_repeat-09_SEED09_STEP02.png,stimuli\MODEL_filters-64_resnets-3_logmixes-12_latents-10_repeat-09_SEED09_STEP03.png,stimuli\MODEL_filters-64_resnets-3_logmixes-12_latents-10_repeat-09_SEED09_STEP04.png,0,43,43,79,"[3, 2, 1, 0, 4]","[1, 3, 2, 4, 5]",06,24,f,y,y,2019_Apr_04_1258,gloss_ordering_task,59.95031316502389,
stimuli\MODEL_filters-64_resnets-3_logmixes-12_latents-10_repeat-09_SEED06_STEP00.png,stimuli\MODEL_filters-64_resnets-3_logmixes-12_latents-10_repeat-09_SEED06_STEP01.png,stimuli\MODEL_filters-64_resnets-3_logmixes-12_latents-10_repeat-09_SEED06_STEP02.png,stimuli\MODEL_filters-64_resnets-3_logmixes-12_latents-10_repeat-09_SEED06_STEP03.png,stimuli\MODEL_filters-64_resnets-3_logmixes-12_latents-10_repeat-09_SEED06_STEP04.png,0,44,44,77,"[0, 3, 1, 4, 2]","[2, 1, 3, 4, 5]",06,24,f,y,y,2019_Apr_04_1258,gloss_ordering_task,59.95031316502389,
stimuli\MODEL_filters-64_resnets-3_logmixes-12_latents-10_repeat-04_SEED05_STEP00.png,stimuli\MODEL_filters-64_resnets-3_logmixes-12_latents-10_repeat-04_SEED05_STEP01.png,stimuli\MODEL_filters-64_resnets-3_logmixes-12_latents-10_repeat-04_SEED05_STEP02.png,stimuli\MODEL_filters-64_resnets-3_logmixes-12_latents-10_repeat-04_SEED05_STEP03.png,stimuli\MODEL_filters-64_resnets-3_logmixes-12_latents-10_repeat-04_SEED05_STEP04.png,0,45,45,36,"[2, 0, 1, 3, 4]","[5, 3, 4, 1, 2]",06,24,f,y,y,2019_Apr_04_1258,gloss_ordering_task,59.95031316502389,
stimuli\MODEL_filters-64_resnets-3_logmixes-12_latents-10_repeat-06_SEED02_STEP00.png,stimuli\MODEL_filters-64_resnets-3_logmixes-12_latents-10_repeat-06_SEED02_STEP01.png,stimuli\MODEL_filters-64_resnets-3_logmixes-12_latents-10_repeat-06_SEED02_STEP02.png,stimuli\MODEL_filters-64_resnets-3_logmixes-12_latents-10_repeat-06_SEED02_STEP03.png,stimuli\MODEL_filters-64_resnets-3_logmixes-12_latents-10_repeat-06_SEED02_STEP04.png,0,46,46,49,"[0, 4, 2, 3, 1]","[1, 2, 3, 4, 5]",06,24,f,y,y,2019_Apr_04_1258,gloss_ordering_task,59.95031316502389,
stimuli\MODEL_filters-64_resnets-3_logmixes-12_latents-10_repeat-03_SEED06_STEP00.png,stimuli\MODEL_filters-64_resnets-3_logmixes-12_latents-10_repeat-03_SEED06_STEP01.png,stimuli\MODEL_filters-64_resnets-3_logmixes-12_latents-10_repeat-03_SEED06_STEP02.png,stimuli\MODEL_filters-64_resnets-3_logmixes-12_latents-10_repeat-03_SEED06_STEP03.png,stimuli\MODEL_filters-64_resnets-3_logmixes-12_latents-10_repeat-03_SEED06_STEP04.png,0,47,47,29,"[1, 2, 0, 4, 3]","[1, 2, 3, 4, 5]",06,24,f,y,y,2019_Apr_04_1258,gloss_ordering_task,59.95031316502389,
stimuli\MODEL_filters-64_resnets-3_logmixes-12_latents-10_repeat-07_SEED02_STEP00.png,stimuli\MODEL_filters-64_resnets-3_logmixes-12_latents-10_repeat-07_SEED02_STEP01.png,stimuli\MODEL_filters-64_resnets-3_logmixes-12_latents-10_repeat-07_SEED02_STEP02.png,stimuli\MODEL_filters-64_resnets-3_logmixes-12_latents-10_repeat-07_SEED02_STEP03.png,stimuli\MODEL_filters-64_resnets-3_logmixes-12_latents-10_repeat-07_SEED02_STEP04.png,0,48,48,57,"[0, 4, 3, 2, 1]","[1, 2, 3, 4, 5]",06,24,f,y,y,2019_Apr_04_1258,gloss_ordering_task,59.95031316502389,
stimuli\MODEL_filters-64_resnets-3_logmixes-12_latents-10_repeat-03_SEED07_STEP00.png,stimuli\MODEL_filters-64_resnets-3_logmixes-12_latents-10_repeat-03_SEED07_STEP01.png,stimuli\MODEL_filters-64_resnets-3_logmixes-12_latents-10_repeat-03_SEED07_STEP02.png,stimuli\MODEL_filters-64_resnets-3_logmixes-12_latents-10_repeat-03_SEED07_STEP03.png,stimuli\MODEL_filters-64_resnets-3_logmixes-12_latents-10_repeat-03_SEED07_STEP04.png,0,49,49,30,"[2, 3, 0, 4, 1]","[1, 2, 3, 4, 5]",06,24,f,y,y,2019_Apr_04_1258,gloss_ordering_task,59.95031316502389,
stimuli\MODEL_filters-64_resnets-3_logmixes-12_latents-10_repeat-05_SEED02_STEP00.png,stimuli\MODEL_filters-64_resnets-3_logmixes-12_latents-10_repeat-05_SEED02_STEP01.png,stimuli\MODEL_filters-64_resnets-3_logmixes-12_latents-10_repeat-05_SEED02_STEP02.png,stimuli\MODEL_filters-64_resnets-3_logmixes-12_latents-10_repeat-05_SEED02_STEP03.png,stimuli\MODEL_filters-64_resnets-3_logmixes-12_latents-10_repeat-05_SEED02_STEP04.png,0,50,50,41,"[3, 2, 4, 1, 0]","[1, 3, 2, 4, 5]",06,24,f,y,y,2019_Apr_04_1258,gloss_ordering_task,59.95031316502389,
stimuli\MODEL_filters-64_resnets-3_logmixes-12_latents-10_repeat-04_SEED09_STEP00.png,stimuli\MODEL_filters-64_resnets-3_logmixes-12_latents-10_repeat-04_SEED09_STEP01.png,stimuli\MODEL_filters-64_resnets-3_logmixes-12_latents-10_repeat-04_SEED09_STEP02.png,stimuli\MODEL_filters-64_resnets-3_logmixes-12_latents-10_repeat-04_SEED09_STEP03.png,stimuli\MODEL_filters-64_resnets-3_logmixes-12_latents-10_repeat-04_SEED09_STEP04.png,0,51,51,39,"[2, 1, 0, 3, 4]","[5, 4, 3, 2, 1]",06,24,f,y,y,2019_Apr_04_1258,gloss_ordering_task,59.95031316502389,
stimuli\MODEL_filters-64_resnets-3_logmixes-12_latents-10_repeat-01_SEED09_STEP00.png,stimuli\MODEL_filters-64_resnets-3_logmixes-12_latents-10_repeat-01_SEED09_STEP01.png,stimuli\MODEL_filters-64_resnets-3_logmixes-12_latents-10_repeat-01_SEED09_STEP02.png,stimuli\MODEL_filters-64_resnets-3_logmixes-12_latents-10_repeat-01_SEED09_STEP03.png,stimuli\MODEL_filters-64_resnets-3_logmixes-12_latents-10_repeat-01_SEED09_STEP04.png,0,52,52,15,"[3, 0, 2, 4, 1]","[2, 1, 3, 4, 5]",06,24,f,y,y,2019_Apr_04_1258,gloss_ordering_task,59.95031316502389,
stimuli\MODEL_filters-64_resnets-3_logmixes-12_latents-10_repeat-06_SEED09_STEP00.png,stimuli\MODEL_filters-64_resnets-3_logmixes-12_latents-10_repeat-06_SEED09_STEP01.png,stimuli\MODEL_filters-64_resnets-3_logmixes-12_latents-10_repeat-06_SEED09_STEP02.png,stimuli\MODEL_filters-64_resnets-3_logmixes-12_latents-10_repeat-06_SEED09_STEP03.png,stimuli\MODEL_filters-64_resnets-3_logmixes-12_latents-10_repeat-06_SEED09_STEP04.png,0,53,53,55,"[1, 3, 0, 4, 2]","[2, 3, 1, 4, 5]",06,24,f,y,y,2019_Apr_04_1258,gloss_ordering_task,59.95031316502389,
stimuli\MODEL_filters-64_resnets-3_logmixes-12_latents-10_repeat-07_SEED00_STEP00.png,stimuli\MODEL_filters-64_resnets-3_logmixes-12_latents-10_repeat-07_SEED00_STEP01.png,stimuli\MODEL_filters-64_resnets-3_logmixes-12_latents-10_repeat-07_SEED00_STEP02.png,stimuli\MODEL_filters-64_resnets-3_logmixes-12_latents-10_repeat-07_SEED00_STEP03.png,stimuli\MODEL_filters-64_resnets-3_logmixes-12_latents-10_repeat-07_SEED00_STEP04.png,0,54,54,56,"[3, 2, 1, 0, 4]","[1, 2, 3, 4, 5]",06,24,f,y,y,2019_Apr_04_1258,gloss_ordering_task,59.95031316502389,
stimuli\MODEL_filters-64_resnets-3_logmixes-12_latents-10_repeat-04_SEED00_STEP00.png,stimuli\MODEL_filters-64_resnets-3_logmixes-12_latents-10_repeat-04_SEED00_STEP01.png,stimuli\MODEL_filters-64_resnets-3_logmixes-12_latents-10_repeat-04_SEED00_STEP02.png,stimuli\MODEL_filters-64_resnets-3_logmixes-12_latents-10_repeat-04_SEED00_STEP03.png,stimuli\MODEL_filters-64_resnets-3_logmixes-12_latents-10_repeat-04_SEED00_STEP04.png,0,55,55,32,"[4, 3, 0, 1, 2]","[5, 1, 2, 3, 4]",06,24,f,y,y,2019_Apr_04_1258,gloss_ordering_task,59.95031316502389,
stimuli\MODEL_filters-64_resnets-3_logmixes-12_latents-10_repeat-08_SEED07_STEP00.png,stimuli\MODEL_filters-64_resnets-3_logmixes-12_latents-10_repeat-08_SEED07_STEP01.png,stimuli\MODEL_filters-64_resnets-3_logmixes-12_latents-10_repeat-08_SEED07_STEP02.png,stimuli\MODEL_filters-64_resnets-3_logmixes-12_latents-10_repeat-08_SEED07_STEP03.png,stimuli\MODEL_filters-64_resnets-3_logmixes-12_latents-10_repeat-08_SEED07_STEP04.png,0,56,56,70,"[4, 1, 2, 0, 3]","[2, 3, 1, 4, 5]",06,24,f,y,y,2019_Apr_04_1258,gloss_ordering_task,59.95031316502389,
stimuli\MODEL_filters-64_resnets-3_logmixes-12_latents-10_repeat-09_SEED03_STEP00.png,stimuli\MODEL_filters-64_resnets-3_logmixes-12_latents-10_repeat-09_SEED03_STEP01.png,stimuli\MODEL_filters-64_resnets-3_logmixes-12_latents-10_repeat-09_SEED03_STEP02.png,stimuli\MODEL_filters-64_resnets-3_logmixes-12_latents-10_repeat-09_SEED03_STEP03.png,stimuli\MODEL_filters-64_resnets-3_logmixes-12_latents-10_repeat-09_SEED03_STEP04.png,0,57,57,74,"[3, 1, 2, 4, 0]","[1, 2, 3, 4, 5]",06,24,f,y,y,2019_Apr_04_1258,gloss_ordering_task,59.95031316502389,
stimuli\MODEL_filters-64_resnets-3_logmixes-12_latents-10_repeat-06_SEED06_STEP00.png,stimuli\MODEL_filters-64_resnets-3_logmixes-12_latents-10_repeat-06_SEED06_STEP01.png,stimuli\MODEL_filters-64_resnets-3_logmixes-12_latents-10_repeat-06_SEED06_STEP02.png,stimuli\MODEL_filters-64_resnets-3_logmixes-12_latents-10_repeat-06_SEED06_STEP03.png,stimuli\MODEL_filters-64_resnets-3_logmixes-12_latents-10_repeat-06_SEED06_STEP04.png,0,58,58,53,"[2, 4, 1, 3, 0]","[1, 2, 3, 4, 5]",06,24,f,y,y,2019_Apr_04_1258,gloss_ordering_task,59.95031316502389,
stimuli\MODEL_filters-64_resnets-3_logmixes-12_latents-10_repeat-05_SEED03_STEP00.png,stimuli\MODEL_filters-64_resnets-3_logmixes-12_latents-10_repeat-05_SEED03_STEP01.png,stimuli\MODEL_filters-64_resnets-3_logmixes-12_latents-10_repeat-05_SEED03_STEP02.png,stimuli\MODEL_filters-64_resnets-3_logmixes-12_latents-10_repeat-05_SEED03_STEP03.png,stimuli\MODEL_filters-64_resnets-3_logmixes-12_latents-10_repeat-05_SEED03_STEP04.png,0,59,59,42,"[1, 2, 3, 0, 4]","[3, 4, 2, 1, 5]",06,24,f,y,y,2019_Apr_04_1258,gloss_ordering_task,59.95031316502389,
stimuli\MODEL_filters-64_resnets-3_logmixes-12_latents-10_repeat-00_SEED00_STEP00.png,stimuli\MODEL_filters-64_resnets-3_logmixes-12_latents-10_repeat-00_SEED00_STEP01.png,stimuli\MODEL_filters-64_resnets-3_logmixes-12_latents-10_repeat-00_SEED00_STEP02.png,stimuli\MODEL_filters-64_resnets-3_logmixes-12_latents-10_repeat-00_SEED00_STEP03.png,stimuli\MODEL_filters-64_resnets-3_logmixes-12_latents-10_repeat-00_SEED00_STEP04.png,0,60,60,0,"[1, 2, 4, 0, 3]","[1, 2, 3, 4, 5]",06,24,f,y,y,2019_Apr_04_1258,gloss_ordering_task,59.95031316502389,
stimuli\MODEL_filters-64_resnets-3_logmixes-12_latents-10_repeat-08_SEED02_STEP00.png,stimuli\MODEL_filters-64_resnets-3_logmixes-12_latents-10_repeat-08_SEED02_STEP01.png,stimuli\MODEL_filters-64_resnets-3_logmixes-12_latents-10_repeat-08_SEED02_STEP02.png,stimuli\MODEL_filters-64_resnets-3_logmixes-12_latents-10_repeat-08_SEED02_STEP03.png,stimuli\MODEL_filters-64_resnets-3_logmixes-12_latents-10_repeat-08_SEED02_STEP04.png,0,61,61,65,"[1, 0, 2, 3, 4]","[1, 4, 2, 3, 5]",06,24,f,y,y,2019_Apr_04_1258,gloss_ordering_task,59.95031316502389,
stimuli\MODEL_filters-64_resnets-3_logmixes-12_latents-10_repeat-08_SEED03_STEP00.png,stimuli\MODEL_filters-64_resnets-3_logmixes-12_latents-10_repeat-08_SEED03_STEP01.png,stimuli\MODEL_filters-64_resnets-3_logmixes-12_latents-10_repeat-08_SEED03_STEP02.png,stimuli\MODEL_filters-64_resnets-3_logmixes-12_latents-10_repeat-08_SEED03_STEP03.png,stimuli\MODEL_filters-64_resnets-3_logmixes-12_latents-10_repeat-08_SEED03_STEP04.png,0,62,62,66,"[3, 1, 2, 4, 0]","[1, 2, 3, 4, 5]",06,24,f,y,y,2019_Apr_04_1258,gloss_ordering_task,59.95031316502389,
stimuli\MODEL_filters-64_resnets-3_logmixes-12_latents-10_repeat-06_SEED00_STEP00.png,stimuli\MODEL_filters-64_resnets-3_logmixes-12_latents-10_repeat-06_SEED00_STEP01.png,stimuli\MODEL_filters-64_resnets-3_logmixes-12_latents-10_repeat-06_SEED00_STEP02.png,stimuli\MODEL_filters-64_resnets-3_logmixes-12_latents-10_repeat-06_SEED00_STEP03.png,stimuli\MODEL_filters-64_resnets-3_logmixes-12_latents-10_repeat-06_SEED00_STEP04.png,0,63,63,48,"[3, 2, 4, 0, 1]","[1, 2, 3, 4, 5]",06,24,f,y,y,2019_Apr_04_1258,gloss_ordering_task,59.95031316502389,
stimuli\MODEL_filters-64_resnets-3_logmixes-12_latents-10_repeat-07_SEED05_STEP00.png,stimuli\MODEL_filters-64_resnets-3_logmixes-12_latents-10_repeat-07_SEED05_STEP01.png,stimuli\MODEL_filters-64_resnets-3_logmixes-12_latents-10_repeat-07_SEED05_STEP02.png,stimuli\MODEL_filters-64_resnets-3_logmixes-12_latents-10_repeat-07_SEED05_STEP03.png,stimuli\MODEL_filters-64_resnets-3_logmixes-12_latents-10_repeat-07_SEED05_STEP04.png,0,64,64,60,"[1, 4, 3, 2, 0]","[1, 2, 3, 4, 5]",06,24,f,y,y,2019_Apr_04_1258,gloss_ordering_task,59.95031316502389,
stimuli\MODEL_filters-64_resnets-3_logmixes-12_latents-10_repeat-05_SEED00_STEP00.png,stimuli\MODEL_filters-64_resnets-3_logmixes-12_latents-10_repeat-05_SEED00_STEP01.png,stimuli\MODEL_filters-64_resnets-3_logmixes-12_latents-10_repeat-05_SEED00_STEP02.png,stimuli\MODEL_filters-64_resnets-3_logmixes-12_latents-10_repeat-05_SEED00_STEP03.png,stimuli\MODEL_filters-64_resnets-3_logmixes-12_latents-10_repeat-05_SEED00_STEP04.png,0,65,65,40,"[3, 0, 1, 4, 2]","[2, 1, 3, 4, 5]",06,24,f,y,y,2019_Apr_04_1258,gloss_ordering_task,59.95031316502389,
stimuli\MODEL_filters-64_resnets-3_logmixes-12_latents-10_repeat-02_SEED04_STEP00.png,stimuli\MODEL_filters-64_resnets-3_logmixes-12_latents-10_repeat-02_SEED04_STEP01.png,stimuli\MODEL_filters-64_resnets-3_logmixes-12_latents-10_repeat-02_SEED04_STEP02.png,stimuli\MODEL_filters-64_resnets-3_logmixes-12_latents-10_repeat-02_SEED04_STEP03.png,stimuli\MODEL_filters-64_resnets-3_logmixes-12_latents-10_repeat-02_SEED04_STEP04.png,0,66,66,19,"[2, 4, 0, 1, 3]","[2, 1, 3, 4, 5]",06,24,f,y,y,2019_Apr_04_1258,gloss_ordering_task,59.95031316502389,
stimuli\MODEL_filters-64_resnets-3_logmixes-12_latents-10_repeat-01_SEED06_STEP00.png,stimuli\MODEL_filters-64_resnets-3_logmixes-12_latents-10_repeat-01_SEED06_STEP01.png,stimuli\MODEL_filters-64_resnets-3_logmixes-12_latents-10_repeat-01_SEED06_STEP02.png,stimuli\MODEL_filters-64_resnets-3_logmixes-12_latents-10_repeat-01_SEED06_STEP03.png,stimuli\MODEL_filters-64_resnets-3_logmixes-12_latents-10_repeat-01_SEED06_STEP04.png,0,67,67,13,"[4, 2, 0, 1, 3]","[1, 2, 3, 4, 5]",06,24,f,y,y,2019_Apr_04_1258,gloss_ordering_task,59.95031316502389,
stimuli\MODEL_filters-64_resnets-3_logmixes-12_latents-10_repeat-01_SEED00_STEP00.png,stimuli\MODEL_filters-64_resnets-3_logmixes-12_latents-10_repeat-01_SEED00_STEP01.png,stimuli\MODEL_filters-64_resnets-3_logmixes-12_latents-10_repeat-01_SEED00_STEP02.png,stimuli\MODEL_filters-64_resnets-3_logmixes-12_latents-10_repeat-01_SEED00_STEP03.png,stimuli\MODEL_filters-64_resnets-3_logmixes-12_latents-10_repeat-01_SEED00_STEP04.png,0,68,68,8,"[2, 3, 4, 0, 1]","[1, 2, 3, 4, 5]",06,24,f,y,y,2019_Apr_04_1258,gloss_ordering_task,59.95031316502389,
stimuli\MODEL_filters-64_resnets-3_logmixes-12_latents-10_repeat-01_SEED07_STEP00.png,stimuli\MODEL_filters-64_resnets-3_logmixes-12_latents-10_repeat-01_SEED07_STEP01.png,stimuli\MODEL_filters-64_resnets-3_logmixes-12_latents-10_repeat-01_SEED07_STEP02.png,stimuli\MODEL_filters-64_resnets-3_logmixes-12_latents-10_repeat-01_SEED07_STEP03.png,stimuli\MODEL_filters-64_resnets-3_logmixes-12_latents-10_repeat-01_SEED07_STEP04.png,0,69,69,14,"[1, 0, 4, 3, 2]","[1, 2, 3, 4, 5]",06,24,f,y,y,2019_Apr_04_1258,gloss_ordering_task,59.95031316502389,
stimuli\MODEL_filters-64_resnets-3_logmixes-12_latents-10_repeat-04_SEED02_STEP00.png,stimuli\MODEL_filters-64_resnets-3_logmixes-12_latents-10_repeat-04_SEED02_STEP01.png,stimuli\MODEL_filters-64_resnets-3_logmixes-12_latents-10_repeat-04_SEED02_STEP02.png,stimuli\MODEL_filters-64_resnets-3_logmixes-12_latents-10_repeat-04_SEED02_STEP03.png,stimuli\MODEL_filters-64_resnets-3_logmixes-12_latents-10_repeat-04_SEED02_STEP04.png,0,70,70,33,"[3, 0, 4, 1, 2]","[5, 4, 3, 2, 1]",06,24,f,y,y,2019_Apr_04_1258,gloss_ordering_task,59.95031316502389,
stimuli\MODEL_filters-64_resnets-3_logmixes-12_latents-10_repeat-07_SEED07_STEP00.png,stimuli\MODEL_filters-64_resnets-3_logmixes-12_latents-10_repeat-07_SEED07_STEP01.png,stimuli\MODEL_filters-64_resnets-3_logmixes-12_latents-10_repeat-07_SEED07_STEP02.png,stimuli\MODEL_filters-64_resnets-3_logmixes-12_latents-10_repeat-07_SEED07_STEP03.png,stimuli\MODEL_filters-64_resnets-3_logmixes-12_latents-10_repeat-07_SEED07_STEP04.png,0,71,71,62,"[2, 1, 3, 4, 0]","[1, 2, 3, 5, 4]",06,24,f,y,y,2019_Apr_04_1258,gloss_ordering_task,59.95031316502389,
stimuli\MODEL_filters-64_resnets-3_logmixes-12_latents-10_repeat-00_SEED04_STEP00.png,stimuli\MODEL_filters-64_resnets-3_logmixes-12_latents-10_repeat-00_SEED04_STEP01.png,stimuli\MODEL_filters-64_resnets-3_logmixes-12_latents-10_repeat-00_SEED04_STEP02.png,stimuli\MODEL_filters-64_resnets-3_logmixes-12_latents-10_repeat-00_SEED04_STEP03.png,stimuli\MODEL_filters-64_resnets-3_logmixes-12_latents-10_repeat-00_SEED04_STEP04.png,0,72,72,3,"[4, 1, 3, 0, 2]","[4, 3, 2, 5, 1]",06,24,f,y,y,2019_Apr_04_1258,gloss_ordering_task,59.95031316502389,
stimuli\MODEL_filters-64_resnets-3_logmixes-12_latents-10_repeat-02_SEED03_STEP00.png,stimuli\MODEL_filters-64_resnets-3_logmixes-12_latents-10_repeat-02_SEED03_STEP01.png,stimuli\MODEL_filters-64_resnets-3_logmixes-12_latents-10_repeat-02_SEED03_STEP02.png,stimuli\MODEL_filters-64_resnets-3_logmixes-12_latents-10_repeat-02_SEED03_STEP03.png,stimuli\MODEL_filters-64_resnets-3_logmixes-12_latents-10_repeat-02_SEED03_STEP04.png,0,73,73,18,"[1, 3, 0, 4, 2]","[1, 2, 3, 4, 5]",06,24,f,y,y,2019_Apr_04_1258,gloss_ordering_task,59.95031316502389,
stimuli\MODEL_filters-64_resnets-3_logmixes-12_latents-10_repeat-00_SEED09_STEP00.png,stimuli\MODEL_filters-64_resnets-3_logmixes-12_latents-10_repeat-00_SEED09_STEP01.png,stimuli\MODEL_filters-64_resnets-3_logmixes-12_latents-10_repeat-00_SEED09_STEP02.png,stimuli\MODEL_filters-64_resnets-3_logmixes-12_latents-10_repeat-00_SEED09_STEP03.png,stimuli\MODEL_filters-64_resnets-3_logmixes-12_latents-10_repeat-00_SEED09_STEP04.png,0,74,74,7,"[4, 0, 2, 1, 3]","[1, 2, 3, 4, 5]",06,24,f,y,y,2019_Apr_04_1258,gloss_ordering_task,59.95031316502389,
stimuli\MODEL_filters-64_resnets-3_logmixes-12_latents-10_repeat-08_SEED00_STEP00.png,stimuli\MODEL_filters-64_resnets-3_logmixes-12_latents-10_repeat-08_SEED00_STEP01.png,stimuli\MODEL_filters-64_resnets-3_logmixes-12_latents-10_repeat-08_SEED00_STEP02.png,stimuli\MODEL_filters-64_resnets-3_logmixes-12_latents-10_repeat-08_SEED00_STEP03.png,stimuli\MODEL_filters-64_resnets-3_logmixes-12_latents-10_repeat-08_SEED00_STEP04.png,0,75,75,64,"[1, 2, 4, 3, 0]","[1, 2, 3, 5, 4]",06,24,f,y,y,2019_Apr_04_1258,gloss_ordering_task,59.95031316502389,
stimuli\MODEL_filters-64_resnets-3_logmixes-12_latents-10_repeat-06_SEED04_STEP00.png,stimuli\MODEL_filters-64_resnets-3_logmixes-12_latents-10_repeat-06_SEED04_STEP01.png,stimuli\MODEL_filters-64_resnets-3_logmixes-12_latents-10_repeat-06_SEED04_STEP02.png,stimuli\MODEL_filters-64_resnets-3_logmixes-12_latents-10_repeat-06_SEED04_STEP03.png,stimuli\MODEL_filters-64_resnets-3_logmixes-12_latents-10_repeat-06_SEED04_STEP04.png,0,76,76,51,"[4, 1, 0, 2, 3]","[1, 3, 2, 5, 4]",06,24,f,y,y,2019_Apr_04_1258,gloss_ordering_task,59.95031316502389,
stimuli\MODEL_filters-64_resnets-3_logmixes-12_latents-10_repeat-02_SEED06_STEP00.png,stimuli\MODEL_filters-64_resnets-3_logmixes-12_latents-10_repeat-02_SEED06_STEP01.png,stimuli\MODEL_filters-64_resnets-3_logmixes-12_latents-10_repeat-02_SEED06_STEP02.png,stimuli\MODEL_filters-64_resnets-3_logmixes-12_latents-10_repeat-02_SEED06_STEP03.png,stimuli\MODEL_filters-64_resnets-3_logmixes-12_latents-10_repeat-02_SEED06_STEP04.png,0,77,77,21,"[4, 0, 1, 2, 3]","[2, 1, 3, 4, 5]",06,24,f,y,y,2019_Apr_04_1258,gloss_ordering_task,59.95031316502389,
stimuli\MODEL_filters-64_resnets-3_logmixes-12_latents-10_repeat-00_SEED03_STEP00.png,stimuli\MODEL_filters-64_resnets-3_logmixes-12_latents-10_repeat-00_SEED03_STEP01.png,stimuli\MODEL_filters-64_resnets-3_logmixes-12_latents-10_repeat-00_SEED03_STEP02.png,stimuli\MODEL_filters-64_resnets-3_logmixes-12_latents-10_repeat-00_SEED03_STEP03.png,stimuli\MODEL_filters-64_resnets-3_logmixes-12_latents-10_repeat-00_SEED03_STEP04.png,0,78,78,2,"[3, 1, 0, 2, 4]","[2, 1, 3, 4, 5]",06,24,f,y,y,2019_Apr_04_1258,gloss_ordering_task,59.95031316502389,
stimuli\MODEL_filters-64_resnets-3_logmixes-12_latents-10_repeat-08_SEED05_STEP00.png,stimuli\MODEL_filters-64_resnets-3_logmixes-12_latents-10_repeat-08_SEED05_STEP01.png,stimuli\MODEL_filters-64_resnets-3_logmixes-12_latents-10_repeat-08_SEED05_STEP02.png,stimuli\MODEL_filters-64_resnets-3_logmixes-12_latents-10_repeat-08_SEED05_STEP03.png,stimuli\MODEL_filters-64_resnets-3_logmixes-12_latents-10_repeat-08_SEED05_STEP04.png,0,79,79,68,"[2, 3, 0, 1, 4]","[3, 2, 4, 1, 5]",06,24,f,y,y,2019_Apr_04_1258,gloss_ordering_task,59.95031316502389,
