stimOne,stimTwo,stimThree,stimFour,stimFive,trials_1.thisRepN,trials_1.thisTrialN,trials_1.thisN,trials_1.thisIndex,presentation_positions,placement_order,participant ID (two digits, e.g. 01),age,gender (m/f/-),normal or corrected-to-normal vision (y/n),normal colour vision (y/n),date,expName,frameRate,
stimuli\MODEL_filters-64_resnets-3_logmixes-12_latents-10_repeat-06_SEED06_STEP00.png,stimuli\MODEL_filters-64_resnets-3_logmixes-12_latents-10_repeat-06_SEED06_STEP01.png,stimuli\MODEL_filters-64_resnets-3_logmixes-12_latents-10_repeat-06_SEED06_STEP02.png,stimuli\MODEL_filters-64_resnets-3_logmixes-12_latents-10_repeat-06_SEED06_STEP03.png,stimuli\MODEL_filters-64_resnets-3_logmixes-12_latents-10_repeat-06_SEED06_STEP04.png,0,0,0,53,"[0, 3, 1, 2, 4]","[1, 3, 2, 4, 5]",13,26,f,n,n,2019_Apr_08_1430,gloss_ordering_task,59.92588371657463,
stimuli\MODEL_filters-64_resnets-3_logmixes-12_latents-10_repeat-08_SEED07_STEP00.png,stimuli\MODEL_filters-64_resnets-3_logmixes-12_latents-10_repeat-08_SEED07_STEP01.png,stimuli\MODEL_filters-64_resnets-3_logmixes-12_latents-10_repeat-08_SEED07_STEP02.png,stimuli\MODEL_filters-64_resnets-3_logmixes-12_latents-10_repeat-08_SEED07_STEP03.png,stimuli\MODEL_filters-64_resnets-3_logmixes-12_latents-10_repeat-08_SEED07_STEP04.png,0,1,1,70,"[2, 0, 4, 3, 1]","[1, 2, 3, 4, 5]",13,26,f,n,n,2019_Apr_08_1430,gloss_ordering_task,59.92588371657463,
stimuli\MODEL_filters-64_resnets-3_logmixes-12_latents-10_repeat-05_SEED03_STEP00.png,stimuli\MODEL_filters-64_resnets-3_logmixes-12_latents-10_repeat-05_SEED03_STEP01.png,stimuli\MODEL_filters-64_resnets-3_logmixes-12_latents-10_repeat-05_SEED03_STEP02.png,stimuli\MODEL_filters-64_resnets-3_logmixes-12_latents-10_repeat-05_SEED03_STEP03.png,stimuli\MODEL_filters-64_resnets-3_logmixes-12_latents-10_repeat-05_SEED03_STEP04.png,0,2,2,42,"[3, 1, 4, 0, 2]","[1, 2, 3, 4, 5]",13,26,f,n,n,2019_Apr_08_1430,gloss_ordering_task,59.92588371657463,
stimuli\MODEL_filters-64_resnets-3_logmixes-12_latents-10_repeat-06_SEED07_STEP00.png,stimuli\MODEL_filters-64_resnets-3_logmixes-12_latents-10_repeat-06_SEED07_STEP01.png,stimuli\MODEL_filters-64_resnets-3_logmixes-12_latents-10_repeat-06_SEED07_STEP02.png,stimuli\MODEL_filters-64_resnets-3_logmixes-12_latents-10_repeat-06_SEED07_STEP03.png,stimuli\MODEL_filters-64_resnets-3_logmixes-12_latents-10_repeat-06_SEED07_STEP04.png,0,3,3,54,"[4, 2, 3, 0, 1]","[2, 3, 1, 5, 4]",13,26,f,n,n,2019_Apr_08_1430,gloss_ordering_task,59.92588371657463,
stimuli\MODEL_filters-64_resnets-3_logmixes-12_latents-10_repeat-00_SEED00_STEP00.png,stimuli\MODEL_filters-64_resnets-3_logmixes-12_latents-10_repeat-00_SEED00_STEP01.png,stimuli\MODEL_filters-64_resnets-3_logmixes-12_latents-10_repeat-00_SEED00_STEP02.png,stimuli\MODEL_filters-64_resnets-3_logmixes-12_latents-10_repeat-00_SEED00_STEP03.png,stimuli\MODEL_filters-64_resnets-3_logmixes-12_latents-10_repeat-00_SEED00_STEP04.png,0,4,4,0,"[0, 3, 4, 1, 2]","[1, 2, 3, 4, 5]",13,26,f,n,n,2019_Apr_08_1430,gloss_ordering_task,59.92588371657463,
stimuli\MODEL_filters-64_resnets-3_logmixes-12_latents-10_repeat-00_SEED02_STEP00.png,stimuli\MODEL_filters-64_resnets-3_logmixes-12_latents-10_repeat-00_SEED02_STEP01.png,stimuli\MODEL_filters-64_resnets-3_logmixes-12_latents-10_repeat-00_SEED02_STEP02.png,stimuli\MODEL_filters-64_resnets-3_logmixes-12_latents-10_repeat-00_SEED02_STEP03.png,stimuli\MODEL_filters-64_resnets-3_logmixes-12_latents-10_repeat-00_SEED02_STEP04.png,0,5,5,1,"[1, 3, 2, 0, 4]","[2, 1, 4, 3, 5]",13,26,f,n,n,2019_Apr_08_1430,gloss_ordering_task,59.92588371657463,
stimuli\MODEL_filters-64_resnets-3_logmixes-12_latents-10_repeat-01_SEED04_STEP00.png,stimuli\MODEL_filters-64_resnets-3_logmixes-12_latents-10_repeat-01_SEED04_STEP01.png,stimuli\MODEL_filters-64_resnets-3_logmixes-12_latents-10_repeat-01_SEED04_STEP02.png,stimuli\MODEL_filters-64_resnets-3_logmixes-12_latents-10_repeat-01_SEED04_STEP03.png,stimuli\MODEL_filters-64_resnets-3_logmixes-12_latents-10_repeat-01_SEED04_STEP04.png,0,6,6,11,"[0, 3, 2, 1, 4]","[1, 2, 3, 4, 5]",13,26,f,n,n,2019_Apr_08_1430,gloss_ordering_task,59.92588371657463,
stimuli\MODEL_filters-64_resnets-3_logmixes-12_latents-10_repeat-06_SEED02_STEP00.png,stimuli\MODEL_filters-64_resnets-3_logmixes-12_latents-10_repeat-06_SEED02_STEP01.png,stimuli\MODEL_filters-64_resnets-3_logmixes-12_latents-10_repeat-06_SEED02_STEP02.png,stimuli\MODEL_filters-64_resnets-3_logmixes-12_latents-10_repeat-06_SEED02_STEP03.png,stimuli\MODEL_filters-64_resnets-3_logmixes-12_latents-10_repeat-06_SEED02_STEP04.png,0,7,7,49,"[0, 2, 3, 1, 4]","[2, 1, 5, 3, 4]",13,26,f,n,n,2019_Apr_08_1430,gloss_ordering_task,59.92588371657463,
stimuli\MODEL_filters-64_resnets-3_logmixes-12_latents-10_repeat-08_SEED05_STEP00.png,stimuli\MODEL_filters-64_resnets-3_logmixes-12_latents-10_repeat-08_SEED05_STEP01.png,stimuli\MODEL_filters-64_resnets-3_logmixes-12_latents-10_repeat-08_SEED05_STEP02.png,stimuli\MODEL_filters-64_resnets-3_logmixes-12_latents-10_repeat-08_SEED05_STEP03.png,stimuli\MODEL_filters-64_resnets-3_logmixes-12_latents-10_repeat-08_SEED05_STEP04.png,0,8,8,68,"[1, 0, 2, 3, 4]","[1, 3, 2, 4, 5]",13,26,f,n,n,2019_Apr_08_1430,gloss_ordering_task,59.92588371657463,
stimuli\MODEL_filters-64_resnets-3_logmixes-12_latents-10_repeat-07_SEED05_STEP00.png,stimuli\MODEL_filters-64_resnets-3_logmixes-12_latents-10_repeat-07_SEED05_STEP01.png,stimuli\MODEL_filters-64_resnets-3_logmixes-12_latents-10_repeat-07_SEED05_STEP02.png,stimuli\MODEL_filters-64_resnets-3_logmixes-12_latents-10_repeat-07_SEED05_STEP03.png,stimuli\MODEL_filters-64_resnets-3_logmixes-12_latents-10_repeat-07_SEED05_STEP04.png,0,9,9,60,"[1, 3, 4, 0, 2]","[1, 3, 2, 4, 5]",13,26,f,n,n,2019_Apr_08_1430,gloss_ordering_task,59.92588371657463,
stimuli\MODEL_filters-64_resnets-3_logmixes-12_latents-10_repeat-00_SEED03_STEP00.png,stimuli\MODEL_filters-64_resnets-3_logmixes-12_latents-10_repeat-00_SEED03_STEP01.png,stimuli\MODEL_filters-64_resnets-3_logmixes-12_latents-10_repeat-00_SEED03_STEP02.png,stimuli\MODEL_filters-64_resnets-3_logmixes-12_latents-10_repeat-00_SEED03_STEP03.png,stimuli\MODEL_filters-64_resnets-3_logmixes-12_latents-10_repeat-00_SEED03_STEP04.png,0,10,10,2,"[1, 4, 3, 0, 2]","[1, 2, 3, 4, 5]",13,26,f,n,n,2019_Apr_08_1430,gloss_ordering_task,59.92588371657463,
stimuli\MODEL_filters-64_resnets-3_logmixes-12_latents-10_repeat-06_SEED03_STEP00.png,stimuli\MODEL_filters-64_resnets-3_logmixes-12_latents-10_repeat-06_SEED03_STEP01.png,stimuli\MODEL_filters-64_resnets-3_logmixes-12_latents-10_repeat-06_SEED03_STEP02.png,stimuli\MODEL_filters-64_resnets-3_logmixes-12_latents-10_repeat-06_SEED03_STEP03.png,stimuli\MODEL_filters-64_resnets-3_logmixes-12_latents-10_repeat-06_SEED03_STEP04.png,0,11,11,50,"[4, 3, 2, 0, 1]","[1, 3, 2, 4, 5]",13,26,f,n,n,2019_Apr_08_1430,gloss_ordering_task,59.92588371657463,
stimuli\MODEL_filters-64_resnets-3_logmixes-12_latents-10_repeat-03_SEED04_STEP00.png,stimuli\MODEL_filters-64_resnets-3_logmixes-12_latents-10_repeat-03_SEED04_STEP01.png,stimuli\MODEL_filters-64_resnets-3_logmixes-12_latents-10_repeat-03_SEED04_STEP02.png,stimuli\MODEL_filters-64_resnets-3_logmixes-12_latents-10_repeat-03_SEED04_STEP03.png,stimuli\MODEL_filters-64_resnets-3_logmixes-12_latents-10_repeat-03_SEED04_STEP04.png,0,12,12,27,"[4, 1, 0, 3, 2]","[1, 2, 3, 4, 5]",13,26,f,n,n,2019_Apr_08_1430,gloss_ordering_task,59.92588371657463,
stimuli\MODEL_filters-64_resnets-3_logmixes-12_latents-10_repeat-07_SEED09_STEP00.png,stimuli\MODEL_filters-64_resnets-3_logmixes-12_latents-10_repeat-07_SEED09_STEP01.png,stimuli\MODEL_filters-64_resnets-3_logmixes-12_latents-10_repeat-07_SEED09_STEP02.png,stimuli\MODEL_filters-64_resnets-3_logmixes-12_latents-10_repeat-07_SEED09_STEP03.png,stimuli\MODEL_filters-64_resnets-3_logmixes-12_latents-10_repeat-07_SEED09_STEP04.png,0,13,13,63,"[3, 0, 2, 1, 4]","[1, 2, 4, 3, 5]",13,26,f,n,n,2019_Apr_08_1430,gloss_ordering_task,59.92588371657463,
stimuli\MODEL_filters-64_resnets-3_logmixes-12_latents-10_repeat-02_SEED07_STEP00.png,stimuli\MODEL_filters-64_resnets-3_logmixes-12_latents-10_repeat-02_SEED07_STEP01.png,stimuli\MODEL_filters-64_resnets-3_logmixes-12_latents-10_repeat-02_SEED07_STEP02.png,stimuli\MODEL_filters-64_resnets-3_logmixes-12_latents-10_repeat-02_SEED07_STEP03.png,stimuli\MODEL_filters-64_resnets-3_logmixes-12_latents-10_repeat-02_SEED07_STEP04.png,0,14,14,22,"[0, 2, 3, 4, 1]","[2, 1, 3, 4, 5]",13,26,f,n,n,2019_Apr_08_1430,gloss_ordering_task,59.92588371657463,
stimuli\MODEL_filters-64_resnets-3_logmixes-12_latents-10_repeat-09_SEED04_STEP00.png,stimuli\MODEL_filters-64_resnets-3_logmixes-12_latents-10_repeat-09_SEED04_STEP01.png,stimuli\MODEL_filters-64_resnets-3_logmixes-12_latents-10_repeat-09_SEED04_STEP02.png,stimuli\MODEL_filters-64_resnets-3_logmixes-12_latents-10_repeat-09_SEED04_STEP03.png,stimuli\MODEL_filters-64_resnets-3_logmixes-12_latents-10_repeat-09_SEED04_STEP04.png,0,15,15,75,"[3, 1, 0, 4, 2]","[2, 1, 4, 3, 5]",13,26,f,n,n,2019_Apr_08_1430,gloss_ordering_task,59.92588371657463,
stimuli\MODEL_filters-64_resnets-3_logmixes-12_latents-10_repeat-02_SEED00_STEP00.png,stimuli\MODEL_filters-64_resnets-3_logmixes-12_latents-10_repeat-02_SEED00_STEP01.png,stimuli\MODEL_filters-64_resnets-3_logmixes-12_latents-10_repeat-02_SEED00_STEP02.png,stimuli\MODEL_filters-64_resnets-3_logmixes-12_latents-10_repeat-02_SEED00_STEP03.png,stimuli\MODEL_filters-64_resnets-3_logmixes-12_latents-10_repeat-02_SEED00_STEP04.png,0,16,16,16,"[1, 0, 2, 3, 4]","[1, 2, 3, 4, 5]",13,26,f,n,n,2019_Apr_08_1430,gloss_ordering_task,59.92588371657463,
stimuli\MODEL_filters-64_resnets-3_logmixes-12_latents-10_repeat-05_SEED02_STEP00.png,stimuli\MODEL_filters-64_resnets-3_logmixes-12_latents-10_repeat-05_SEED02_STEP01.png,stimuli\MODEL_filters-64_resnets-3_logmixes-12_latents-10_repeat-05_SEED02_STEP02.png,stimuli\MODEL_filters-64_resnets-3_logmixes-12_latents-10_repeat-05_SEED02_STEP03.png,stimuli\MODEL_filters-64_resnets-3_logmixes-12_latents-10_repeat-05_SEED02_STEP04.png,0,17,17,41,"[4, 0, 3, 2, 1]","[4, 1, 2, 5, 3]",13,26,f,n,n,2019_Apr_08_1430,gloss_ordering_task,59.92588371657463,
stimuli\MODEL_filters-64_resnets-3_logmixes-12_latents-10_repeat-07_SEED06_STEP00.png,stimuli\MODEL_filters-64_resnets-3_logmixes-12_latents-10_repeat-07_SEED06_STEP01.png,stimuli\MODEL_filters-64_resnets-3_logmixes-12_latents-10_repeat-07_SEED06_STEP02.png,stimuli\MODEL_filters-64_resnets-3_logmixes-12_latents-10_repeat-07_SEED06_STEP03.png,stimuli\MODEL_filters-64_resnets-3_logmixes-12_latents-10_repeat-07_SEED06_STEP04.png,0,18,18,61,"[2, 0, 3, 1, 4]","[1, 2, 3, 4, 5]",13,26,f,n,n,2019_Apr_08_1430,gloss_ordering_task,59.92588371657463,
stimuli\MODEL_filters-64_resnets-3_logmixes-12_latents-10_repeat-03_SEED00_STEP00.png,stimuli\MODEL_filters-64_resnets-3_logmixes-12_latents-10_repeat-03_SEED00_STEP01.png,stimuli\MODEL_filters-64_resnets-3_logmixes-12_latents-10_repeat-03_SEED00_STEP02.png,stimuli\MODEL_filters-64_resnets-3_logmixes-12_latents-10_repeat-03_SEED00_STEP03.png,stimuli\MODEL_filters-64_resnets-3_logmixes-12_latents-10_repeat-03_SEED00_STEP04.png,0,19,19,24,"[0, 1, 4, 2, 3]","[1, 2, 3, 4, 5]",13,26,f,n,n,2019_Apr_08_1430,gloss_ordering_task,59.92588371657463,
stimuli\MODEL_filters-64_resnets-3_logmixes-12_latents-10_repeat-03_SEED09_STEP00.png,stimuli\MODEL_filters-64_resnets-3_logmixes-12_latents-10_repeat-03_SEED09_STEP01.png,stimuli\MODEL_filters-64_resnets-3_logmixes-12_latents-10_repeat-03_SEED09_STEP02.png,stimuli\MODEL_filters-64_resnets-3_logmixes-12_latents-10_repeat-03_SEED09_STEP03.png,stimuli\MODEL_filters-64_resnets-3_logmixes-12_latents-10_repeat-03_SEED09_STEP04.png,0,20,20,31,"[3, 2, 1, 4, 0]","[2, 1, 3, 4, 5]",13,26,f,n,n,2019_Apr_08_1430,gloss_ordering_task,59.92588371657463,
stimuli\MODEL_filters-64_resnets-3_logmixes-12_latents-10_repeat-04_SEED00_STEP00.png,stimuli\MODEL_filters-64_resnets-3_logmixes-12_latents-10_repeat-04_SEED00_STEP01.png,stimuli\MODEL_filters-64_resnets-3_logmixes-12_latents-10_repeat-04_SEED00_STEP02.png,stimuli\MODEL_filters-64_resnets-3_logmixes-12_latents-10_repeat-04_SEED00_STEP03.png,stimuli\MODEL_filters-64_resnets-3_logmixes-12_latents-10_repeat-04_SEED00_STEP04.png,0,21,21,32,"[1, 4, 3, 0, 2]","[1, 2, 5, 3, 4]",13,26,f,n,n,2019_Apr_08_1430,gloss_ordering_task,59.92588371657463,
stimuli\MODEL_filters-64_resnets-3_logmixes-12_latents-10_repeat-09_SEED05_STEP00.png,stimuli\MODEL_filters-64_resnets-3_logmixes-12_latents-10_repeat-09_SEED05_STEP01.png,stimuli\MODEL_filters-64_resnets-3_logmixes-12_latents-10_repeat-09_SEED05_STEP02.png,stimuli\MODEL_filters-64_resnets-3_logmixes-12_latents-10_repeat-09_SEED05_STEP03.png,stimuli\MODEL_filters-64_resnets-3_logmixes-12_latents-10_repeat-09_SEED05_STEP04.png,0,22,22,76,"[4, 0, 2, 1, 3]","[1, 2, 3, 4, 5]",13,26,f,n,n,2019_Apr_08_1430,gloss_ordering_task,59.92588371657463,
stimuli\MODEL_filters-64_resnets-3_logmixes-12_latents-10_repeat-04_SEED04_STEP00.png,stimuli\MODEL_filters-64_resnets-3_logmixes-12_latents-10_repeat-04_SEED04_STEP01.png,stimuli\MODEL_filters-64_resnets-3_logmixes-12_latents-10_repeat-04_SEED04_STEP02.png,stimuli\MODEL_filters-64_resnets-3_logmixes-12_latents-10_repeat-04_SEED04_STEP03.png,stimuli\MODEL_filters-64_resnets-3_logmixes-12_latents-10_repeat-04_SEED04_STEP04.png,0,23,23,35,"[4, 1, 2, 3, 0]","[3, 4, 2, 1, 5]",13,26,f,n,n,2019_Apr_08_1430,gloss_ordering_task,59.92588371657463,
stimuli\MODEL_filters-64_resnets-3_logmixes-12_latents-10_repeat-05_SEED05_STEP00.png,stimuli\MODEL_filters-64_resnets-3_logmixes-12_latents-10_repeat-05_SEED05_STEP01.png,stimuli\MODEL_filters-64_resnets-3_logmixes-12_latents-10_repeat-05_SEED05_STEP02.png,stimuli\MODEL_filters-64_resnets-3_logmixes-12_latents-10_repeat-05_SEED05_STEP03.png,stimuli\MODEL_filters-64_resnets-3_logmixes-12_latents-10_repeat-05_SEED05_STEP04.png,0,24,24,44,"[3, 1, 2, 4, 0]","[4, 3, 5, 2, 1]",13,26,f,n,n,2019_Apr_08_1430,gloss_ordering_task,59.92588371657463,
stimuli\MODEL_filters-64_resnets-3_logmixes-12_latents-10_repeat-08_SEED04_STEP00.png,stimuli\MODEL_filters-64_resnets-3_logmixes-12_latents-10_repeat-08_SEED04_STEP01.png,stimuli\MODEL_filters-64_resnets-3_logmixes-12_latents-10_repeat-08_SEED04_STEP02.png,stimuli\MODEL_filters-64_resnets-3_logmixes-12_latents-10_repeat-08_SEED04_STEP03.png,stimuli\MODEL_filters-64_resnets-3_logmixes-12_latents-10_repeat-08_SEED04_STEP04.png,0,25,25,67,"[1, 3, 0, 2, 4]","[3, 4, 1, 2, 5]",13,26,f,n,n,2019_Apr_08_1430,gloss_ordering_task,59.92588371657463,
stimuli\MODEL_filters-64_resnets-3_logmixes-12_latents-10_repeat-02_SEED09_STEP00.png,stimuli\MODEL_filters-64_resnets-3_logmixes-12_latents-10_repeat-02_SEED09_STEP01.png,stimuli\MODEL_filters-64_resnets-3_logmixes-12_latents-10_repeat-02_SEED09_STEP02.png,stimuli\MODEL_filters-64_resnets-3_logmixes-12_latents-10_repeat-02_SEED09_STEP03.png,stimuli\MODEL_filters-64_resnets-3_logmixes-12_latents-10_repeat-02_SEED09_STEP04.png,0,26,26,23,"[3, 0, 4, 2, 1]","[2, 1, 3, 4, 5]",13,26,f,n,n,2019_Apr_08_1430,gloss_ordering_task,59.92588371657463,
stimuli\MODEL_filters-64_resnets-3_logmixes-12_latents-10_repeat-07_SEED00_STEP00.png,stimuli\MODEL_filters-64_resnets-3_logmixes-12_latents-10_repeat-07_SEED00_STEP01.png,stimuli\MODEL_filters-64_resnets-3_logmixes-12_latents-10_repeat-07_SEED00_STEP02.png,stimuli\MODEL_filters-64_resnets-3_logmixes-12_latents-10_repeat-07_SEED00_STEP03.png,stimuli\MODEL_filters-64_resnets-3_logmixes-12_latents-10_repeat-07_SEED00_STEP04.png,0,27,27,56,"[1, 4, 2, 3, 0]","[1, 2, 3, 4, 5]",13,26,f,n,n,2019_Apr_08_1430,gloss_ordering_task,59.92588371657463,
stimuli\MODEL_filters-64_resnets-3_logmixes-12_latents-10_repeat-02_SEED05_STEP00.png,stimuli\MODEL_filters-64_resnets-3_logmixes-12_latents-10_repeat-02_SEED05_STEP01.png,stimuli\MODEL_filters-64_resnets-3_logmixes-12_latents-10_repeat-02_SEED05_STEP02.png,stimuli\MODEL_filters-64_resnets-3_logmixes-12_latents-10_repeat-02_SEED05_STEP03.png,stimuli\MODEL_filters-64_resnets-3_logmixes-12_latents-10_repeat-02_SEED05_STEP04.png,0,28,28,20,"[4, 1, 3, 0, 2]","[1, 2, 3, 5, 4]",13,26,f,n,n,2019_Apr_08_1430,gloss_ordering_task,59.92588371657463,
stimuli\MODEL_filters-64_resnets-3_logmixes-12_latents-10_repeat-01_SEED05_STEP00.png,stimuli\MODEL_filters-64_resnets-3_logmixes-12_latents-10_repeat-01_SEED05_STEP01.png,stimuli\MODEL_filters-64_resnets-3_logmixes-12_latents-10_repeat-01_SEED05_STEP02.png,stimuli\MODEL_filters-64_resnets-3_logmixes-12_latents-10_repeat-01_SEED05_STEP03.png,stimuli\MODEL_filters-64_resnets-3_logmixes-12_latents-10_repeat-01_SEED05_STEP04.png,0,29,29,12,"[2, 0, 1, 4, 3]","[2, 1, 3, 4, 5]",13,26,f,n,n,2019_Apr_08_1430,gloss_ordering_task,59.92588371657463,
stimuli\MODEL_filters-64_resnets-3_logmixes-12_latents-10_repeat-01_SEED03_STEP00.png,stimuli\MODEL_filters-64_resnets-3_logmixes-12_latents-10_repeat-01_SEED03_STEP01.png,stimuli\MODEL_filters-64_resnets-3_logmixes-12_latents-10_repeat-01_SEED03_STEP02.png,stimuli\MODEL_filters-64_resnets-3_logmixes-12_latents-10_repeat-01_SEED03_STEP03.png,stimuli\MODEL_filters-64_resnets-3_logmixes-12_latents-10_repeat-01_SEED03_STEP04.png,0,30,30,10,"[2, 3, 1, 0, 4]","[1, 2, 3, 4, 5]",13,26,f,n,n,2019_Apr_08_1430,gloss_ordering_task,59.92588371657463,
stimuli\MODEL_filters-64_resnets-3_logmixes-12_latents-10_repeat-09_SEED09_STEP00.png,stimuli\MODEL_filters-64_resnets-3_logmixes-12_latents-10_repeat-09_SEED09_STEP01.png,stimuli\MODEL_filters-64_resnets-3_logmixes-12_latents-10_repeat-09_SEED09_STEP02.png,stimuli\MODEL_filters-64_resnets-3_logmixes-12_latents-10_repeat-09_SEED09_STEP03.png,stimuli\MODEL_filters-64_resnets-3_logmixes-12_latents-10_repeat-09_SEED09_STEP04.png,0,31,31,79,"[2, 3, 0, 1, 4]","[1, 3, 2, 4, 5]",13,26,f,n,n,2019_Apr_08_1430,gloss_ordering_task,59.92588371657463,
stimuli\MODEL_filters-64_resnets-3_logmixes-12_latents-10_repeat-06_SEED00_STEP00.png,stimuli\MODEL_filters-64_resnets-3_logmixes-12_latents-10_repeat-06_SEED00_STEP01.png,stimuli\MODEL_filters-64_resnets-3_logmixes-12_latents-10_repeat-06_SEED00_STEP02.png,stimuli\MODEL_filters-64_resnets-3_logmixes-12_latents-10_repeat-06_SEED00_STEP03.png,stimuli\MODEL_filters-64_resnets-3_logmixes-12_latents-10_repeat-06_SEED00_STEP04.png,0,32,32,48,"[2, 1, 3, 0, 4]","[2, 1, 4, 3, 5]",13,26,f,n,n,2019_Apr_08_1430,gloss_ordering_task,59.92588371657463,
stimuli\MODEL_filters-64_resnets-3_logmixes-12_latents-10_repeat-03_SEED03_STEP00.png,stimuli\MODEL_filters-64_resnets-3_logmixes-12_latents-10_repeat-03_SEED03_STEP01.png,stimuli\MODEL_filters-64_resnets-3_logmixes-12_latents-10_repeat-03_SEED03_STEP02.png,stimuli\MODEL_filters-64_resnets-3_logmixes-12_latents-10_repeat-03_SEED03_STEP03.png,stimuli\MODEL_filters-64_resnets-3_logmixes-12_latents-10_repeat-03_SEED03_STEP04.png,0,33,33,26,"[4, 2, 0, 1, 3]","[2, 1, 3, 4, 5]",13,26,f,n,n,2019_Apr_08_1430,gloss_ordering_task,59.92588371657463,
stimuli\MODEL_filters-64_resnets-3_logmixes-12_latents-10_repeat-00_SEED09_STEP00.png,stimuli\MODEL_filters-64_resnets-3_logmixes-12_latents-10_repeat-00_SEED09_STEP01.png,stimuli\MODEL_filters-64_resnets-3_logmixes-12_latents-10_repeat-00_SEED09_STEP02.png,stimuli\MODEL_filters-64_resnets-3_logmixes-12_latents-10_repeat-00_SEED09_STEP03.png,stimuli\MODEL_filters-64_resnets-3_logmixes-12_latents-10_repeat-00_SEED09_STEP04.png,0,34,34,7,"[0, 2, 1, 3, 4]","[1, 2, 3, 4, 5]",13,26,f,n,n,2019_Apr_08_1430,gloss_ordering_task,59.92588371657463,
stimuli\MODEL_filters-64_resnets-3_logmixes-12_latents-10_repeat-04_SEED05_STEP00.png,stimuli\MODEL_filters-64_resnets-3_logmixes-12_latents-10_repeat-04_SEED05_STEP01.png,stimuli\MODEL_filters-64_resnets-3_logmixes-12_latents-10_repeat-04_SEED05_STEP02.png,stimuli\MODEL_filters-64_resnets-3_logmixes-12_latents-10_repeat-04_SEED05_STEP03.png,stimuli\MODEL_filters-64_resnets-3_logmixes-12_latents-10_repeat-04_SEED05_STEP04.png,0,35,35,36,"[4, 2, 3, 1, 0]","[5, 3, 2, 4, 1]",13,26,f,n,n,2019_Apr_08_1430,gloss_ordering_task,59.92588371657463,
stimuli\MODEL_filters-64_resnets-3_logmixes-12_latents-10_repeat-02_SEED06_STEP00.png,stimuli\MODEL_filters-64_resnets-3_logmixes-12_latents-10_repeat-02_SEED06_STEP01.png,stimuli\MODEL_filters-64_resnets-3_logmixes-12_latents-10_repeat-02_SEED06_STEP02.png,stimuli\MODEL_filters-64_resnets-3_logmixes-12_latents-10_repeat-02_SEED06_STEP03.png,stimuli\MODEL_filters-64_resnets-3_logmixes-12_latents-10_repeat-02_SEED06_STEP04.png,0,36,36,21,"[2, 4, 1, 0, 3]","[2, 1, 3, 4, 5]",13,26,f,n,n,2019_Apr_08_1430,gloss_ordering_task,59.92588371657463,
stimuli\MODEL_filters-64_resnets-3_logmixes-12_latents-10_repeat-01_SEED02_STEP00.png,stimuli\MODEL_filters-64_resnets-3_logmixes-12_latents-10_repeat-01_SEED02_STEP01.png,stimuli\MODEL_filters-64_resnets-3_logmixes-12_latents-10_repeat-01_SEED02_STEP02.png,stimuli\MODEL_filters-64_resnets-3_logmixes-12_latents-10_repeat-01_SEED02_STEP03.png,stimuli\MODEL_filters-64_resnets-3_logmixes-12_latents-10_repeat-01_SEED02_STEP04.png,0,37,37,9,"[0, 4, 1, 2, 3]","[3, 1, 2, 5, 4]",13,26,f,n,n,2019_Apr_08_1430,gloss_ordering_task,59.92588371657463,
stimuli\MODEL_filters-64_resnets-3_logmixes-12_latents-10_repeat-00_SEED07_STEP00.png,stimuli\MODEL_filters-64_resnets-3_logmixes-12_latents-10_repeat-00_SEED07_STEP01.png,stimuli\MODEL_filters-64_resnets-3_logmixes-12_latents-10_repeat-00_SEED07_STEP02.png,stimuli\MODEL_filters-64_resnets-3_logmixes-12_latents-10_repeat-00_SEED07_STEP03.png,stimuli\MODEL_filters-64_resnets-3_logmixes-12_latents-10_repeat-00_SEED07_STEP04.png,0,38,38,6,"[0, 3, 2, 1, 4]","[2, 4, 1, 3, 5]",13,26,f,n,n,2019_Apr_08_1430,gloss_ordering_task,59.92588371657463,
stimuli\MODEL_filters-64_resnets-3_logmixes-12_latents-10_repeat-06_SEED05_STEP00.png,stimuli\MODEL_filters-64_resnets-3_logmixes-12_latents-10_repeat-06_SEED05_STEP01.png,stimuli\MODEL_filters-64_resnets-3_logmixes-12_latents-10_repeat-06_SEED05_STEP02.png,stimuli\MODEL_filters-64_resnets-3_logmixes-12_latents-10_repeat-06_SEED05_STEP03.png,stimuli\MODEL_filters-64_resnets-3_logmixes-12_latents-10_repeat-06_SEED05_STEP04.png,0,39,39,52,"[0, 3, 4, 2, 1]","[3, 1, 2, 4, 5]",13,26,f,n,n,2019_Apr_08_1430,gloss_ordering_task,59.92588371657463,
stimuli\MODEL_filters-64_resnets-3_logmixes-12_latents-10_repeat-07_SEED04_STEP00.png,stimuli\MODEL_filters-64_resnets-3_logmixes-12_latents-10_repeat-07_SEED04_STEP01.png,stimuli\MODEL_filters-64_resnets-3_logmixes-12_latents-10_repeat-07_SEED04_STEP02.png,stimuli\MODEL_filters-64_resnets-3_logmixes-12_latents-10_repeat-07_SEED04_STEP03.png,stimuli\MODEL_filters-64_resnets-3_logmixes-12_latents-10_repeat-07_SEED04_STEP04.png,0,40,40,59,"[2, 3, 1, 4, 0]","[4, 2, 1, 3, 5]",13,26,f,n,n,2019_Apr_08_1430,gloss_ordering_task,59.92588371657463,
stimuli\MODEL_filters-64_resnets-3_logmixes-12_latents-10_repeat-03_SEED06_STEP00.png,stimuli\MODEL_filters-64_resnets-3_logmixes-12_latents-10_repeat-03_SEED06_STEP01.png,stimuli\MODEL_filters-64_resnets-3_logmixes-12_latents-10_repeat-03_SEED06_STEP02.png,stimuli\MODEL_filters-64_resnets-3_logmixes-12_latents-10_repeat-03_SEED06_STEP03.png,stimuli\MODEL_filters-64_resnets-3_logmixes-12_latents-10_repeat-03_SEED06_STEP04.png,0,41,41,29,"[3, 4, 1, 2, 0]","[1, 2, 3, 4, 5]",13,26,f,n,n,2019_Apr_08_1430,gloss_ordering_task,59.92588371657463,
stimuli\MODEL_filters-64_resnets-3_logmixes-12_latents-10_repeat-04_SEED09_STEP00.png,stimuli\MODEL_filters-64_resnets-3_logmixes-12_latents-10_repeat-04_SEED09_STEP01.png,stimuli\MODEL_filters-64_resnets-3_logmixes-12_latents-10_repeat-04_SEED09_STEP02.png,stimuli\MODEL_filters-64_resnets-3_logmixes-12_latents-10_repeat-04_SEED09_STEP03.png,stimuli\MODEL_filters-64_resnets-3_logmixes-12_latents-10_repeat-04_SEED09_STEP04.png,0,42,42,39,"[0, 1, 4, 3, 2]","[5, 2, 1, 4, 3]",13,26,f,n,n,2019_Apr_08_1430,gloss_ordering_task,59.92588371657463,
stimuli\MODEL_filters-64_resnets-3_logmixes-12_latents-10_repeat-09_SEED06_STEP00.png,stimuli\MODEL_filters-64_resnets-3_logmixes-12_latents-10_repeat-09_SEED06_STEP01.png,stimuli\MODEL_filters-64_resnets-3_logmixes-12_latents-10_repeat-09_SEED06_STEP02.png,stimuli\MODEL_filters-64_resnets-3_logmixes-12_latents-10_repeat-09_SEED06_STEP03.png,stimuli\MODEL_filters-64_resnets-3_logmixes-12_latents-10_repeat-09_SEED06_STEP04.png,0,43,43,77,"[1, 4, 3, 2, 0]","[1, 3, 2, 4, 5]",13,26,f,n,n,2019_Apr_08_1430,gloss_ordering_task,59.92588371657463,
stimuli\MODEL_filters-64_resnets-3_logmixes-12_latents-10_repeat-08_SEED06_STEP00.png,stimuli\MODEL_filters-64_resnets-3_logmixes-12_latents-10_repeat-08_SEED06_STEP01.png,stimuli\MODEL_filters-64_resnets-3_logmixes-12_latents-10_repeat-08_SEED06_STEP02.png,stimuli\MODEL_filters-64_resnets-3_logmixes-12_latents-10_repeat-08_SEED06_STEP03.png,stimuli\MODEL_filters-64_resnets-3_logmixes-12_latents-10_repeat-08_SEED06_STEP04.png,0,44,44,69,"[3, 2, 4, 1, 0]","[3, 1, 2, 4, 5]",13,26,f,n,n,2019_Apr_08_1430,gloss_ordering_task,59.92588371657463,
stimuli\MODEL_filters-64_resnets-3_logmixes-12_latents-10_repeat-00_SEED05_STEP00.png,stimuli\MODEL_filters-64_resnets-3_logmixes-12_latents-10_repeat-00_SEED05_STEP01.png,stimuli\MODEL_filters-64_resnets-3_logmixes-12_latents-10_repeat-00_SEED05_STEP02.png,stimuli\MODEL_filters-64_resnets-3_logmixes-12_latents-10_repeat-00_SEED05_STEP03.png,stimuli\MODEL_filters-64_resnets-3_logmixes-12_latents-10_repeat-00_SEED05_STEP04.png,0,45,45,4,"[0, 4, 1, 3, 2]","[1, 2, 3, 4, 5]",13,26,f,n,n,2019_Apr_08_1430,gloss_ordering_task,59.92588371657463,
stimuli\MODEL_filters-64_resnets-3_logmixes-12_latents-10_repeat-05_SEED09_STEP00.png,stimuli\MODEL_filters-64_resnets-3_logmixes-12_latents-10_repeat-05_SEED09_STEP01.png,stimuli\MODEL_filters-64_resnets-3_logmixes-12_latents-10_repeat-05_SEED09_STEP02.png,stimuli\MODEL_filters-64_resnets-3_logmixes-12_latents-10_repeat-05_SEED09_STEP03.png,stimuli\MODEL_filters-64_resnets-3_logmixes-12_latents-10_repeat-05_SEED09_STEP04.png,0,46,46,47,"[3, 1, 2, 0, 4]","[1, 4, 2, 3, 5]",13,26,f,n,n,2019_Apr_08_1430,gloss_ordering_task,59.92588371657463,
stimuli\MODEL_filters-64_resnets-3_logmixes-12_latents-10_repeat-07_SEED02_STEP00.png,stimuli\MODEL_filters-64_resnets-3_logmixes-12_latents-10_repeat-07_SEED02_STEP01.png,stimuli\MODEL_filters-64_resnets-3_logmixes-12_latents-10_repeat-07_SEED02_STEP02.png,stimuli\MODEL_filters-64_resnets-3_logmixes-12_latents-10_repeat-07_SEED02_STEP03.png,stimuli\MODEL_filters-64_resnets-3_logmixes-12_latents-10_repeat-07_SEED02_STEP04.png,0,47,47,57,"[3, 1, 4, 0, 2]","[1, 2, 3, 4, 5]",13,26,f,n,n,2019_Apr_08_1430,gloss_ordering_task,59.92588371657463,
stimuli\MODEL_filters-64_resnets-3_logmixes-12_latents-10_repeat-04_SEED06_STEP00.png,stimuli\MODEL_filters-64_resnets-3_logmixes-12_latents-10_repeat-04_SEED06_STEP01.png,stimuli\MODEL_filters-64_resnets-3_logmixes-12_latents-10_repeat-04_SEED06_STEP02.png,stimuli\MODEL_filters-64_resnets-3_logmixes-12_latents-10_repeat-04_SEED06_STEP03.png,stimuli\MODEL_filters-64_resnets-3_logmixes-12_latents-10_repeat-04_SEED06_STEP04.png,0,48,48,37,"[4, 0, 3, 2, 1]","[5, 4, 3, 2, 1]",13,26,f,n,n,2019_Apr_08_1430,gloss_ordering_task,59.92588371657463,
stimuli\MODEL_filters-64_resnets-3_logmixes-12_latents-10_repeat-03_SEED07_STEP00.png,stimuli\MODEL_filters-64_resnets-3_logmixes-12_latents-10_repeat-03_SEED07_STEP01.png,stimuli\MODEL_filters-64_resnets-3_logmixes-12_latents-10_repeat-03_SEED07_STEP02.png,stimuli\MODEL_filters-64_resnets-3_logmixes-12_latents-10_repeat-03_SEED07_STEP03.png,stimuli\MODEL_filters-64_resnets-3_logmixes-12_latents-10_repeat-03_SEED07_STEP04.png,0,49,49,30,"[4, 0, 1, 3, 2]","[1, 2, 3, 4, 5]",13,26,f,n,n,2019_Apr_08_1430,gloss_ordering_task,59.92588371657463,
stimuli\MODEL_filters-64_resnets-3_logmixes-12_latents-10_repeat-05_SEED04_STEP00.png,stimuli\MODEL_filters-64_resnets-3_logmixes-12_latents-10_repeat-05_SEED04_STEP01.png,stimuli\MODEL_filters-64_resnets-3_logmixes-12_latents-10_repeat-05_SEED04_STEP02.png,stimuli\MODEL_filters-64_resnets-3_logmixes-12_latents-10_repeat-05_SEED04_STEP03.png,stimuli\MODEL_filters-64_resnets-3_logmixes-12_latents-10_repeat-05_SEED04_STEP04.png,0,50,50,43,"[2, 3, 0, 4, 1]","[4, 1, 2, 5, 3]",13,26,f,n,n,2019_Apr_08_1430,gloss_ordering_task,59.92588371657463,
stimuli\MODEL_filters-64_resnets-3_logmixes-12_latents-10_repeat-01_SEED07_STEP00.png,stimuli\MODEL_filters-64_resnets-3_logmixes-12_latents-10_repeat-01_SEED07_STEP01.png,stimuli\MODEL_filters-64_resnets-3_logmixes-12_latents-10_repeat-01_SEED07_STEP02.png,stimuli\MODEL_filters-64_resnets-3_logmixes-12_latents-10_repeat-01_SEED07_STEP03.png,stimuli\MODEL_filters-64_resnets-3_logmixes-12_latents-10_repeat-01_SEED07_STEP04.png,0,51,51,14,"[0, 1, 3, 2, 4]","[2, 1, 3, 4, 5]",13,26,f,n,n,2019_Apr_08_1430,gloss_ordering_task,59.92588371657463,
stimuli\MODEL_filters-64_resnets-3_logmixes-12_latents-10_repeat-08_SEED02_STEP00.png,stimuli\MODEL_filters-64_resnets-3_logmixes-12_latents-10_repeat-08_SEED02_STEP01.png,stimuli\MODEL_filters-64_resnets-3_logmixes-12_latents-10_repeat-08_SEED02_STEP02.png,stimuli\MODEL_filters-64_resnets-3_logmixes-12_latents-10_repeat-08_SEED02_STEP03.png,stimuli\MODEL_filters-64_resnets-3_logmixes-12_latents-10_repeat-08_SEED02_STEP04.png,0,52,52,65,"[1, 4, 2, 0, 3]","[1, 5, 4, 2, 3]",13,26,f,n,n,2019_Apr_08_1430,gloss_ordering_task,59.92588371657463,
stimuli\MODEL_filters-64_resnets-3_logmixes-12_latents-10_repeat-08_SEED09_STEP00.png,stimuli\MODEL_filters-64_resnets-3_logmixes-12_latents-10_repeat-08_SEED09_STEP01.png,stimuli\MODEL_filters-64_resnets-3_logmixes-12_latents-10_repeat-08_SEED09_STEP02.png,stimuli\MODEL_filters-64_resnets-3_logmixes-12_latents-10_repeat-08_SEED09_STEP03.png,stimuli\MODEL_filters-64_resnets-3_logmixes-12_latents-10_repeat-08_SEED09_STEP04.png,0,53,53,71,"[0, 4, 1, 2, 3]","[1, 2, 3, 4, 5]",13,26,f,n,n,2019_Apr_08_1430,gloss_ordering_task,59.92588371657463,
stimuli\MODEL_filters-64_resnets-3_logmixes-12_latents-10_repeat-07_SEED03_STEP00.png,stimuli\MODEL_filters-64_resnets-3_logmixes-12_latents-10_repeat-07_SEED03_STEP01.png,stimuli\MODEL_filters-64_resnets-3_logmixes-12_latents-10_repeat-07_SEED03_STEP02.png,stimuli\MODEL_filters-64_resnets-3_logmixes-12_latents-10_repeat-07_SEED03_STEP03.png,stimuli\MODEL_filters-64_resnets-3_logmixes-12_latents-10_repeat-07_SEED03_STEP04.png,0,54,54,58,"[4, 0, 1, 3, 2]","[1, 2, 3, 4, 5]",13,26,f,n,n,2019_Apr_08_1430,gloss_ordering_task,59.92588371657463,
stimuli\MODEL_filters-64_resnets-3_logmixes-12_latents-10_repeat-05_SEED06_STEP00.png,stimuli\MODEL_filters-64_resnets-3_logmixes-12_latents-10_repeat-05_SEED06_STEP01.png,stimuli\MODEL_filters-64_resnets-3_logmixes-12_latents-10_repeat-05_SEED06_STEP02.png,stimuli\MODEL_filters-64_resnets-3_logmixes-12_latents-10_repeat-05_SEED06_STEP03.png,stimuli\MODEL_filters-64_resnets-3_logmixes-12_latents-10_repeat-05_SEED06_STEP04.png,0,55,55,45,"[3, 2, 0, 1, 4]","[4, 2, 5, 3, 1]",13,26,f,n,n,2019_Apr_08_1430,gloss_ordering_task,59.92588371657463,
stimuli\MODEL_filters-64_resnets-3_logmixes-12_latents-10_repeat-00_SEED04_STEP00.png,stimuli\MODEL_filters-64_resnets-3_logmixes-12_latents-10_repeat-00_SEED04_STEP01.png,stimuli\MODEL_filters-64_resnets-3_logmixes-12_latents-10_repeat-00_SEED04_STEP02.png,stimuli\MODEL_filters-64_resnets-3_logmixes-12_latents-10_repeat-00_SEED04_STEP03.png,stimuli\MODEL_filters-64_resnets-3_logmixes-12_latents-10_repeat-00_SEED04_STEP04.png,0,56,56,3,"[4, 2, 0, 1, 3]","[4, 3, 2, 5, 1]",13,26,f,n,n,2019_Apr_08_1430,gloss_ordering_task,59.92588371657463,
stimuli\MODEL_filters-64_resnets-3_logmixes-12_latents-10_repeat-04_SEED02_STEP00.png,stimuli\MODEL_filters-64_resnets-3_logmixes-12_latents-10_repeat-04_SEED02_STEP01.png,stimuli\MODEL_filters-64_resnets-3_logmixes-12_latents-10_repeat-04_SEED02_STEP02.png,stimuli\MODEL_filters-64_resnets-3_logmixes-12_latents-10_repeat-04_SEED02_STEP03.png,stimuli\MODEL_filters-64_resnets-3_logmixes-12_latents-10_repeat-04_SEED02_STEP04.png,0,57,57,33,"[4, 3, 2, 0, 1]","[5, 4, 3, 2, 1]",13,26,f,n,n,2019_Apr_08_1430,gloss_ordering_task,59.92588371657463,
stimuli\MODEL_filters-64_resnets-3_logmixes-12_latents-10_repeat-03_SEED02_STEP00.png,stimuli\MODEL_filters-64_resnets-3_logmixes-12_latents-10_repeat-03_SEED02_STEP01.png,stimuli\MODEL_filters-64_resnets-3_logmixes-12_latents-10_repeat-03_SEED02_STEP02.png,stimuli\MODEL_filters-64_resnets-3_logmixes-12_latents-10_repeat-03_SEED02_STEP03.png,stimuli\MODEL_filters-64_resnets-3_logmixes-12_latents-10_repeat-03_SEED02_STEP04.png,0,58,58,25,"[2, 4, 1, 3, 0]","[3, 4, 1, 2, 5]",13,26,f,n,n,2019_Apr_08_1430,gloss_ordering_task,59.92588371657463,
stimuli\MODEL_filters-64_resnets-3_logmixes-12_latents-10_repeat-00_SEED06_STEP00.png,stimuli\MODEL_filters-64_resnets-3_logmixes-12_latents-10_repeat-00_SEED06_STEP01.png,stimuli\MODEL_filters-64_resnets-3_logmixes-12_latents-10_repeat-00_SEED06_STEP02.png,stimuli\MODEL_filters-64_resnets-3_logmixes-12_latents-10_repeat-00_SEED06_STEP03.png,stimuli\MODEL_filters-64_resnets-3_logmixes-12_latents-10_repeat-00_SEED06_STEP04.png,0,59,59,5,"[3, 1, 4, 2, 0]","[4, 1, 2, 5, 3]",13,26,f,n,n,2019_Apr_08_1430,gloss_ordering_task,59.92588371657463,
stimuli\MODEL_filters-64_resnets-3_logmixes-12_latents-10_repeat-07_SEED07_STEP00.png,stimuli\MODEL_filters-64_resnets-3_logmixes-12_latents-10_repeat-07_SEED07_STEP01.png,stimuli\MODEL_filters-64_resnets-3_logmixes-12_latents-10_repeat-07_SEED07_STEP02.png,stimuli\MODEL_filters-64_resnets-3_logmixes-12_latents-10_repeat-07_SEED07_STEP03.png,stimuli\MODEL_filters-64_resnets-3_logmixes-12_latents-10_repeat-07_SEED07_STEP04.png,0,60,60,62,"[1, 3, 2, 0, 4]","[2, 3, 1, 5, 4]",13,26,f,n,n,2019_Apr_08_1430,gloss_ordering_task,59.92588371657463,
stimuli\MODEL_filters-64_resnets-3_logmixes-12_latents-10_repeat-08_SEED03_STEP00.png,stimuli\MODEL_filters-64_resnets-3_logmixes-12_latents-10_repeat-08_SEED03_STEP01.png,stimuli\MODEL_filters-64_resnets-3_logmixes-12_latents-10_repeat-08_SEED03_STEP02.png,stimuli\MODEL_filters-64_resnets-3_logmixes-12_latents-10_repeat-08_SEED03_STEP03.png,stimuli\MODEL_filters-64_resnets-3_logmixes-12_latents-10_repeat-08_SEED03_STEP04.png,0,61,61,66,"[4, 1, 3, 2, 0]","[1, 2, 3, 4, 5]",13,26,f,n,n,2019_Apr_08_1430,gloss_ordering_task,59.92588371657463,
stimuli\MODEL_filters-64_resnets-3_logmixes-12_latents-10_repeat-04_SEED07_STEP00.png,stimuli\MODEL_filters-64_resnets-3_logmixes-12_latents-10_repeat-04_SEED07_STEP01.png,stimuli\MODEL_filters-64_resnets-3_logmixes-12_latents-10_repeat-04_SEED07_STEP02.png,stimuli\MODEL_filters-64_resnets-3_logmixes-12_latents-10_repeat-04_SEED07_STEP03.png,stimuli\MODEL_filters-64_resnets-3_logmixes-12_latents-10_repeat-04_SEED07_STEP04.png,0,62,62,38,"[2, 4, 3, 0, 1]","[5, 3, 1, 2, 4]",13,26,f,n,n,2019_Apr_08_1430,gloss_ordering_task,59.92588371657463,
stimuli\MODEL_filters-64_resnets-3_logmixes-12_latents-10_repeat-05_SEED07_STEP00.png,stimuli\MODEL_filters-64_resnets-3_logmixes-12_latents-10_repeat-05_SEED07_STEP01.png,stimuli\MODEL_filters-64_resnets-3_logmixes-12_latents-10_repeat-05_SEED07_STEP02.png,stimuli\MODEL_filters-64_resnets-3_logmixes-12_latents-10_repeat-05_SEED07_STEP03.png,stimuli\MODEL_filters-64_resnets-3_logmixes-12_latents-10_repeat-05_SEED07_STEP04.png,0,63,63,46,"[0, 4, 1, 2, 3]","[1, 2, 3, 4, 5]",13,26,f,n,n,2019_Apr_08_1430,gloss_ordering_task,59.92588371657463,
stimuli\MODEL_filters-64_resnets-3_logmixes-12_latents-10_repeat-05_SEED00_STEP00.png,stimuli\MODEL_filters-64_resnets-3_logmixes-12_latents-10_repeat-05_SEED00_STEP01.png,stimuli\MODEL_filters-64_resnets-3_logmixes-12_latents-10_repeat-05_SEED00_STEP02.png,stimuli\MODEL_filters-64_resnets-3_logmixes-12_latents-10_repeat-05_SEED00_STEP03.png,stimuli\MODEL_filters-64_resnets-3_logmixes-12_latents-10_repeat-05_SEED00_STEP04.png,0,64,64,40,"[4, 2, 1, 3, 0]","[1, 2, 3, 4, 5]",13,26,f,n,n,2019_Apr_08_1430,gloss_ordering_task,59.92588371657463,
stimuli\MODEL_filters-64_resnets-3_logmixes-12_latents-10_repeat-09_SEED02_STEP00.png,stimuli\MODEL_filters-64_resnets-3_logmixes-12_latents-10_repeat-09_SEED02_STEP01.png,stimuli\MODEL_filters-64_resnets-3_logmixes-12_latents-10_repeat-09_SEED02_STEP02.png,stimuli\MODEL_filters-64_resnets-3_logmixes-12_latents-10_repeat-09_SEED02_STEP03.png,stimuli\MODEL_filters-64_resnets-3_logmixes-12_latents-10_repeat-09_SEED02_STEP04.png,0,65,65,73,"[0, 2, 1, 4, 3]","[1, 2, 3, 4, 5]",13,26,f,n,n,2019_Apr_08_1430,gloss_ordering_task,59.92588371657463,
stimuli\MODEL_filters-64_resnets-3_logmixes-12_latents-10_repeat-01_SEED09_STEP00.png,stimuli\MODEL_filters-64_resnets-3_logmixes-12_latents-10_repeat-01_SEED09_STEP01.png,stimuli\MODEL_filters-64_resnets-3_logmixes-12_latents-10_repeat-01_SEED09_STEP02.png,stimuli\MODEL_filters-64_resnets-3_logmixes-12_latents-10_repeat-01_SEED09_STEP03.png,stimuli\MODEL_filters-64_resnets-3_logmixes-12_latents-10_repeat-01_SEED09_STEP04.png,0,66,66,15,"[0, 2, 3, 1, 4]","[2, 3, 1, 4, 5]",13,26,f,n,n,2019_Apr_08_1430,gloss_ordering_task,59.92588371657463,
stimuli\MODEL_filters-64_resnets-3_logmixes-12_latents-10_repeat-06_SEED09_STEP00.png,stimuli\MODEL_filters-64_resnets-3_logmixes-12_latents-10_repeat-06_SEED09_STEP01.png,stimuli\MODEL_filters-64_resnets-3_logmixes-12_latents-10_repeat-06_SEED09_STEP02.png,stimuli\MODEL_filters-64_resnets-3_logmixes-12_latents-10_repeat-06_SEED09_STEP03.png,stimuli\MODEL_filters-64_resnets-3_logmixes-12_latents-10_repeat-06_SEED09_STEP04.png,0,67,67,55,"[3, 4, 1, 2, 0]","[3, 1, 2, 4, 5]",13,26,f,n,n,2019_Apr_08_1430,gloss_ordering_task,59.92588371657463,
stimuli\MODEL_filters-64_resnets-3_logmixes-12_latents-10_repeat-09_SEED07_STEP00.png,stimuli\MODEL_filters-64_resnets-3_logmixes-12_latents-10_repeat-09_SEED07_STEP01.png,stimuli\MODEL_filters-64_resnets-3_logmixes-12_latents-10_repeat-09_SEED07_STEP02.png,stimuli\MODEL_filters-64_resnets-3_logmixes-12_latents-10_repeat-09_SEED07_STEP03.png,stimuli\MODEL_filters-64_resnets-3_logmixes-12_latents-10_repeat-09_SEED07_STEP04.png,0,68,68,78,"[3, 0, 4, 2, 1]","[1, 2, 3, 4, 5]",13,26,f,n,n,2019_Apr_08_1430,gloss_ordering_task,59.92588371657463,
stimuli\MODEL_filters-64_resnets-3_logmixes-12_latents-10_repeat-02_SEED03_STEP00.png,stimuli\MODEL_filters-64_resnets-3_logmixes-12_latents-10_repeat-02_SEED03_STEP01.png,stimuli\MODEL_filters-64_resnets-3_logmixes-12_latents-10_repeat-02_SEED03_STEP02.png,stimuli\MODEL_filters-64_resnets-3_logmixes-12_latents-10_repeat-02_SEED03_STEP03.png,stimuli\MODEL_filters-64_resnets-3_logmixes-12_latents-10_repeat-02_SEED03_STEP04.png,0,69,69,18,"[2, 0, 4, 3, 1]","[1, 2, 3, 4, 5]",13,26,f,n,n,2019_Apr_08_1430,gloss_ordering_task,59.92588371657463,
stimuli\MODEL_filters-64_resnets-3_logmixes-12_latents-10_repeat-03_SEED05_STEP00.png,stimuli\MODEL_filters-64_resnets-3_logmixes-12_latents-10_repeat-03_SEED05_STEP01.png,stimuli\MODEL_filters-64_resnets-3_logmixes-12_latents-10_repeat-03_SEED05_STEP02.png,stimuli\MODEL_filters-64_resnets-3_logmixes-12_latents-10_repeat-03_SEED05_STEP03.png,stimuli\MODEL_filters-64_resnets-3_logmixes-12_latents-10_repeat-03_SEED05_STEP04.png,0,70,70,28,"[0, 2, 1, 4, 3]","[3, 1, 2, 4, 5]",13,26,f,n,n,2019_Apr_08_1430,gloss_ordering_task,59.92588371657463,
stimuli\MODEL_filters-64_resnets-3_logmixes-12_latents-10_repeat-02_SEED02_STEP00.png,stimuli\MODEL_filters-64_resnets-3_logmixes-12_latents-10_repeat-02_SEED02_STEP01.png,stimuli\MODEL_filters-64_resnets-3_logmixes-12_latents-10_repeat-02_SEED02_STEP02.png,stimuli\MODEL_filters-64_resnets-3_logmixes-12_latents-10_repeat-02_SEED02_STEP03.png,stimuli\MODEL_filters-64_resnets-3_logmixes-12_latents-10_repeat-02_SEED02_STEP04.png,0,71,71,17,"[4, 1, 2, 3, 0]","[2, 1, 3, 4, 5]",13,26,f,n,n,2019_Apr_08_1430,gloss_ordering_task,59.92588371657463,
stimuli\MODEL_filters-64_resnets-3_logmixes-12_latents-10_repeat-08_SEED00_STEP00.png,stimuli\MODEL_filters-64_resnets-3_logmixes-12_latents-10_repeat-08_SEED00_STEP01.png,stimuli\MODEL_filters-64_resnets-3_logmixes-12_latents-10_repeat-08_SEED00_STEP02.png,stimuli\MODEL_filters-64_resnets-3_logmixes-12_latents-10_repeat-08_SEED00_STEP03.png,stimuli\MODEL_filters-64_resnets-3_logmixes-12_latents-10_repeat-08_SEED00_STEP04.png,0,72,72,64,"[4, 3, 2, 0, 1]","[1, 2, 3, 5, 4]",13,26,f,n,n,2019_Apr_08_1430,gloss_ordering_task,59.92588371657463,
stimuli\MODEL_filters-64_resnets-3_logmixes-12_latents-10_repeat-06_SEED04_STEP00.png,stimuli\MODEL_filters-64_resnets-3_logmixes-12_latents-10_repeat-06_SEED04_STEP01.png,stimuli\MODEL_filters-64_resnets-3_logmixes-12_latents-10_repeat-06_SEED04_STEP02.png,stimuli\MODEL_filters-64_resnets-3_logmixes-12_latents-10_repeat-06_SEED04_STEP03.png,stimuli\MODEL_filters-64_resnets-3_logmixes-12_latents-10_repeat-06_SEED04_STEP04.png,0,73,73,51,"[3, 1, 4, 2, 0]","[3, 2, 1, 5, 4]",13,26,f,n,n,2019_Apr_08_1430,gloss_ordering_task,59.92588371657463,
stimuli\MODEL_filters-64_resnets-3_logmixes-12_latents-10_repeat-02_SEED04_STEP00.png,stimuli\MODEL_filters-64_resnets-3_logmixes-12_latents-10_repeat-02_SEED04_STEP01.png,stimuli\MODEL_filters-64_resnets-3_logmixes-12_latents-10_repeat-02_SEED04_STEP02.png,stimuli\MODEL_filters-64_resnets-3_logmixes-12_latents-10_repeat-02_SEED04_STEP03.png,stimuli\MODEL_filters-64_resnets-3_logmixes-12_latents-10_repeat-02_SEED04_STEP04.png,0,74,74,19,"[3, 2, 0, 1, 4]","[3, 4, 2, 1, 5]",13,26,f,n,n,2019_Apr_08_1430,gloss_ordering_task,59.92588371657463,
stimuli\MODEL_filters-64_resnets-3_logmixes-12_latents-10_repeat-09_SEED03_STEP00.png,stimuli\MODEL_filters-64_resnets-3_logmixes-12_latents-10_repeat-09_SEED03_STEP01.png,stimuli\MODEL_filters-64_resnets-3_logmixes-12_latents-10_repeat-09_SEED03_STEP02.png,stimuli\MODEL_filters-64_resnets-3_logmixes-12_latents-10_repeat-09_SEED03_STEP03.png,stimuli\MODEL_filters-64_resnets-3_logmixes-12_latents-10_repeat-09_SEED03_STEP04.png,0,75,75,74,"[0, 4, 2, 1, 3]","[1, 2, 3, 4, 5]",13,26,f,n,n,2019_Apr_08_1430,gloss_ordering_task,59.92588371657463,
stimuli\MODEL_filters-64_resnets-3_logmixes-12_latents-10_repeat-01_SEED06_STEP00.png,stimuli\MODEL_filters-64_resnets-3_logmixes-12_latents-10_repeat-01_SEED06_STEP01.png,stimuli\MODEL_filters-64_resnets-3_logmixes-12_latents-10_repeat-01_SEED06_STEP02.png,stimuli\MODEL_filters-64_resnets-3_logmixes-12_latents-10_repeat-01_SEED06_STEP03.png,stimuli\MODEL_filters-64_resnets-3_logmixes-12_latents-10_repeat-01_SEED06_STEP04.png,0,76,76,13,"[1, 4, 0, 3, 2]","[1, 2, 3, 4, 5]",13,26,f,n,n,2019_Apr_08_1430,gloss_ordering_task,59.92588371657463,
stimuli\MODEL_filters-64_resnets-3_logmixes-12_latents-10_repeat-01_SEED00_STEP00.png,stimuli\MODEL_filters-64_resnets-3_logmixes-12_latents-10_repeat-01_SEED00_STEP01.png,stimuli\MODEL_filters-64_resnets-3_logmixes-12_latents-10_repeat-01_SEED00_STEP02.png,stimuli\MODEL_filters-64_resnets-3_logmixes-12_latents-10_repeat-01_SEED00_STEP03.png,stimuli\MODEL_filters-64_resnets-3_logmixes-12_latents-10_repeat-01_SEED00_STEP04.png,0,77,77,8,"[3, 0, 4, 1, 2]","[1, 2, 3, 4, 5]",13,26,f,n,n,2019_Apr_08_1430,gloss_ordering_task,59.92588371657463,
stimuli\MODEL_filters-64_resnets-3_logmixes-12_latents-10_repeat-04_SEED03_STEP00.png,stimuli\MODEL_filters-64_resnets-3_logmixes-12_latents-10_repeat-04_SEED03_STEP01.png,stimuli\MODEL_filters-64_resnets-3_logmixes-12_latents-10_repeat-04_SEED03_STEP02.png,stimuli\MODEL_filters-64_resnets-3_logmixes-12_latents-10_repeat-04_SEED03_STEP03.png,stimuli\MODEL_filters-64_resnets-3_logmixes-12_latents-10_repeat-04_SEED03_STEP04.png,0,78,78,34,"[0, 4, 1, 3, 2]","[1, 2, 3, 4, 5]",13,26,f,n,n,2019_Apr_08_1430,gloss_ordering_task,59.92588371657463,
stimuli\MODEL_filters-64_resnets-3_logmixes-12_latents-10_repeat-09_SEED00_STEP00.png,stimuli\MODEL_filters-64_resnets-3_logmixes-12_latents-10_repeat-09_SEED00_STEP01.png,stimuli\MODEL_filters-64_resnets-3_logmixes-12_latents-10_repeat-09_SEED00_STEP02.png,stimuli\MODEL_filters-64_resnets-3_logmixes-12_latents-10_repeat-09_SEED00_STEP03.png,stimuli\MODEL_filters-64_resnets-3_logmixes-12_latents-10_repeat-09_SEED00_STEP04.png,0,79,79,72,"[3, 1, 2, 4, 0]","[1, 2, 3, 4, 5]",13,26,f,n,n,2019_Apr_08_1430,gloss_ordering_task,59.92588371657463,
