stimOne,stimTwo,stimThree,stimFour,stimFive,trials_1.thisRepN,trials_1.thisTrialN,trials_1.thisN,trials_1.thisIndex,presentation_positions,placement_order,participant ID (two digits, e.g. 01),age,gender (m/f/-),normal or corrected-to-normal vision (y/n),normal colour vision (y/n),date,expName,frameRate,
stimuli\MODEL_filters-64_resnets-3_logmixes-12_latents-10_repeat-07_SEED04_STEP00.png,stimuli\MODEL_filters-64_resnets-3_logmixes-12_latents-10_repeat-07_SEED04_STEP01.png,stimuli\MODEL_filters-64_resnets-3_logmixes-12_latents-10_repeat-07_SEED04_STEP02.png,stimuli\MODEL_filters-64_resnets-3_logmixes-12_latents-10_repeat-07_SEED04_STEP03.png,stimuli\MODEL_filters-64_resnets-3_logmixes-12_latents-10_repeat-07_SEED04_STEP04.png,0,0,0,59,"[4, 1, 2, 3, 0]","[4, 2, 1, 3, 5]",15,24,f,y,y,2019_Apr_08_1605,gloss_ordering_task,59.94531795308531,
stimuli\MODEL_filters-64_resnets-3_logmixes-12_latents-10_repeat-05_SEED04_STEP00.png,stimuli\MODEL_filters-64_resnets-3_logmixes-12_latents-10_repeat-05_SEED04_STEP01.png,stimuli\MODEL_filters-64_resnets-3_logmixes-12_latents-10_repeat-05_SEED04_STEP02.png,stimuli\MODEL_filters-64_resnets-3_logmixes-12_latents-10_repeat-05_SEED04_STEP03.png,stimuli\MODEL_filters-64_resnets-3_logmixes-12_latents-10_repeat-05_SEED04_STEP04.png,0,1,1,43,"[4, 0, 2, 3, 1]","[1, 2, 5, 4, 3]",15,24,f,y,y,2019_Apr_08_1605,gloss_ordering_task,59.94531795308531,
stimuli\MODEL_filters-64_resnets-3_logmixes-12_latents-10_repeat-04_SEED06_STEP00.png,stimuli\MODEL_filters-64_resnets-3_logmixes-12_latents-10_repeat-04_SEED06_STEP01.png,stimuli\MODEL_filters-64_resnets-3_logmixes-12_latents-10_repeat-04_SEED06_STEP02.png,stimuli\MODEL_filters-64_resnets-3_logmixes-12_latents-10_repeat-04_SEED06_STEP03.png,stimuli\MODEL_filters-64_resnets-3_logmixes-12_latents-10_repeat-04_SEED06_STEP04.png,0,2,2,37,"[3, 1, 0, 2, 4]","[5, 3, 4, 2, 1]",15,24,f,y,y,2019_Apr_08_1605,gloss_ordering_task,59.94531795308531,
stimuli\MODEL_filters-64_resnets-3_logmixes-12_latents-10_repeat-05_SEED03_STEP00.png,stimuli\MODEL_filters-64_resnets-3_logmixes-12_latents-10_repeat-05_SEED03_STEP01.png,stimuli\MODEL_filters-64_resnets-3_logmixes-12_latents-10_repeat-05_SEED03_STEP02.png,stimuli\MODEL_filters-64_resnets-3_logmixes-12_latents-10_repeat-05_SEED03_STEP03.png,stimuli\MODEL_filters-64_resnets-3_logmixes-12_latents-10_repeat-05_SEED03_STEP04.png,0,3,3,42,"[3, 4, 0, 2, 1]","[2, 1, 3, 4, 5]",15,24,f,y,y,2019_Apr_08_1605,gloss_ordering_task,59.94531795308531,
stimuli\MODEL_filters-64_resnets-3_logmixes-12_latents-10_repeat-00_SEED04_STEP00.png,stimuli\MODEL_filters-64_resnets-3_logmixes-12_latents-10_repeat-00_SEED04_STEP01.png,stimuli\MODEL_filters-64_resnets-3_logmixes-12_latents-10_repeat-00_SEED04_STEP02.png,stimuli\MODEL_filters-64_resnets-3_logmixes-12_latents-10_repeat-00_SEED04_STEP03.png,stimuli\MODEL_filters-64_resnets-3_logmixes-12_latents-10_repeat-00_SEED04_STEP04.png,0,4,4,3,"[1, 0, 2, 4, 3]","[4, 3, 5, 2, 1]",15,24,f,y,y,2019_Apr_08_1605,gloss_ordering_task,59.94531795308531,
stimuli\MODEL_filters-64_resnets-3_logmixes-12_latents-10_repeat-02_SEED04_STEP00.png,stimuli\MODEL_filters-64_resnets-3_logmixes-12_latents-10_repeat-02_SEED04_STEP01.png,stimuli\MODEL_filters-64_resnets-3_logmixes-12_latents-10_repeat-02_SEED04_STEP02.png,stimuli\MODEL_filters-64_resnets-3_logmixes-12_latents-10_repeat-02_SEED04_STEP03.png,stimuli\MODEL_filters-64_resnets-3_logmixes-12_latents-10_repeat-02_SEED04_STEP04.png,0,5,5,19,"[1, 2, 3, 4, 0]","[1, 4, 2, 3, 5]",15,24,f,y,y,2019_Apr_08_1605,gloss_ordering_task,59.94531795308531,
stimuli\MODEL_filters-64_resnets-3_logmixes-12_latents-10_repeat-06_SEED07_STEP00.png,stimuli\MODEL_filters-64_resnets-3_logmixes-12_latents-10_repeat-06_SEED07_STEP01.png,stimuli\MODEL_filters-64_resnets-3_logmixes-12_latents-10_repeat-06_SEED07_STEP02.png,stimuli\MODEL_filters-64_resnets-3_logmixes-12_latents-10_repeat-06_SEED07_STEP03.png,stimuli\MODEL_filters-64_resnets-3_logmixes-12_latents-10_repeat-06_SEED07_STEP04.png,0,6,6,54,"[3, 4, 1, 2, 0]","[2, 3, 4, 1, 5]",15,24,f,y,y,2019_Apr_08_1605,gloss_ordering_task,59.94531795308531,
stimuli\MODEL_filters-64_resnets-3_logmixes-12_latents-10_repeat-01_SEED06_STEP00.png,stimuli\MODEL_filters-64_resnets-3_logmixes-12_latents-10_repeat-01_SEED06_STEP01.png,stimuli\MODEL_filters-64_resnets-3_logmixes-12_latents-10_repeat-01_SEED06_STEP02.png,stimuli\MODEL_filters-64_resnets-3_logmixes-12_latents-10_repeat-01_SEED06_STEP03.png,stimuli\MODEL_filters-64_resnets-3_logmixes-12_latents-10_repeat-01_SEED06_STEP04.png,0,7,7,13,"[2, 0, 4, 1, 3]","[1, 2, 3, 4, 5]",15,24,f,y,y,2019_Apr_08_1605,gloss_ordering_task,59.94531795308531,
stimuli\MODEL_filters-64_resnets-3_logmixes-12_latents-10_repeat-00_SEED07_STEP00.png,stimuli\MODEL_filters-64_resnets-3_logmixes-12_latents-10_repeat-00_SEED07_STEP01.png,stimuli\MODEL_filters-64_resnets-3_logmixes-12_latents-10_repeat-00_SEED07_STEP02.png,stimuli\MODEL_filters-64_resnets-3_logmixes-12_latents-10_repeat-00_SEED07_STEP03.png,stimuli\MODEL_filters-64_resnets-3_logmixes-12_latents-10_repeat-00_SEED07_STEP04.png,0,8,8,6,"[4, 1, 0, 2, 3]","[3, 4, 1, 2, 5]",15,24,f,y,y,2019_Apr_08_1605,gloss_ordering_task,59.94531795308531,
stimuli\MODEL_filters-64_resnets-3_logmixes-12_latents-10_repeat-09_SEED03_STEP00.png,stimuli\MODEL_filters-64_resnets-3_logmixes-12_latents-10_repeat-09_SEED03_STEP01.png,stimuli\MODEL_filters-64_resnets-3_logmixes-12_latents-10_repeat-09_SEED03_STEP02.png,stimuli\MODEL_filters-64_resnets-3_logmixes-12_latents-10_repeat-09_SEED03_STEP03.png,stimuli\MODEL_filters-64_resnets-3_logmixes-12_latents-10_repeat-09_SEED03_STEP04.png,0,9,9,74,"[2, 3, 4, 0, 1]","[1, 3, 2, 4, 5]",15,24,f,y,y,2019_Apr_08_1605,gloss_ordering_task,59.94531795308531,
stimuli\MODEL_filters-64_resnets-3_logmixes-12_latents-10_repeat-01_SEED02_STEP00.png,stimuli\MODEL_filters-64_resnets-3_logmixes-12_latents-10_repeat-01_SEED02_STEP01.png,stimuli\MODEL_filters-64_resnets-3_logmixes-12_latents-10_repeat-01_SEED02_STEP02.png,stimuli\MODEL_filters-64_resnets-3_logmixes-12_latents-10_repeat-01_SEED02_STEP03.png,stimuli\MODEL_filters-64_resnets-3_logmixes-12_latents-10_repeat-01_SEED02_STEP04.png,0,10,10,9,"[0, 1, 3, 4, 2]","[1, 2, 3, 4, 5]",15,24,f,y,y,2019_Apr_08_1605,gloss_ordering_task,59.94531795308531,
stimuli\MODEL_filters-64_resnets-3_logmixes-12_latents-10_repeat-08_SEED09_STEP00.png,stimuli\MODEL_filters-64_resnets-3_logmixes-12_latents-10_repeat-08_SEED09_STEP01.png,stimuli\MODEL_filters-64_resnets-3_logmixes-12_latents-10_repeat-08_SEED09_STEP02.png,stimuli\MODEL_filters-64_resnets-3_logmixes-12_latents-10_repeat-08_SEED09_STEP03.png,stimuli\MODEL_filters-64_resnets-3_logmixes-12_latents-10_repeat-08_SEED09_STEP04.png,0,11,11,71,"[3, 0, 4, 2, 1]","[1, 3, 2, 4, 5]",15,24,f,y,y,2019_Apr_08_1605,gloss_ordering_task,59.94531795308531,
stimuli\MODEL_filters-64_resnets-3_logmixes-12_latents-10_repeat-03_SEED07_STEP00.png,stimuli\MODEL_filters-64_resnets-3_logmixes-12_latents-10_repeat-03_SEED07_STEP01.png,stimuli\MODEL_filters-64_resnets-3_logmixes-12_latents-10_repeat-03_SEED07_STEP02.png,stimuli\MODEL_filters-64_resnets-3_logmixes-12_latents-10_repeat-03_SEED07_STEP03.png,stimuli\MODEL_filters-64_resnets-3_logmixes-12_latents-10_repeat-03_SEED07_STEP04.png,0,12,12,30,"[2, 1, 0, 3, 4]","[1, 2, 3, 4, 5]",15,24,f,y,y,2019_Apr_08_1605,gloss_ordering_task,59.94531795308531,
stimuli\MODEL_filters-64_resnets-3_logmixes-12_latents-10_repeat-03_SEED09_STEP00.png,stimuli\MODEL_filters-64_resnets-3_logmixes-12_latents-10_repeat-03_SEED09_STEP01.png,stimuli\MODEL_filters-64_resnets-3_logmixes-12_latents-10_repeat-03_SEED09_STEP02.png,stimuli\MODEL_filters-64_resnets-3_logmixes-12_latents-10_repeat-03_SEED09_STEP03.png,stimuli\MODEL_filters-64_resnets-3_logmixes-12_latents-10_repeat-03_SEED09_STEP04.png,0,13,13,31,"[4, 2, 0, 3, 1]","[1, 3, 2, 4, 5]",15,24,f,y,y,2019_Apr_08_1605,gloss_ordering_task,59.94531795308531,
stimuli\MODEL_filters-64_resnets-3_logmixes-12_latents-10_repeat-07_SEED09_STEP00.png,stimuli\MODEL_filters-64_resnets-3_logmixes-12_latents-10_repeat-07_SEED09_STEP01.png,stimuli\MODEL_filters-64_resnets-3_logmixes-12_latents-10_repeat-07_SEED09_STEP02.png,stimuli\MODEL_filters-64_resnets-3_logmixes-12_latents-10_repeat-07_SEED09_STEP03.png,stimuli\MODEL_filters-64_resnets-3_logmixes-12_latents-10_repeat-07_SEED09_STEP04.png,0,14,14,63,"[2, 4, 0, 1, 3]","[4, 5, 2, 3, 1]",15,24,f,y,y,2019_Apr_08_1605,gloss_ordering_task,59.94531795308531,
stimuli\MODEL_filters-64_resnets-3_logmixes-12_latents-10_repeat-06_SEED04_STEP00.png,stimuli\MODEL_filters-64_resnets-3_logmixes-12_latents-10_repeat-06_SEED04_STEP01.png,stimuli\MODEL_filters-64_resnets-3_logmixes-12_latents-10_repeat-06_SEED04_STEP02.png,stimuli\MODEL_filters-64_resnets-3_logmixes-12_latents-10_repeat-06_SEED04_STEP03.png,stimuli\MODEL_filters-64_resnets-3_logmixes-12_latents-10_repeat-06_SEED04_STEP04.png,0,15,15,51,"[2, 4, 3, 0, 1]","[1, 3, 2, 5, 4]",15,24,f,y,y,2019_Apr_08_1605,gloss_ordering_task,59.94531795308531,
stimuli\MODEL_filters-64_resnets-3_logmixes-12_latents-10_repeat-04_SEED04_STEP00.png,stimuli\MODEL_filters-64_resnets-3_logmixes-12_latents-10_repeat-04_SEED04_STEP01.png,stimuli\MODEL_filters-64_resnets-3_logmixes-12_latents-10_repeat-04_SEED04_STEP02.png,stimuli\MODEL_filters-64_resnets-3_logmixes-12_latents-10_repeat-04_SEED04_STEP03.png,stimuli\MODEL_filters-64_resnets-3_logmixes-12_latents-10_repeat-04_SEED04_STEP04.png,0,16,16,35,"[3, 0, 1, 2, 4]","[3, 4, 2, 1, 5]",15,24,f,y,y,2019_Apr_08_1605,gloss_ordering_task,59.94531795308531,
stimuli\MODEL_filters-64_resnets-3_logmixes-12_latents-10_repeat-03_SEED02_STEP00.png,stimuli\MODEL_filters-64_resnets-3_logmixes-12_latents-10_repeat-03_SEED02_STEP01.png,stimuli\MODEL_filters-64_resnets-3_logmixes-12_latents-10_repeat-03_SEED02_STEP02.png,stimuli\MODEL_filters-64_resnets-3_logmixes-12_latents-10_repeat-03_SEED02_STEP03.png,stimuli\MODEL_filters-64_resnets-3_logmixes-12_latents-10_repeat-03_SEED02_STEP04.png,0,17,17,25,"[4, 0, 3, 1, 2]","[1, 2, 3, 4, 5]",15,24,f,y,y,2019_Apr_08_1605,gloss_ordering_task,59.94531795308531,
stimuli\MODEL_filters-64_resnets-3_logmixes-12_latents-10_repeat-01_SEED07_STEP00.png,stimuli\MODEL_filters-64_resnets-3_logmixes-12_latents-10_repeat-01_SEED07_STEP01.png,stimuli\MODEL_filters-64_resnets-3_logmixes-12_latents-10_repeat-01_SEED07_STEP02.png,stimuli\MODEL_filters-64_resnets-3_logmixes-12_latents-10_repeat-01_SEED07_STEP03.png,stimuli\MODEL_filters-64_resnets-3_logmixes-12_latents-10_repeat-01_SEED07_STEP04.png,0,18,18,14,"[1, 3, 0, 4, 2]","[1, 3, 2, 4, 5]",15,24,f,y,y,2019_Apr_08_1605,gloss_ordering_task,59.94531795308531,
stimuli\MODEL_filters-64_resnets-3_logmixes-12_latents-10_repeat-05_SEED06_STEP00.png,stimuli\MODEL_filters-64_resnets-3_logmixes-12_latents-10_repeat-05_SEED06_STEP01.png,stimuli\MODEL_filters-64_resnets-3_logmixes-12_latents-10_repeat-05_SEED06_STEP02.png,stimuli\MODEL_filters-64_resnets-3_logmixes-12_latents-10_repeat-05_SEED06_STEP03.png,stimuli\MODEL_filters-64_resnets-3_logmixes-12_latents-10_repeat-05_SEED06_STEP04.png,0,19,19,45,"[3, 2, 0, 4, 1]","[5, 4, 3, 2, 1]",15,24,f,y,y,2019_Apr_08_1605,gloss_ordering_task,59.94531795308531,
stimuli\MODEL_filters-64_resnets-3_logmixes-12_latents-10_repeat-07_SEED05_STEP00.png,stimuli\MODEL_filters-64_resnets-3_logmixes-12_latents-10_repeat-07_SEED05_STEP01.png,stimuli\MODEL_filters-64_resnets-3_logmixes-12_latents-10_repeat-07_SEED05_STEP02.png,stimuli\MODEL_filters-64_resnets-3_logmixes-12_latents-10_repeat-07_SEED05_STEP03.png,stimuli\MODEL_filters-64_resnets-3_logmixes-12_latents-10_repeat-07_SEED05_STEP04.png,0,20,20,60,"[4, 1, 3, 2, 0]","[2, 1, 5, 4, 3]",15,24,f,y,y,2019_Apr_08_1605,gloss_ordering_task,59.94531795308531,
stimuli\MODEL_filters-64_resnets-3_logmixes-12_latents-10_repeat-04_SEED05_STEP00.png,stimuli\MODEL_filters-64_resnets-3_logmixes-12_latents-10_repeat-04_SEED05_STEP01.png,stimuli\MODEL_filters-64_resnets-3_logmixes-12_latents-10_repeat-04_SEED05_STEP02.png,stimuli\MODEL_filters-64_resnets-3_logmixes-12_latents-10_repeat-04_SEED05_STEP03.png,stimuli\MODEL_filters-64_resnets-3_logmixes-12_latents-10_repeat-04_SEED05_STEP04.png,0,21,21,36,"[2, 4, 0, 1, 3]","[5, 4, 3, 2, 1]",15,24,f,y,y,2019_Apr_08_1605,gloss_ordering_task,59.94531795308531,
stimuli\MODEL_filters-64_resnets-3_logmixes-12_latents-10_repeat-06_SEED03_STEP00.png,stimuli\MODEL_filters-64_resnets-3_logmixes-12_latents-10_repeat-06_SEED03_STEP01.png,stimuli\MODEL_filters-64_resnets-3_logmixes-12_latents-10_repeat-06_SEED03_STEP02.png,stimuli\MODEL_filters-64_resnets-3_logmixes-12_latents-10_repeat-06_SEED03_STEP03.png,stimuli\MODEL_filters-64_resnets-3_logmixes-12_latents-10_repeat-06_SEED03_STEP04.png,0,22,22,50,"[4, 2, 0, 3, 1]","[1, 2, 3, 4, 5]",15,24,f,y,y,2019_Apr_08_1605,gloss_ordering_task,59.94531795308531,
stimuli\MODEL_filters-64_resnets-3_logmixes-12_latents-10_repeat-06_SEED00_STEP00.png,stimuli\MODEL_filters-64_resnets-3_logmixes-12_latents-10_repeat-06_SEED00_STEP01.png,stimuli\MODEL_filters-64_resnets-3_logmixes-12_latents-10_repeat-06_SEED00_STEP02.png,stimuli\MODEL_filters-64_resnets-3_logmixes-12_latents-10_repeat-06_SEED00_STEP03.png,stimuli\MODEL_filters-64_resnets-3_logmixes-12_latents-10_repeat-06_SEED00_STEP04.png,0,23,23,48,"[0, 4, 3, 1, 2]","[1, 2, 5, 4, 3]",15,24,f,y,y,2019_Apr_08_1605,gloss_ordering_task,59.94531795308531,
stimuli\MODEL_filters-64_resnets-3_logmixes-12_latents-10_repeat-05_SEED02_STEP00.png,stimuli\MODEL_filters-64_resnets-3_logmixes-12_latents-10_repeat-05_SEED02_STEP01.png,stimuli\MODEL_filters-64_resnets-3_logmixes-12_latents-10_repeat-05_SEED02_STEP02.png,stimuli\MODEL_filters-64_resnets-3_logmixes-12_latents-10_repeat-05_SEED02_STEP03.png,stimuli\MODEL_filters-64_resnets-3_logmixes-12_latents-10_repeat-05_SEED02_STEP04.png,0,24,24,41,"[3, 0, 4, 2, 1]","[5, 2, 1, 4, 3]",15,24,f,y,y,2019_Apr_08_1605,gloss_ordering_task,59.94531795308531,
stimuli\MODEL_filters-64_resnets-3_logmixes-12_latents-10_repeat-05_SEED07_STEP00.png,stimuli\MODEL_filters-64_resnets-3_logmixes-12_latents-10_repeat-05_SEED07_STEP01.png,stimuli\MODEL_filters-64_resnets-3_logmixes-12_latents-10_repeat-05_SEED07_STEP02.png,stimuli\MODEL_filters-64_resnets-3_logmixes-12_latents-10_repeat-05_SEED07_STEP03.png,stimuli\MODEL_filters-64_resnets-3_logmixes-12_latents-10_repeat-05_SEED07_STEP04.png,0,25,25,46,"[4, 0, 1, 3, 2]","[2, 5, 4, 1, 3]",15,24,f,y,y,2019_Apr_08_1605,gloss_ordering_task,59.94531795308531,
stimuli\MODEL_filters-64_resnets-3_logmixes-12_latents-10_repeat-04_SEED03_STEP00.png,stimuli\MODEL_filters-64_resnets-3_logmixes-12_latents-10_repeat-04_SEED03_STEP01.png,stimuli\MODEL_filters-64_resnets-3_logmixes-12_latents-10_repeat-04_SEED03_STEP02.png,stimuli\MODEL_filters-64_resnets-3_logmixes-12_latents-10_repeat-04_SEED03_STEP03.png,stimuli\MODEL_filters-64_resnets-3_logmixes-12_latents-10_repeat-04_SEED03_STEP04.png,0,26,26,34,"[3, 4, 1, 0, 2]","[1, 2, 3, 4, 5]",15,24,f,y,y,2019_Apr_08_1605,gloss_ordering_task,59.94531795308531,
stimuli\MODEL_filters-64_resnets-3_logmixes-12_latents-10_repeat-02_SEED02_STEP00.png,stimuli\MODEL_filters-64_resnets-3_logmixes-12_latents-10_repeat-02_SEED02_STEP01.png,stimuli\MODEL_filters-64_resnets-3_logmixes-12_latents-10_repeat-02_SEED02_STEP02.png,stimuli\MODEL_filters-64_resnets-3_logmixes-12_latents-10_repeat-02_SEED02_STEP03.png,stimuli\MODEL_filters-64_resnets-3_logmixes-12_latents-10_repeat-02_SEED02_STEP04.png,0,27,27,17,"[0, 4, 1, 2, 3]","[1, 2, 3, 5, 4]",15,24,f,y,y,2019_Apr_08_1605,gloss_ordering_task,59.94531795308531,
stimuli\MODEL_filters-64_resnets-3_logmixes-12_latents-10_repeat-03_SEED00_STEP00.png,stimuli\MODEL_filters-64_resnets-3_logmixes-12_latents-10_repeat-03_SEED00_STEP01.png,stimuli\MODEL_filters-64_resnets-3_logmixes-12_latents-10_repeat-03_SEED00_STEP02.png,stimuli\MODEL_filters-64_resnets-3_logmixes-12_latents-10_repeat-03_SEED00_STEP03.png,stimuli\MODEL_filters-64_resnets-3_logmixes-12_latents-10_repeat-03_SEED00_STEP04.png,0,28,28,24,"[4, 2, 3, 1, 0]","[1, 2, 3, 4, 5]",15,24,f,y,y,2019_Apr_08_1605,gloss_ordering_task,59.94531795308531,
stimuli\MODEL_filters-64_resnets-3_logmixes-12_latents-10_repeat-00_SEED00_STEP00.png,stimuli\MODEL_filters-64_resnets-3_logmixes-12_latents-10_repeat-00_SEED00_STEP01.png,stimuli\MODEL_filters-64_resnets-3_logmixes-12_latents-10_repeat-00_SEED00_STEP02.png,stimuli\MODEL_filters-64_resnets-3_logmixes-12_latents-10_repeat-00_SEED00_STEP03.png,stimuli\MODEL_filters-64_resnets-3_logmixes-12_latents-10_repeat-00_SEED00_STEP04.png,0,29,29,0,"[4, 0, 3, 2, 1]","[1, 4, 2, 3, 5]",15,24,f,y,y,2019_Apr_08_1605,gloss_ordering_task,59.94531795308531,
stimuli\MODEL_filters-64_resnets-3_logmixes-12_latents-10_repeat-00_SEED09_STEP00.png,stimuli\MODEL_filters-64_resnets-3_logmixes-12_latents-10_repeat-00_SEED09_STEP01.png,stimuli\MODEL_filters-64_resnets-3_logmixes-12_latents-10_repeat-00_SEED09_STEP02.png,stimuli\MODEL_filters-64_resnets-3_logmixes-12_latents-10_repeat-00_SEED09_STEP03.png,stimuli\MODEL_filters-64_resnets-3_logmixes-12_latents-10_repeat-00_SEED09_STEP04.png,0,30,30,7,"[2, 1, 3, 4, 0]","[2, 1, 4, 3, 5]",15,24,f,y,y,2019_Apr_08_1605,gloss_ordering_task,59.94531795308531,
stimuli\MODEL_filters-64_resnets-3_logmixes-12_latents-10_repeat-01_SEED09_STEP00.png,stimuli\MODEL_filters-64_resnets-3_logmixes-12_latents-10_repeat-01_SEED09_STEP01.png,stimuli\MODEL_filters-64_resnets-3_logmixes-12_latents-10_repeat-01_SEED09_STEP02.png,stimuli\MODEL_filters-64_resnets-3_logmixes-12_latents-10_repeat-01_SEED09_STEP03.png,stimuli\MODEL_filters-64_resnets-3_logmixes-12_latents-10_repeat-01_SEED09_STEP04.png,0,31,31,15,"[3, 0, 4, 2, 1]","[1, 2, 3, 4, 5]",15,24,f,y,y,2019_Apr_08_1605,gloss_ordering_task,59.94531795308531,
stimuli\MODEL_filters-64_resnets-3_logmixes-12_latents-10_repeat-09_SEED06_STEP00.png,stimuli\MODEL_filters-64_resnets-3_logmixes-12_latents-10_repeat-09_SEED06_STEP01.png,stimuli\MODEL_filters-64_resnets-3_logmixes-12_latents-10_repeat-09_SEED06_STEP02.png,stimuli\MODEL_filters-64_resnets-3_logmixes-12_latents-10_repeat-09_SEED06_STEP03.png,stimuli\MODEL_filters-64_resnets-3_logmixes-12_latents-10_repeat-09_SEED06_STEP04.png,0,32,32,77,"[1, 4, 0, 2, 3]","[2, 3, 1, 4, 5]",15,24,f,y,y,2019_Apr_08_1605,gloss_ordering_task,59.94531795308531,
stimuli\MODEL_filters-64_resnets-3_logmixes-12_latents-10_repeat-06_SEED06_STEP00.png,stimuli\MODEL_filters-64_resnets-3_logmixes-12_latents-10_repeat-06_SEED06_STEP01.png,stimuli\MODEL_filters-64_resnets-3_logmixes-12_latents-10_repeat-06_SEED06_STEP02.png,stimuli\MODEL_filters-64_resnets-3_logmixes-12_latents-10_repeat-06_SEED06_STEP03.png,stimuli\MODEL_filters-64_resnets-3_logmixes-12_latents-10_repeat-06_SEED06_STEP04.png,0,33,33,53,"[2, 3, 0, 4, 1]","[3, 4, 1, 2, 5]",15,24,f,y,y,2019_Apr_08_1605,gloss_ordering_task,59.94531795308531,
stimuli\MODEL_filters-64_resnets-3_logmixes-12_latents-10_repeat-06_SEED09_STEP00.png,stimuli\MODEL_filters-64_resnets-3_logmixes-12_latents-10_repeat-06_SEED09_STEP01.png,stimuli\MODEL_filters-64_resnets-3_logmixes-12_latents-10_repeat-06_SEED09_STEP02.png,stimuli\MODEL_filters-64_resnets-3_logmixes-12_latents-10_repeat-06_SEED09_STEP03.png,stimuli\MODEL_filters-64_resnets-3_logmixes-12_latents-10_repeat-06_SEED09_STEP04.png,0,34,34,55,"[1, 3, 0, 4, 2]","[4, 3, 1, 2, 5]",15,24,f,y,y,2019_Apr_08_1605,gloss_ordering_task,59.94531795308531,
stimuli\MODEL_filters-64_resnets-3_logmixes-12_latents-10_repeat-09_SEED07_STEP00.png,stimuli\MODEL_filters-64_resnets-3_logmixes-12_latents-10_repeat-09_SEED07_STEP01.png,stimuli\MODEL_filters-64_resnets-3_logmixes-12_latents-10_repeat-09_SEED07_STEP02.png,stimuli\MODEL_filters-64_resnets-3_logmixes-12_latents-10_repeat-09_SEED07_STEP03.png,stimuli\MODEL_filters-64_resnets-3_logmixes-12_latents-10_repeat-09_SEED07_STEP04.png,0,35,35,78,"[1, 2, 3, 0, 4]","[2, 1, 3, 4, 5]",15,24,f,y,y,2019_Apr_08_1605,gloss_ordering_task,59.94531795308531,
stimuli\MODEL_filters-64_resnets-3_logmixes-12_latents-10_repeat-03_SEED04_STEP00.png,stimuli\MODEL_filters-64_resnets-3_logmixes-12_latents-10_repeat-03_SEED04_STEP01.png,stimuli\MODEL_filters-64_resnets-3_logmixes-12_latents-10_repeat-03_SEED04_STEP02.png,stimuli\MODEL_filters-64_resnets-3_logmixes-12_latents-10_repeat-03_SEED04_STEP03.png,stimuli\MODEL_filters-64_resnets-3_logmixes-12_latents-10_repeat-03_SEED04_STEP04.png,0,36,36,27,"[2, 0, 3, 1, 4]","[1, 2, 3, 4, 5]",15,24,f,y,y,2019_Apr_08_1605,gloss_ordering_task,59.94531795308531,
stimuli\MODEL_filters-64_resnets-3_logmixes-12_latents-10_repeat-08_SEED03_STEP00.png,stimuli\MODEL_filters-64_resnets-3_logmixes-12_latents-10_repeat-08_SEED03_STEP01.png,stimuli\MODEL_filters-64_resnets-3_logmixes-12_latents-10_repeat-08_SEED03_STEP02.png,stimuli\MODEL_filters-64_resnets-3_logmixes-12_latents-10_repeat-08_SEED03_STEP03.png,stimuli\MODEL_filters-64_resnets-3_logmixes-12_latents-10_repeat-08_SEED03_STEP04.png,0,37,37,66,"[4, 0, 1, 3, 2]","[1, 2, 3, 4, 5]",15,24,f,y,y,2019_Apr_08_1605,gloss_ordering_task,59.94531795308531,
stimuli\MODEL_filters-64_resnets-3_logmixes-12_latents-10_repeat-01_SEED03_STEP00.png,stimuli\MODEL_filters-64_resnets-3_logmixes-12_latents-10_repeat-01_SEED03_STEP01.png,stimuli\MODEL_filters-64_resnets-3_logmixes-12_latents-10_repeat-01_SEED03_STEP02.png,stimuli\MODEL_filters-64_resnets-3_logmixes-12_latents-10_repeat-01_SEED03_STEP03.png,stimuli\MODEL_filters-64_resnets-3_logmixes-12_latents-10_repeat-01_SEED03_STEP04.png,0,38,38,10,"[4, 1, 3, 2, 0]","[2, 1, 3, 4, 5]",15,24,f,y,y,2019_Apr_08_1605,gloss_ordering_task,59.94531795308531,
stimuli\MODEL_filters-64_resnets-3_logmixes-12_latents-10_repeat-05_SEED00_STEP00.png,stimuli\MODEL_filters-64_resnets-3_logmixes-12_latents-10_repeat-05_SEED00_STEP01.png,stimuli\MODEL_filters-64_resnets-3_logmixes-12_latents-10_repeat-05_SEED00_STEP02.png,stimuli\MODEL_filters-64_resnets-3_logmixes-12_latents-10_repeat-05_SEED00_STEP03.png,stimuli\MODEL_filters-64_resnets-3_logmixes-12_latents-10_repeat-05_SEED00_STEP04.png,0,39,39,40,"[0, 4, 3, 2, 1]","[4, 2, 1, 5, 3]",15,24,f,y,y,2019_Apr_08_1605,gloss_ordering_task,59.94531795308531,
stimuli\MODEL_filters-64_resnets-3_logmixes-12_latents-10_repeat-07_SEED03_STEP00.png,stimuli\MODEL_filters-64_resnets-3_logmixes-12_latents-10_repeat-07_SEED03_STEP01.png,stimuli\MODEL_filters-64_resnets-3_logmixes-12_latents-10_repeat-07_SEED03_STEP02.png,stimuli\MODEL_filters-64_resnets-3_logmixes-12_latents-10_repeat-07_SEED03_STEP03.png,stimuli\MODEL_filters-64_resnets-3_logmixes-12_latents-10_repeat-07_SEED03_STEP04.png,0,40,40,58,"[4, 1, 3, 0, 2]","[1, 2, 3, 4, 5]",15,24,f,y,y,2019_Apr_08_1605,gloss_ordering_task,59.94531795308531,
stimuli\MODEL_filters-64_resnets-3_logmixes-12_latents-10_repeat-02_SEED09_STEP00.png,stimuli\MODEL_filters-64_resnets-3_logmixes-12_latents-10_repeat-02_SEED09_STEP01.png,stimuli\MODEL_filters-64_resnets-3_logmixes-12_latents-10_repeat-02_SEED09_STEP02.png,stimuli\MODEL_filters-64_resnets-3_logmixes-12_latents-10_repeat-02_SEED09_STEP03.png,stimuli\MODEL_filters-64_resnets-3_logmixes-12_latents-10_repeat-02_SEED09_STEP04.png,0,41,41,23,"[1, 2, 0, 4, 3]","[2, 4, 3, 1, 5]",15,24,f,y,y,2019_Apr_08_1605,gloss_ordering_task,59.94531795308531,
stimuli\MODEL_filters-64_resnets-3_logmixes-12_latents-10_repeat-06_SEED05_STEP00.png,stimuli\MODEL_filters-64_resnets-3_logmixes-12_latents-10_repeat-06_SEED05_STEP01.png,stimuli\MODEL_filters-64_resnets-3_logmixes-12_latents-10_repeat-06_SEED05_STEP02.png,stimuli\MODEL_filters-64_resnets-3_logmixes-12_latents-10_repeat-06_SEED05_STEP03.png,stimuli\MODEL_filters-64_resnets-3_logmixes-12_latents-10_repeat-06_SEED05_STEP04.png,0,42,42,52,"[0, 4, 1, 3, 2]","[1, 4, 3, 2, 5]",15,24,f,y,y,2019_Apr_08_1605,gloss_ordering_task,59.94531795308531,
stimuli\MODEL_filters-64_resnets-3_logmixes-12_latents-10_repeat-04_SEED00_STEP00.png,stimuli\MODEL_filters-64_resnets-3_logmixes-12_latents-10_repeat-04_SEED00_STEP01.png,stimuli\MODEL_filters-64_resnets-3_logmixes-12_latents-10_repeat-04_SEED00_STEP02.png,stimuli\MODEL_filters-64_resnets-3_logmixes-12_latents-10_repeat-04_SEED00_STEP03.png,stimuli\MODEL_filters-64_resnets-3_logmixes-12_latents-10_repeat-04_SEED00_STEP04.png,0,43,43,32,"[2, 3, 0, 1, 4]","[5, 2, 3, 1, 4]",15,24,f,y,y,2019_Apr_08_1605,gloss_ordering_task,59.94531795308531,
stimuli\MODEL_filters-64_resnets-3_logmixes-12_latents-10_repeat-09_SEED09_STEP00.png,stimuli\MODEL_filters-64_resnets-3_logmixes-12_latents-10_repeat-09_SEED09_STEP01.png,stimuli\MODEL_filters-64_resnets-3_logmixes-12_latents-10_repeat-09_SEED09_STEP02.png,stimuli\MODEL_filters-64_resnets-3_logmixes-12_latents-10_repeat-09_SEED09_STEP03.png,stimuli\MODEL_filters-64_resnets-3_logmixes-12_latents-10_repeat-09_SEED09_STEP04.png,0,44,44,79,"[0, 4, 3, 1, 2]","[2, 1, 3, 4, 5]",15,24,f,y,y,2019_Apr_08_1605,gloss_ordering_task,59.94531795308531,
stimuli\MODEL_filters-64_resnets-3_logmixes-12_latents-10_repeat-03_SEED03_STEP00.png,stimuli\MODEL_filters-64_resnets-3_logmixes-12_latents-10_repeat-03_SEED03_STEP01.png,stimuli\MODEL_filters-64_resnets-3_logmixes-12_latents-10_repeat-03_SEED03_STEP02.png,stimuli\MODEL_filters-64_resnets-3_logmixes-12_latents-10_repeat-03_SEED03_STEP03.png,stimuli\MODEL_filters-64_resnets-3_logmixes-12_latents-10_repeat-03_SEED03_STEP04.png,0,45,45,26,"[2, 1, 3, 4, 0]","[1, 2, 3, 4, 5]",15,24,f,y,y,2019_Apr_08_1605,gloss_ordering_task,59.94531795308531,
stimuli\MODEL_filters-64_resnets-3_logmixes-12_latents-10_repeat-05_SEED09_STEP00.png,stimuli\MODEL_filters-64_resnets-3_logmixes-12_latents-10_repeat-05_SEED09_STEP01.png,stimuli\MODEL_filters-64_resnets-3_logmixes-12_latents-10_repeat-05_SEED09_STEP02.png,stimuli\MODEL_filters-64_resnets-3_logmixes-12_latents-10_repeat-05_SEED09_STEP03.png,stimuli\MODEL_filters-64_resnets-3_logmixes-12_latents-10_repeat-05_SEED09_STEP04.png,0,46,46,47,"[3, 0, 2, 1, 4]","[4, 3, 2, 1, 5]",15,24,f,y,y,2019_Apr_08_1605,gloss_ordering_task,59.94531795308531,
stimuli\MODEL_filters-64_resnets-3_logmixes-12_latents-10_repeat-04_SEED09_STEP00.png,stimuli\MODEL_filters-64_resnets-3_logmixes-12_latents-10_repeat-04_SEED09_STEP01.png,stimuli\MODEL_filters-64_resnets-3_logmixes-12_latents-10_repeat-04_SEED09_STEP02.png,stimuli\MODEL_filters-64_resnets-3_logmixes-12_latents-10_repeat-04_SEED09_STEP03.png,stimuli\MODEL_filters-64_resnets-3_logmixes-12_latents-10_repeat-04_SEED09_STEP04.png,0,47,47,39,"[0, 2, 3, 1, 4]","[4, 5, 3, 2, 1]",15,24,f,y,y,2019_Apr_08_1605,gloss_ordering_task,59.94531795308531,
stimuli\MODEL_filters-64_resnets-3_logmixes-12_latents-10_repeat-08_SEED04_STEP00.png,stimuli\MODEL_filters-64_resnets-3_logmixes-12_latents-10_repeat-08_SEED04_STEP01.png,stimuli\MODEL_filters-64_resnets-3_logmixes-12_latents-10_repeat-08_SEED04_STEP02.png,stimuli\MODEL_filters-64_resnets-3_logmixes-12_latents-10_repeat-08_SEED04_STEP03.png,stimuli\MODEL_filters-64_resnets-3_logmixes-12_latents-10_repeat-08_SEED04_STEP04.png,0,48,48,67,"[1, 0, 2, 4, 3]","[3, 4, 5, 1, 2]",15,24,f,y,y,2019_Apr_08_1605,gloss_ordering_task,59.94531795308531,
stimuli\MODEL_filters-64_resnets-3_logmixes-12_latents-10_repeat-05_SEED05_STEP00.png,stimuli\MODEL_filters-64_resnets-3_logmixes-12_latents-10_repeat-05_SEED05_STEP01.png,stimuli\MODEL_filters-64_resnets-3_logmixes-12_latents-10_repeat-05_SEED05_STEP02.png,stimuli\MODEL_filters-64_resnets-3_logmixes-12_latents-10_repeat-05_SEED05_STEP03.png,stimuli\MODEL_filters-64_resnets-3_logmixes-12_latents-10_repeat-05_SEED05_STEP04.png,0,49,49,44,"[3, 0, 2, 4, 1]","[4, 2, 3, 5, 1]",15,24,f,y,y,2019_Apr_08_1605,gloss_ordering_task,59.94531795308531,
stimuli\MODEL_filters-64_resnets-3_logmixes-12_latents-10_repeat-08_SEED07_STEP00.png,stimuli\MODEL_filters-64_resnets-3_logmixes-12_latents-10_repeat-08_SEED07_STEP01.png,stimuli\MODEL_filters-64_resnets-3_logmixes-12_latents-10_repeat-08_SEED07_STEP02.png,stimuli\MODEL_filters-64_resnets-3_logmixes-12_latents-10_repeat-08_SEED07_STEP03.png,stimuli\MODEL_filters-64_resnets-3_logmixes-12_latents-10_repeat-08_SEED07_STEP04.png,0,50,50,70,"[3, 4, 2, 1, 0]","[2, 3, 1, 4, 5]",15,24,f,y,y,2019_Apr_08_1605,gloss_ordering_task,59.94531795308531,
stimuli\MODEL_filters-64_resnets-3_logmixes-12_latents-10_repeat-08_SEED02_STEP00.png,stimuli\MODEL_filters-64_resnets-3_logmixes-12_latents-10_repeat-08_SEED02_STEP01.png,stimuli\MODEL_filters-64_resnets-3_logmixes-12_latents-10_repeat-08_SEED02_STEP02.png,stimuli\MODEL_filters-64_resnets-3_logmixes-12_latents-10_repeat-08_SEED02_STEP03.png,stimuli\MODEL_filters-64_resnets-3_logmixes-12_latents-10_repeat-08_SEED02_STEP04.png,0,51,51,65,"[0, 1, 2, 3, 4]","[1, 4, 3, 2, 5]",15,24,f,y,y,2019_Apr_08_1605,gloss_ordering_task,59.94531795308531,
stimuli\MODEL_filters-64_resnets-3_logmixes-12_latents-10_repeat-07_SEED07_STEP00.png,stimuli\MODEL_filters-64_resnets-3_logmixes-12_latents-10_repeat-07_SEED07_STEP01.png,stimuli\MODEL_filters-64_resnets-3_logmixes-12_latents-10_repeat-07_SEED07_STEP02.png,stimuli\MODEL_filters-64_resnets-3_logmixes-12_latents-10_repeat-07_SEED07_STEP03.png,stimuli\MODEL_filters-64_resnets-3_logmixes-12_latents-10_repeat-07_SEED07_STEP04.png,0,52,52,62,"[2, 0, 4, 3, 1]","[3, 1, 2, 5, 4]",15,24,f,y,y,2019_Apr_08_1605,gloss_ordering_task,59.94531795308531,
stimuli\MODEL_filters-64_resnets-3_logmixes-12_latents-10_repeat-00_SEED03_STEP00.png,stimuli\MODEL_filters-64_resnets-3_logmixes-12_latents-10_repeat-00_SEED03_STEP01.png,stimuli\MODEL_filters-64_resnets-3_logmixes-12_latents-10_repeat-00_SEED03_STEP02.png,stimuli\MODEL_filters-64_resnets-3_logmixes-12_latents-10_repeat-00_SEED03_STEP03.png,stimuli\MODEL_filters-64_resnets-3_logmixes-12_latents-10_repeat-00_SEED03_STEP04.png,0,53,53,2,"[1, 3, 4, 2, 0]","[2, 1, 4, 3, 5]",15,24,f,y,y,2019_Apr_08_1605,gloss_ordering_task,59.94531795308531,
stimuli\MODEL_filters-64_resnets-3_logmixes-12_latents-10_repeat-09_SEED04_STEP00.png,stimuli\MODEL_filters-64_resnets-3_logmixes-12_latents-10_repeat-09_SEED04_STEP01.png,stimuli\MODEL_filters-64_resnets-3_logmixes-12_latents-10_repeat-09_SEED04_STEP02.png,stimuli\MODEL_filters-64_resnets-3_logmixes-12_latents-10_repeat-09_SEED04_STEP03.png,stimuli\MODEL_filters-64_resnets-3_logmixes-12_latents-10_repeat-09_SEED04_STEP04.png,0,54,54,75,"[1, 3, 0, 2, 4]","[4, 1, 3, 2, 5]",15,24,f,y,y,2019_Apr_08_1605,gloss_ordering_task,59.94531795308531,
stimuli\MODEL_filters-64_resnets-3_logmixes-12_latents-10_repeat-02_SEED05_STEP00.png,stimuli\MODEL_filters-64_resnets-3_logmixes-12_latents-10_repeat-02_SEED05_STEP01.png,stimuli\MODEL_filters-64_resnets-3_logmixes-12_latents-10_repeat-02_SEED05_STEP02.png,stimuli\MODEL_filters-64_resnets-3_logmixes-12_latents-10_repeat-02_SEED05_STEP03.png,stimuli\MODEL_filters-64_resnets-3_logmixes-12_latents-10_repeat-02_SEED05_STEP04.png,0,55,55,20,"[2, 4, 0, 1, 3]","[2, 3, 4, 1, 5]",15,24,f,y,y,2019_Apr_08_1605,gloss_ordering_task,59.94531795308531,
stimuli\MODEL_filters-64_resnets-3_logmixes-12_latents-10_repeat-03_SEED05_STEP00.png,stimuli\MODEL_filters-64_resnets-3_logmixes-12_latents-10_repeat-03_SEED05_STEP01.png,stimuli\MODEL_filters-64_resnets-3_logmixes-12_latents-10_repeat-03_SEED05_STEP02.png,stimuli\MODEL_filters-64_resnets-3_logmixes-12_latents-10_repeat-03_SEED05_STEP03.png,stimuli\MODEL_filters-64_resnets-3_logmixes-12_latents-10_repeat-03_SEED05_STEP04.png,0,56,56,28,"[3, 0, 4, 1, 2]","[1, 2, 3, 4, 5]",15,24,f,y,y,2019_Apr_08_1605,gloss_ordering_task,59.94531795308531,
stimuli\MODEL_filters-64_resnets-3_logmixes-12_latents-10_repeat-00_SEED02_STEP00.png,stimuli\MODEL_filters-64_resnets-3_logmixes-12_latents-10_repeat-00_SEED02_STEP01.png,stimuli\MODEL_filters-64_resnets-3_logmixes-12_latents-10_repeat-00_SEED02_STEP02.png,stimuli\MODEL_filters-64_resnets-3_logmixes-12_latents-10_repeat-00_SEED02_STEP03.png,stimuli\MODEL_filters-64_resnets-3_logmixes-12_latents-10_repeat-00_SEED02_STEP04.png,0,57,57,1,"[3, 4, 0, 1, 2]","[1, 3, 2, 4, 5]",15,24,f,y,y,2019_Apr_08_1605,gloss_ordering_task,59.94531795308531,
stimuli\MODEL_filters-64_resnets-3_logmixes-12_latents-10_repeat-04_SEED02_STEP00.png,stimuli\MODEL_filters-64_resnets-3_logmixes-12_latents-10_repeat-04_SEED02_STEP01.png,stimuli\MODEL_filters-64_resnets-3_logmixes-12_latents-10_repeat-04_SEED02_STEP02.png,stimuli\MODEL_filters-64_resnets-3_logmixes-12_latents-10_repeat-04_SEED02_STEP03.png,stimuli\MODEL_filters-64_resnets-3_logmixes-12_latents-10_repeat-04_SEED02_STEP04.png,0,58,58,33,"[2, 3, 4, 0, 1]","[5, 4, 3, 2, 1]",15,24,f,y,y,2019_Apr_08_1605,gloss_ordering_task,59.94531795308531,
stimuli\MODEL_filters-64_resnets-3_logmixes-12_latents-10_repeat-04_SEED07_STEP00.png,stimuli\MODEL_filters-64_resnets-3_logmixes-12_latents-10_repeat-04_SEED07_STEP01.png,stimuli\MODEL_filters-64_resnets-3_logmixes-12_latents-10_repeat-04_SEED07_STEP02.png,stimuli\MODEL_filters-64_resnets-3_logmixes-12_latents-10_repeat-04_SEED07_STEP03.png,stimuli\MODEL_filters-64_resnets-3_logmixes-12_latents-10_repeat-04_SEED07_STEP04.png,0,59,59,38,"[1, 0, 2, 3, 4]","[5, 4, 3, 1, 2]",15,24,f,y,y,2019_Apr_08_1605,gloss_ordering_task,59.94531795308531,
stimuli\MODEL_filters-64_resnets-3_logmixes-12_latents-10_repeat-07_SEED00_STEP00.png,stimuli\MODEL_filters-64_resnets-3_logmixes-12_latents-10_repeat-07_SEED00_STEP01.png,stimuli\MODEL_filters-64_resnets-3_logmixes-12_latents-10_repeat-07_SEED00_STEP02.png,stimuli\MODEL_filters-64_resnets-3_logmixes-12_latents-10_repeat-07_SEED00_STEP03.png,stimuli\MODEL_filters-64_resnets-3_logmixes-12_latents-10_repeat-07_SEED00_STEP04.png,0,60,60,56,"[1, 0, 3, 4, 2]","[1, 2, 5, 3, 4]",15,24,f,y,y,2019_Apr_08_1605,gloss_ordering_task,59.94531795308531,
stimuli\MODEL_filters-64_resnets-3_logmixes-12_latents-10_repeat-01_SEED04_STEP00.png,stimuli\MODEL_filters-64_resnets-3_logmixes-12_latents-10_repeat-01_SEED04_STEP01.png,stimuli\MODEL_filters-64_resnets-3_logmixes-12_latents-10_repeat-01_SEED04_STEP02.png,stimuli\MODEL_filters-64_resnets-3_logmixes-12_latents-10_repeat-01_SEED04_STEP03.png,stimuli\MODEL_filters-64_resnets-3_logmixes-12_latents-10_repeat-01_SEED04_STEP04.png,0,61,61,11,"[3, 1, 2, 4, 0]","[3, 2, 1, 4, 5]",15,24,f,y,y,2019_Apr_08_1605,gloss_ordering_task,59.94531795308531,
stimuli\MODEL_filters-64_resnets-3_logmixes-12_latents-10_repeat-00_SEED06_STEP00.png,stimuli\MODEL_filters-64_resnets-3_logmixes-12_latents-10_repeat-00_SEED06_STEP01.png,stimuli\MODEL_filters-64_resnets-3_logmixes-12_latents-10_repeat-00_SEED06_STEP02.png,stimuli\MODEL_filters-64_resnets-3_logmixes-12_latents-10_repeat-00_SEED06_STEP03.png,stimuli\MODEL_filters-64_resnets-3_logmixes-12_latents-10_repeat-00_SEED06_STEP04.png,0,62,62,5,"[0, 4, 3, 2, 1]","[2, 1, 4, 5, 3]",15,24,f,y,y,2019_Apr_08_1605,gloss_ordering_task,59.94531795308531,
stimuli\MODEL_filters-64_resnets-3_logmixes-12_latents-10_repeat-07_SEED02_STEP00.png,stimuli\MODEL_filters-64_resnets-3_logmixes-12_latents-10_repeat-07_SEED02_STEP01.png,stimuli\MODEL_filters-64_resnets-3_logmixes-12_latents-10_repeat-07_SEED02_STEP02.png,stimuli\MODEL_filters-64_resnets-3_logmixes-12_latents-10_repeat-07_SEED02_STEP03.png,stimuli\MODEL_filters-64_resnets-3_logmixes-12_latents-10_repeat-07_SEED02_STEP04.png,0,63,63,57,"[2, 1, 4, 3, 0]","[2, 1, 3, 4, 5]",15,24,f,y,y,2019_Apr_08_1605,gloss_ordering_task,59.94531795308531,
stimuli\MODEL_filters-64_resnets-3_logmixes-12_latents-10_repeat-01_SEED00_STEP00.png,stimuli\MODEL_filters-64_resnets-3_logmixes-12_latents-10_repeat-01_SEED00_STEP01.png,stimuli\MODEL_filters-64_resnets-3_logmixes-12_latents-10_repeat-01_SEED00_STEP02.png,stimuli\MODEL_filters-64_resnets-3_logmixes-12_latents-10_repeat-01_SEED00_STEP03.png,stimuli\MODEL_filters-64_resnets-3_logmixes-12_latents-10_repeat-01_SEED00_STEP04.png,0,64,64,8,"[2, 1, 0, 3, 4]","[1, 2, 3, 4, 5]",15,24,f,y,y,2019_Apr_08_1605,gloss_ordering_task,59.94531795308531,
stimuli\MODEL_filters-64_resnets-3_logmixes-12_latents-10_repeat-02_SEED07_STEP00.png,stimuli\MODEL_filters-64_resnets-3_logmixes-12_latents-10_repeat-02_SEED07_STEP01.png,stimuli\MODEL_filters-64_resnets-3_logmixes-12_latents-10_repeat-02_SEED07_STEP02.png,stimuli\MODEL_filters-64_resnets-3_logmixes-12_latents-10_repeat-02_SEED07_STEP03.png,stimuli\MODEL_filters-64_resnets-3_logmixes-12_latents-10_repeat-02_SEED07_STEP04.png,0,65,65,22,"[0, 3, 1, 4, 2]","[1, 3, 2, 4, 5]",15,24,f,y,y,2019_Apr_08_1605,gloss_ordering_task,59.94531795308531,
stimuli\MODEL_filters-64_resnets-3_logmixes-12_latents-10_repeat-07_SEED06_STEP00.png,stimuli\MODEL_filters-64_resnets-3_logmixes-12_latents-10_repeat-07_SEED06_STEP01.png,stimuli\MODEL_filters-64_resnets-3_logmixes-12_latents-10_repeat-07_SEED06_STEP02.png,stimuli\MODEL_filters-64_resnets-3_logmixes-12_latents-10_repeat-07_SEED06_STEP03.png,stimuli\MODEL_filters-64_resnets-3_logmixes-12_latents-10_repeat-07_SEED06_STEP04.png,0,66,66,61,"[0, 3, 4, 2, 1]","[1, 4, 2, 5, 3]",15,24,f,y,y,2019_Apr_08_1605,gloss_ordering_task,59.94531795308531,
stimuli\MODEL_filters-64_resnets-3_logmixes-12_latents-10_repeat-01_SEED05_STEP00.png,stimuli\MODEL_filters-64_resnets-3_logmixes-12_latents-10_repeat-01_SEED05_STEP01.png,stimuli\MODEL_filters-64_resnets-3_logmixes-12_latents-10_repeat-01_SEED05_STEP02.png,stimuli\MODEL_filters-64_resnets-3_logmixes-12_latents-10_repeat-01_SEED05_STEP03.png,stimuli\MODEL_filters-64_resnets-3_logmixes-12_latents-10_repeat-01_SEED05_STEP04.png,0,67,67,12,"[0, 4, 3, 1, 2]","[1, 2, 3, 4, 5]",15,24,f,y,y,2019_Apr_08_1605,gloss_ordering_task,59.94531795308531,
stimuli\MODEL_filters-64_resnets-3_logmixes-12_latents-10_repeat-02_SEED06_STEP00.png,stimuli\MODEL_filters-64_resnets-3_logmixes-12_latents-10_repeat-02_SEED06_STEP01.png,stimuli\MODEL_filters-64_resnets-3_logmixes-12_latents-10_repeat-02_SEED06_STEP02.png,stimuli\MODEL_filters-64_resnets-3_logmixes-12_latents-10_repeat-02_SEED06_STEP03.png,stimuli\MODEL_filters-64_resnets-3_logmixes-12_latents-10_repeat-02_SEED06_STEP04.png,0,68,68,21,"[1, 2, 0, 4, 3]","[2, 1, 3, 4, 5]",15,24,f,y,y,2019_Apr_08_1605,gloss_ordering_task,59.94531795308531,
stimuli\MODEL_filters-64_resnets-3_logmixes-12_latents-10_repeat-03_SEED06_STEP00.png,stimuli\MODEL_filters-64_resnets-3_logmixes-12_latents-10_repeat-03_SEED06_STEP01.png,stimuli\MODEL_filters-64_resnets-3_logmixes-12_latents-10_repeat-03_SEED06_STEP02.png,stimuli\MODEL_filters-64_resnets-3_logmixes-12_latents-10_repeat-03_SEED06_STEP03.png,stimuli\MODEL_filters-64_resnets-3_logmixes-12_latents-10_repeat-03_SEED06_STEP04.png,0,69,69,29,"[3, 2, 0, 4, 1]","[1, 3, 2, 4, 5]",15,24,f,y,y,2019_Apr_08_1605,gloss_ordering_task,59.94531795308531,
stimuli\MODEL_filters-64_resnets-3_logmixes-12_latents-10_repeat-08_SEED00_STEP00.png,stimuli\MODEL_filters-64_resnets-3_logmixes-12_latents-10_repeat-08_SEED00_STEP01.png,stimuli\MODEL_filters-64_resnets-3_logmixes-12_latents-10_repeat-08_SEED00_STEP02.png,stimuli\MODEL_filters-64_resnets-3_logmixes-12_latents-10_repeat-08_SEED00_STEP03.png,stimuli\MODEL_filters-64_resnets-3_logmixes-12_latents-10_repeat-08_SEED00_STEP04.png,0,70,70,64,"[0, 3, 2, 4, 1]","[1, 2, 3, 4, 5]",15,24,f,y,y,2019_Apr_08_1605,gloss_ordering_task,59.94531795308531,
stimuli\MODEL_filters-64_resnets-3_logmixes-12_latents-10_repeat-09_SEED00_STEP00.png,stimuli\MODEL_filters-64_resnets-3_logmixes-12_latents-10_repeat-09_SEED00_STEP01.png,stimuli\MODEL_filters-64_resnets-3_logmixes-12_latents-10_repeat-09_SEED00_STEP02.png,stimuli\MODEL_filters-64_resnets-3_logmixes-12_latents-10_repeat-09_SEED00_STEP03.png,stimuli\MODEL_filters-64_resnets-3_logmixes-12_latents-10_repeat-09_SEED00_STEP04.png,0,71,71,72,"[3, 0, 1, 4, 2]","[1, 2, 3, 4, 5]",15,24,f,y,y,2019_Apr_08_1605,gloss_ordering_task,59.94531795308531,
stimuli\MODEL_filters-64_resnets-3_logmixes-12_latents-10_repeat-09_SEED02_STEP00.png,stimuli\MODEL_filters-64_resnets-3_logmixes-12_latents-10_repeat-09_SEED02_STEP01.png,stimuli\MODEL_filters-64_resnets-3_logmixes-12_latents-10_repeat-09_SEED02_STEP02.png,stimuli\MODEL_filters-64_resnets-3_logmixes-12_latents-10_repeat-09_SEED02_STEP03.png,stimuli\MODEL_filters-64_resnets-3_logmixes-12_latents-10_repeat-09_SEED02_STEP04.png,0,72,72,73,"[4, 1, 0, 3, 2]","[2, 1, 3, 4, 5]",15,24,f,y,y,2019_Apr_08_1605,gloss_ordering_task,59.94531795308531,
stimuli\MODEL_filters-64_resnets-3_logmixes-12_latents-10_repeat-02_SEED03_STEP00.png,stimuli\MODEL_filters-64_resnets-3_logmixes-12_latents-10_repeat-02_SEED03_STEP01.png,stimuli\MODEL_filters-64_resnets-3_logmixes-12_latents-10_repeat-02_SEED03_STEP02.png,stimuli\MODEL_filters-64_resnets-3_logmixes-12_latents-10_repeat-02_SEED03_STEP03.png,stimuli\MODEL_filters-64_resnets-3_logmixes-12_latents-10_repeat-02_SEED03_STEP04.png,0,73,73,18,"[2, 4, 3, 1, 0]","[1, 2, 3, 4, 5]",15,24,f,y,y,2019_Apr_08_1605,gloss_ordering_task,59.94531795308531,
stimuli\MODEL_filters-64_resnets-3_logmixes-12_latents-10_repeat-02_SEED00_STEP00.png,stimuli\MODEL_filters-64_resnets-3_logmixes-12_latents-10_repeat-02_SEED00_STEP01.png,stimuli\MODEL_filters-64_resnets-3_logmixes-12_latents-10_repeat-02_SEED00_STEP02.png,stimuli\MODEL_filters-64_resnets-3_logmixes-12_latents-10_repeat-02_SEED00_STEP03.png,stimuli\MODEL_filters-64_resnets-3_logmixes-12_latents-10_repeat-02_SEED00_STEP04.png,0,74,74,16,"[4, 2, 0, 1, 3]","[1, 2, 3, 4, 5]",15,24,f,y,y,2019_Apr_08_1605,gloss_ordering_task,59.94531795308531,
stimuli\MODEL_filters-64_resnets-3_logmixes-12_latents-10_repeat-08_SEED06_STEP00.png,stimuli\MODEL_filters-64_resnets-3_logmixes-12_latents-10_repeat-08_SEED06_STEP01.png,stimuli\MODEL_filters-64_resnets-3_logmixes-12_latents-10_repeat-08_SEED06_STEP02.png,stimuli\MODEL_filters-64_resnets-3_logmixes-12_latents-10_repeat-08_SEED06_STEP03.png,stimuli\MODEL_filters-64_resnets-3_logmixes-12_latents-10_repeat-08_SEED06_STEP04.png,0,75,75,69,"[1, 4, 0, 2, 3]","[3, 2, 1, 4, 5]",15,24,f,y,y,2019_Apr_08_1605,gloss_ordering_task,59.94531795308531,
stimuli\MODEL_filters-64_resnets-3_logmixes-12_latents-10_repeat-09_SEED05_STEP00.png,stimuli\MODEL_filters-64_resnets-3_logmixes-12_latents-10_repeat-09_SEED05_STEP01.png,stimuli\MODEL_filters-64_resnets-3_logmixes-12_latents-10_repeat-09_SEED05_STEP02.png,stimuli\MODEL_filters-64_resnets-3_logmixes-12_latents-10_repeat-09_SEED05_STEP03.png,stimuli\MODEL_filters-64_resnets-3_logmixes-12_latents-10_repeat-09_SEED05_STEP04.png,0,76,76,76,"[2, 0, 4, 1, 3]","[1, 2, 3, 4, 5]",15,24,f,y,y,2019_Apr_08_1605,gloss_ordering_task,59.94531795308531,
stimuli\MODEL_filters-64_resnets-3_logmixes-12_latents-10_repeat-00_SEED05_STEP00.png,stimuli\MODEL_filters-64_resnets-3_logmixes-12_latents-10_repeat-00_SEED05_STEP01.png,stimuli\MODEL_filters-64_resnets-3_logmixes-12_latents-10_repeat-00_SEED05_STEP02.png,stimuli\MODEL_filters-64_resnets-3_logmixes-12_latents-10_repeat-00_SEED05_STEP03.png,stimuli\MODEL_filters-64_resnets-3_logmixes-12_latents-10_repeat-00_SEED05_STEP04.png,0,77,77,4,"[3, 1, 4, 2, 0]","[2, 3, 1, 4, 5]",15,24,f,y,y,2019_Apr_08_1605,gloss_ordering_task,59.94531795308531,
stimuli\MODEL_filters-64_resnets-3_logmixes-12_latents-10_repeat-06_SEED02_STEP00.png,stimuli\MODEL_filters-64_resnets-3_logmixes-12_latents-10_repeat-06_SEED02_STEP01.png,stimuli\MODEL_filters-64_resnets-3_logmixes-12_latents-10_repeat-06_SEED02_STEP02.png,stimuli\MODEL_filters-64_resnets-3_logmixes-12_latents-10_repeat-06_SEED02_STEP03.png,stimuli\MODEL_filters-64_resnets-3_logmixes-12_latents-10_repeat-06_SEED02_STEP04.png,0,78,78,49,"[1, 4, 2, 0, 3]","[1, 2, 3, 5, 4]",15,24,f,y,y,2019_Apr_08_1605,gloss_ordering_task,59.94531795308531,
stimuli\MODEL_filters-64_resnets-3_logmixes-12_latents-10_repeat-08_SEED05_STEP00.png,stimuli\MODEL_filters-64_resnets-3_logmixes-12_latents-10_repeat-08_SEED05_STEP01.png,stimuli\MODEL_filters-64_resnets-3_logmixes-12_latents-10_repeat-08_SEED05_STEP02.png,stimuli\MODEL_filters-64_resnets-3_logmixes-12_latents-10_repeat-08_SEED05_STEP03.png,stimuli\MODEL_filters-64_resnets-3_logmixes-12_latents-10_repeat-08_SEED05_STEP04.png,0,79,79,68,"[1, 2, 4, 3, 0]","[1, 3, 2, 4, 5]",15,24,f,y,y,2019_Apr_08_1605,gloss_ordering_task,59.94531795308531,
