stimOne,stimTwo,trials_1.thisRepN,trials_1.thisTrialN,trials_1.thisN,trials_1.thisIndex,presentation_positions,resp_key,corresponding_image,participant ID (two digits, e.g. 01),age,gender (m/f/-),normal or corrected-to-normal vision (y/n),normal colour vision (y/n),date,expName,frameRate,
stimuli/rgb_scene000056_render000000.png,stimuli/rgb_scene000056_render000004.png,0,0,0,45,"[0, 1]",right,1,01,35,m,y,n,2019_Jul_12_1235,2AFC_task,59.95308071945958,
stimuli/rgb_scene000056_render000001.png,stimuli/rgb_scene000056_render000006.png,0,1,1,52,"[1, 0]",left,1,01,35,m,y,n,2019_Jul_12_1235,2AFC_task,59.95308071945958,
stimuli/rgb_scene000047_render000001.png,stimuli/rgb_scene000047_render000004.png,0,2,2,29,"[0, 1]",right,1,01,35,m,y,n,2019_Jul_12_1235,2AFC_task,59.95308071945958,
stimuli/rgb_scene000056_render000001.png,stimuli/rgb_scene000056_render000005.png,0,3,3,51,"[0, 1]",right,1,01,35,m,y,n,2019_Jul_12_1235,2AFC_task,59.95308071945958,
stimuli/rgb_scene000196_render000002.png,stimuli/rgb_scene000196_render000003.png,0,4,4,200,"[0, 1]",left,0,01,35,m,y,n,2019_Jul_12_1235,2AFC_task,59.95308071945958,
stimuli/rgb_scene000147_render000000.png,stimuli/rgb_scene000147_render000003.png,0,5,5,86,"[0, 1]",right,1,01,35,m,y,n,2019_Jul_12_1235,2AFC_task,59.95308071945958,
stimuli/rgb_scene000056_render000000.png,stimuli/rgb_scene000056_render000005.png,0,6,6,46,"[0, 1]",right,1,01,35,m,y,n,2019_Jul_12_1235,2AFC_task,59.95308071945958,
stimuli/rgb_scene000066_render000003.png,stimuli/rgb_scene000066_render000006.png,0,7,7,80,"[0, 1]",right,1,01,35,m,y,n,2019_Jul_12_1235,2AFC_task,59.95308071945958,
stimuli/rgb_scene000169_render000004.png,stimuli/rgb_scene000169_render000006.png,0,8,8,187,"[0, 1]",right,1,01,35,m,y,n,2019_Jul_12_1235,2AFC_task,59.95308071945958,
stimuli/rgb_scene000042_render000002.png,stimuli/rgb_scene000042_render000005.png,0,9,9,13,"[1, 0]",left,1,01,35,m,y,n,2019_Jul_12_1235,2AFC_task,59.95308071945958,
stimuli/rgb_scene000169_render000003.png,stimuli/rgb_scene000169_render000004.png,0,10,10,183,"[0, 1]",right,1,01,35,m,y,n,2019_Jul_12_1235,2AFC_task,59.95308071945958,
stimuli/rgb_scene000042_render000004.png,stimuli/rgb_scene000042_render000005.png,0,11,11,18,"[1, 0]",left,1,01,35,m,y,n,2019_Jul_12_1235,2AFC_task,59.95308071945958,
stimuli/rgb_scene000165_render000000.png,stimuli/rgb_scene000165_render000001.png,0,12,12,147,"[0, 1]",right,1,01,35,m,y,n,2019_Jul_12_1235,2AFC_task,59.95308071945958,
stimuli/rgb_scene000042_render000003.png,stimuli/rgb_scene000042_render000006.png,0,13,13,17,"[1, 0]",left,1,01,35,m,y,n,2019_Jul_12_1235,2AFC_task,59.95308071945958,
stimuli/rgb_scene000165_render000001.png,stimuli/rgb_scene000165_render000004.png,0,14,14,155,"[0, 1]",right,1,01,35,m,y,n,2019_Jul_12_1235,2AFC_task,59.95308071945958,
stimuli/rgb_scene000066_render000001.png,stimuli/rgb_scene000066_render000002.png,0,15,15,69,"[0, 1]",right,1,01,35,m,y,n,2019_Jul_12_1235,2AFC_task,59.95308071945958,
stimuli/rgb_scene000066_render000001.png,stimuli/rgb_scene000066_render000003.png,0,16,16,70,"[0, 1]",right,1,01,35,m,y,n,2019_Jul_12_1235,2AFC_task,59.95308071945958,
stimuli/rgb_scene000047_render000001.png,stimuli/rgb_scene000047_render000005.png,0,17,17,30,"[0, 1]",right,1,01,35,m,y,n,2019_Jul_12_1235,2AFC_task,59.95308071945958,
stimuli/rgb_scene000047_render000001.png,stimuli/rgb_scene000047_render000006.png,0,18,18,31,"[0, 1]",right,1,01,35,m,y,n,2019_Jul_12_1235,2AFC_task,59.95308071945958,
stimuli/rgb_scene000165_render000001.png,stimuli/rgb_scene000165_render000006.png,0,19,19,157,"[0, 1]",right,1,01,35,m,y,n,2019_Jul_12_1235,2AFC_task,59.95308071945958,
stimuli/rgb_scene000042_render000005.png,stimuli/rgb_scene000042_render000006.png,0,20,20,20,"[0, 1]",right,1,01,35,m,y,n,2019_Jul_12_1235,2AFC_task,59.95308071945958,
stimuli/rgb_scene000056_render000000.png,stimuli/rgb_scene000056_render000003.png,0,21,21,44,"[1, 0]",left,1,01,35,m,y,n,2019_Jul_12_1235,2AFC_task,59.95308071945958,
stimuli/rgb_scene000160_render000002.png,stimuli/rgb_scene000160_render000003.png,0,22,22,137,"[1, 0]",left,1,01,35,m,y,n,2019_Jul_12_1235,2AFC_task,59.95308071945958,
stimuli/rgb_scene000160_render000005.png,stimuli/rgb_scene000160_render000006.png,0,23,23,146,"[0, 1]",right,1,01,35,m,y,n,2019_Jul_12_1235,2AFC_task,59.95308071945958,
stimuli/rgb_scene000196_render000001.png,stimuli/rgb_scene000196_render000002.png,0,24,24,195,"[1, 0]",left,1,01,35,m,y,n,2019_Jul_12_1235,2AFC_task,59.95308071945958,
stimuli/rgb_scene000196_render000001.png,stimuli/rgb_scene000196_render000003.png,0,25,25,196,"[1, 0]",left,1,01,35,m,y,n,2019_Jul_12_1235,2AFC_task,59.95308071945958,
stimuli/rgb_scene000165_render000000.png,stimuli/rgb_scene000165_render000003.png,0,26,26,149,"[1, 0]",left,1,01,35,m,y,n,2019_Jul_12_1235,2AFC_task,59.95308071945958,
stimuli/rgb_scene000150_render000000.png,stimuli/rgb_scene000150_render000002.png,0,27,27,106,"[0, 1]",right,1,01,35,m,y,n,2019_Jul_12_1235,2AFC_task,59.95308071945958,
stimuli/rgb_scene000196_render000000.png,stimuli/rgb_scene000196_render000001.png,0,28,28,189,"[1, 0]",left,1,01,35,m,y,n,2019_Jul_12_1235,2AFC_task,59.95308071945958,
stimuli/rgb_scene000165_render000002.png,stimuli/rgb_scene000165_render000004.png,0,29,29,159,"[0, 1]",right,1,01,35,m,y,n,2019_Jul_12_1235,2AFC_task,59.95308071945958,
stimuli/rgb_scene000047_render000003.png,stimuli/rgb_scene000047_render000005.png,0,30,30,37,"[0, 1]",right,1,01,35,m,y,n,2019_Jul_12_1235,2AFC_task,59.95308071945958,
stimuli/rgb_scene000169_render000003.png,stimuli/rgb_scene000169_render000006.png,0,31,31,185,"[0, 1]",right,1,01,35,m,y,n,2019_Jul_12_1235,2AFC_task,59.95308071945958,
stimuli/rgb_scene000147_render000001.png,stimuli/rgb_scene000147_render000005.png,0,32,32,93,"[1, 0]",left,1,01,35,m,y,n,2019_Jul_12_1235,2AFC_task,59.95308071945958,
stimuli/rgb_scene000056_render000003.png,stimuli/rgb_scene000056_render000005.png,0,33,33,58,"[1, 0]",left,1,01,35,m,y,n,2019_Jul_12_1235,2AFC_task,59.95308071945958,
stimuli/rgb_scene000147_render000004.png,stimuli/rgb_scene000147_render000005.png,0,34,34,102,"[0, 1]",right,1,01,35,m,y,n,2019_Jul_12_1235,2AFC_task,59.95308071945958,
stimuli/rgb_scene000056_render000004.png,stimuli/rgb_scene000056_render000005.png,0,35,35,60,"[0, 1]",right,1,01,35,m,y,n,2019_Jul_12_1235,2AFC_task,59.95308071945958,
stimuli/rgb_scene000165_render000002.png,stimuli/rgb_scene000165_render000006.png,0,36,36,161,"[1, 0]",left,1,01,35,m,y,n,2019_Jul_12_1235,2AFC_task,59.95308071945958,
stimuli/rgb_scene000169_render000000.png,stimuli/rgb_scene000169_render000002.png,0,37,37,169,"[1, 0]",left,1,01,35,m,y,n,2019_Jul_12_1235,2AFC_task,59.95308071945958,
stimuli/rgb_scene000160_render000000.png,stimuli/rgb_scene000160_render000005.png,0,38,38,130,"[0, 1]",right,1,01,35,m,y,n,2019_Jul_12_1235,2AFC_task,59.95308071945958,
stimuli/rgb_scene000160_render000002.png,stimuli/rgb_scene000160_render000006.png,0,39,39,140,"[1, 0]",left,1,01,35,m,y,n,2019_Jul_12_1235,2AFC_task,59.95308071945958,
stimuli/rgb_scene000165_render000001.png,stimuli/rgb_scene000165_render000002.png,0,40,40,153,"[0, 1]",right,1,01,35,m,y,n,2019_Jul_12_1235,2AFC_task,59.95308071945958,
stimuli/rgb_scene000147_render000001.png,stimuli/rgb_scene000147_render000004.png,0,41,41,92,"[1, 0]",left,1,01,35,m,y,n,2019_Jul_12_1235,2AFC_task,59.95308071945958,
stimuli/rgb_scene000169_render000001.png,stimuli/rgb_scene000169_render000005.png,0,42,42,177,"[0, 1]",right,1,01,35,m,y,n,2019_Jul_12_1235,2AFC_task,59.95308071945958,
stimuli/rgb_scene000042_render000004.png,stimuli/rgb_scene000042_render000006.png,0,43,43,19,"[1, 0]",left,1,01,35,m,y,n,2019_Jul_12_1235,2AFC_task,59.95308071945958,
stimuli/rgb_scene000056_render000000.png,stimuli/rgb_scene000056_render000006.png,0,44,44,47,"[1, 0]",left,1,01,35,m,y,n,2019_Jul_12_1235,2AFC_task,59.95308071945958,
stimuli/rgb_scene000047_render000000.png,stimuli/rgb_scene000047_render000004.png,0,45,45,24,"[0, 1]",right,1,01,35,m,y,n,2019_Jul_12_1235,2AFC_task,59.95308071945958,
stimuli/rgb_scene000169_render000004.png,stimuli/rgb_scene000169_render000005.png,0,46,46,186,"[0, 1]",right,1,01,35,m,y,n,2019_Jul_12_1235,2AFC_task,59.95308071945958,
stimuli/rgb_scene000066_render000003.png,stimuli/rgb_scene000066_render000004.png,0,47,47,78,"[1, 0]",left,1,01,35,m,y,n,2019_Jul_12_1235,2AFC_task,59.95308071945958,
stimuli/rgb_scene000066_render000000.png,stimuli/rgb_scene000066_render000005.png,0,48,48,67,"[0, 1]",right,1,01,35,m,y,n,2019_Jul_12_1235,2AFC_task,59.95308071945958,
stimuli/rgb_scene000165_render000002.png,stimuli/rgb_scene000165_render000005.png,0,49,49,160,"[1, 0]",left,1,01,35,m,y,n,2019_Jul_12_1235,2AFC_task,59.95308071945958,
stimuli/rgb_scene000047_render000000.png,stimuli/rgb_scene000047_render000001.png,0,50,50,21,"[0, 1]",right,1,01,35,m,y,n,2019_Jul_12_1235,2AFC_task,59.95308071945958,
stimuli/rgb_scene000056_render000003.png,stimuli/rgb_scene000056_render000004.png,0,51,51,57,"[0, 1]",right,1,01,35,m,y,n,2019_Jul_12_1235,2AFC_task,59.95308071945958,
stimuli/rgb_scene000056_render000002.png,stimuli/rgb_scene000056_render000005.png,0,52,52,55,"[0, 1]",right,1,01,35,m,y,n,2019_Jul_12_1235,2AFC_task,59.95308071945958,
stimuli/rgb_scene000147_render000003.png,stimuli/rgb_scene000147_render000004.png,0,53,53,99,"[0, 1]",right,1,01,35,m,y,n,2019_Jul_12_1235,2AFC_task,59.95308071945958,
stimuli/rgb_scene000169_render000000.png,stimuli/rgb_scene000169_render000001.png,0,54,54,168,"[0, 1]",right,1,01,35,m,y,n,2019_Jul_12_1235,2AFC_task,59.95308071945958,
stimuli/rgb_scene000160_render000004.png,stimuli/rgb_scene000160_render000005.png,0,55,55,144,"[1, 0]",left,1,01,35,m,y,n,2019_Jul_12_1235,2AFC_task,59.95308071945958,
stimuli/rgb_scene000066_render000004.png,stimuli/rgb_scene000066_render000006.png,0,56,56,82,"[1, 0]",left,1,01,35,m,y,n,2019_Jul_12_1235,2AFC_task,59.95308071945958,
stimuli/rgb_scene000147_render000005.png,stimuli/rgb_scene000147_render000006.png,0,57,57,104,"[1, 0]",left,1,01,35,m,y,n,2019_Jul_12_1235,2AFC_task,59.95308071945958,
stimuli/rgb_scene000165_render000004.png,stimuli/rgb_scene000165_render000006.png,0,58,58,166,"[0, 1]",right,1,01,35,m,y,n,2019_Jul_12_1235,2AFC_task,59.95308071945958,
stimuli/rgb_scene000160_render000000.png,stimuli/rgb_scene000160_render000001.png,0,59,59,126,"[0, 1]",right,1,01,35,m,y,n,2019_Jul_12_1235,2AFC_task,59.95308071945958,
stimuli/rgb_scene000147_render000000.png,stimuli/rgb_scene000147_render000004.png,0,60,60,87,"[1, 0]",left,1,01,35,m,y,n,2019_Jul_12_1235,2AFC_task,59.95308071945958,
stimuli/rgb_scene000160_render000004.png,stimuli/rgb_scene000160_render000006.png,0,61,61,145,"[0, 1]",right,1,01,35,m,y,n,2019_Jul_12_1235,2AFC_task,59.95308071945958,
stimuli/rgb_scene000147_render000000.png,stimuli/rgb_scene000147_render000005.png,0,62,62,88,"[1, 0]",left,1,01,35,m,y,n,2019_Jul_12_1235,2AFC_task,59.95308071945958,
stimuli/rgb_scene000047_render000000.png,stimuli/rgb_scene000047_render000003.png,0,63,63,23,"[0, 1]",right,1,01,35,m,y,n,2019_Jul_12_1235,2AFC_task,59.95308071945958,
stimuli/rgb_scene000160_render000002.png,stimuli/rgb_scene000160_render000004.png,0,64,64,138,"[0, 1]",right,1,01,35,m,y,n,2019_Jul_12_1235,2AFC_task,59.95308071945958,
stimuli/rgb_scene000196_render000001.png,stimuli/rgb_scene000196_render000005.png,0,65,65,198,"[0, 1]",right,1,01,35,m,y,n,2019_Jul_12_1235,2AFC_task,59.95308071945958,
stimuli/rgb_scene000147_render000002.png,stimuli/rgb_scene000147_render000006.png,0,66,66,98,"[1, 0]",left,1,01,35,m,y,n,2019_Jul_12_1235,2AFC_task,59.95308071945958,
stimuli/rgb_scene000169_render000002.png,stimuli/rgb_scene000169_render000006.png,0,67,67,182,"[1, 0]",left,1,01,35,m,y,n,2019_Jul_12_1235,2AFC_task,59.95308071945958,
stimuli/rgb_scene000066_render000002.png,stimuli/rgb_scene000066_render000004.png,0,68,68,75,"[1, 0]",left,1,01,35,m,y,n,2019_Jul_12_1235,2AFC_task,59.95308071945958,
stimuli/rgb_scene000042_render000001.png,stimuli/rgb_scene000042_render000004.png,0,69,69,8,"[0, 1]",right,1,01,35,m,y,n,2019_Jul_12_1235,2AFC_task,59.95308071945958,
stimuli/rgb_scene000066_render000001.png,stimuli/rgb_scene000066_render000004.png,0,70,70,71,"[1, 0]",left,1,01,35,m,y,n,2019_Jul_12_1235,2AFC_task,59.95308071945958,
stimuli/rgb_scene000147_render000001.png,stimuli/rgb_scene000147_render000006.png,0,71,71,94,"[0, 1]",right,1,01,35,m,y,n,2019_Jul_12_1235,2AFC_task,59.95308071945958,
stimuli/rgb_scene000047_render000002.png,stimuli/rgb_scene000047_render000005.png,0,72,72,34,"[0, 1]",right,1,01,35,m,y,n,2019_Jul_12_1235,2AFC_task,59.95308071945958,
stimuli/rgb_scene000056_render000000.png,stimuli/rgb_scene000056_render000001.png,0,73,73,42,"[0, 1]",right,1,01,35,m,y,n,2019_Jul_12_1235,2AFC_task,59.95308071945958,
stimuli/rgb_scene000169_render000001.png,stimuli/rgb_scene000169_render000003.png,0,74,74,175,"[1, 0]",right,0,01,35,m,y,n,2019_Jul_12_1235,2AFC_task,59.95308071945958,
stimuli/rgb_scene000160_render000000.png,stimuli/rgb_scene000160_render000004.png,0,75,75,129,"[1, 0]",left,1,01,35,m,y,n,2019_Jul_12_1235,2AFC_task,59.95308071945958,
stimuli/rgb_scene000196_render000004.png,stimuli/rgb_scene000196_render000006.png,0,76,76,208,"[1, 0]",right,0,01,35,m,y,n,2019_Jul_12_1235,2AFC_task,59.95308071945958,
stimuli/rgb_scene000066_render000000.png,stimuli/rgb_scene000066_render000002.png,0,77,77,64,"[1, 0]",left,1,01,35,m,y,n,2019_Jul_12_1235,2AFC_task,59.95308071945958,
stimuli/rgb_scene000196_render000000.png,stimuli/rgb_scene000196_render000003.png,0,78,78,191,"[1, 0]",right,0,01,35,m,y,n,2019_Jul_12_1235,2AFC_task,59.95308071945958,
stimuli/rgb_scene000047_render000002.png,stimuli/rgb_scene000047_render000003.png,0,79,79,32,"[1, 0]",left,1,01,35,m,y,n,2019_Jul_12_1235,2AFC_task,59.95308071945958,
stimuli/rgb_scene000165_render000003.png,stimuli/rgb_scene000165_render000006.png,0,80,80,164,"[0, 1]",right,1,01,35,m,y,n,2019_Jul_12_1235,2AFC_task,59.95308071945958,
stimuli/rgb_scene000196_render000000.png,stimuli/rgb_scene000196_render000005.png,0,81,81,193,"[0, 1]",right,1,01,35,m,y,n,2019_Jul_12_1235,2AFC_task,59.95308071945958,
stimuli/rgb_scene000169_render000003.png,stimuli/rgb_scene000169_render000005.png,0,82,82,184,"[0, 1]",right,1,01,35,m,y,n,2019_Jul_12_1235,2AFC_task,59.95308071945958,
stimuli/rgb_scene000169_render000005.png,stimuli/rgb_scene000169_render000006.png,0,83,83,188,"[0, 1]",right,1,01,35,m,y,n,2019_Jul_12_1235,2AFC_task,59.95308071945958,
stimuli/rgb_scene000042_render000002.png,stimuli/rgb_scene000042_render000006.png,0,84,84,14,"[1, 0]",left,1,01,35,m,y,n,2019_Jul_12_1235,2AFC_task,59.95308071945958,
stimuli/rgb_scene000047_render000004.png,stimuli/rgb_scene000047_render000006.png,0,85,85,40,"[0, 1]",right,1,01,35,m,y,n,2019_Jul_12_1235,2AFC_task,59.95308071945958,
stimuli/rgb_scene000147_render000002.png,stimuli/rgb_scene000147_render000005.png,0,86,86,97,"[0, 1]",right,1,01,35,m,y,n,2019_Jul_12_1235,2AFC_task,59.95308071945958,
stimuli/rgb_scene000066_render000000.png,stimuli/rgb_scene000066_render000003.png,0,87,87,65,"[0, 1]",right,1,01,35,m,y,n,2019_Jul_12_1235,2AFC_task,59.95308071945958,
stimuli/rgb_scene000056_render000002.png,stimuli/rgb_scene000056_render000006.png,0,88,88,56,"[1, 0]",left,1,01,35,m,y,n,2019_Jul_12_1235,2AFC_task,59.95308071945958,
stimuli/rgb_scene000047_render000000.png,stimuli/rgb_scene000047_render000002.png,0,89,89,22,"[1, 0]",left,1,01,35,m,y,n,2019_Jul_12_1235,2AFC_task,59.95308071945958,
stimuli/rgb_scene000196_render000002.png,stimuli/rgb_scene000196_render000004.png,0,90,90,201,"[1, 0]",right,0,01,35,m,y,n,2019_Jul_12_1235,2AFC_task,59.95308071945958,
stimuli/rgb_scene000042_render000001.png,stimuli/rgb_scene000042_render000005.png,0,91,91,9,"[0, 1]",right,1,01,35,m,y,n,2019_Jul_12_1235,2AFC_task,59.95308071945958,
stimuli/rgb_scene000042_render000001.png,stimuli/rgb_scene000042_render000006.png,0,92,92,10,"[1, 0]",left,1,01,35,m,y,n,2019_Jul_12_1235,2AFC_task,59.95308071945958,
stimuli/rgb_scene000056_render000004.png,stimuli/rgb_scene000056_render000006.png,0,93,93,61,"[0, 1]",right,1,01,35,m,y,n,2019_Jul_12_1235,2AFC_task,59.95308071945958,
stimuli/rgb_scene000196_render000000.png,stimuli/rgb_scene000196_render000004.png,0,94,94,192,"[0, 1]",right,1,01,35,m,y,n,2019_Jul_12_1235,2AFC_task,59.95308071945958,
stimuli/rgb_scene000147_render000001.png,stimuli/rgb_scene000147_render000003.png,0,95,95,91,"[1, 0]",left,1,01,35,m,y,n,2019_Jul_12_1235,2AFC_task,59.95308071945958,
stimuli/rgb_scene000196_render000002.png,stimuli/rgb_scene000196_render000005.png,0,96,96,202,"[1, 0]",right,0,01,35,m,y,n,2019_Jul_12_1235,2AFC_task,59.95308071945958,
stimuli/rgb_scene000160_render000001.png,stimuli/rgb_scene000160_render000005.png,0,97,97,135,"[0, 1]",right,1,01,35,m,y,n,2019_Jul_12_1235,2AFC_task,59.95308071945958,
stimuli/rgb_scene000165_render000003.png,stimuli/rgb_scene000165_render000004.png,0,98,98,162,"[1, 0]",left,1,01,35,m,y,n,2019_Jul_12_1235,2AFC_task,59.95308071945958,
stimuli/rgb_scene000160_render000001.png,stimuli/rgb_scene000160_render000004.png,0,99,99,134,"[0, 1]",right,1,01,35,m,y,n,2019_Jul_12_1235,2AFC_task,59.95308071945958,
stimuli/rgb_scene000169_render000000.png,stimuli/rgb_scene000169_render000006.png,0,100,100,173,"[0, 1]",right,1,01,35,m,y,n,2019_Jul_12_1235,2AFC_task,59.95308071945958,
stimuli/rgb_scene000150_render000001.png,stimuli/rgb_scene000150_render000002.png,0,101,101,111,"[0, 1]",right,1,01,35,m,y,n,2019_Jul_12_1235,2AFC_task,59.95308071945958,
stimuli/rgb_scene000150_render000000.png,stimuli/rgb_scene000150_render000005.png,0,102,102,109,"[1, 0]",left,1,01,35,m,y,n,2019_Jul_12_1235,2AFC_task,59.95308071945958,
stimuli/rgb_scene000165_render000003.png,stimuli/rgb_scene000165_render000005.png,0,103,103,163,"[0, 1]",right,1,01,35,m,y,n,2019_Jul_12_1235,2AFC_task,59.95308071945958,
stimuli/rgb_scene000066_render000004.png,stimuli/rgb_scene000066_render000005.png,0,104,104,81,"[0, 1]",right,1,01,35,m,y,n,2019_Jul_12_1235,2AFC_task,59.95308071945958,
stimuli/rgb_scene000056_render000002.png,stimuli/rgb_scene000056_render000003.png,0,105,105,53,"[1, 0]",left,1,01,35,m,y,n,2019_Jul_12_1235,2AFC_task,59.95308071945958,
stimuli/rgb_scene000056_render000001.png,stimuli/rgb_scene000056_render000003.png,0,106,106,49,"[0, 1]",right,1,01,35,m,y,n,2019_Jul_12_1235,2AFC_task,59.95308071945958,
stimuli/rgb_scene000056_render000002.png,stimuli/rgb_scene000056_render000004.png,0,107,107,54,"[1, 0]",left,1,01,35,m,y,n,2019_Jul_12_1235,2AFC_task,59.95308071945958,
stimuli/rgb_scene000150_render000003.png,stimuli/rgb_scene000150_render000006.png,0,108,108,122,"[0, 1]",right,1,01,35,m,y,n,2019_Jul_12_1235,2AFC_task,59.95308071945958,
stimuli/rgb_scene000196_render000001.png,stimuli/rgb_scene000196_render000004.png,0,109,109,197,"[1, 0]",right,0,01,35,m,y,n,2019_Jul_12_1235,2AFC_task,59.95308071945958,
stimuli/rgb_scene000147_render000000.png,stimuli/rgb_scene000147_render000001.png,0,110,110,84,"[0, 1]",right,1,01,35,m,y,n,2019_Jul_12_1235,2AFC_task,59.95308071945958,
stimuli/rgb_scene000042_render000000.png,stimuli/rgb_scene000042_render000001.png,0,111,111,0,"[0, 1]",right,1,01,35,m,y,n,2019_Jul_12_1235,2AFC_task,59.95308071945958,
stimuli/rgb_scene000047_render000000.png,stimuli/rgb_scene000047_render000005.png,0,112,112,25,"[0, 1]",right,1,01,35,m,y,n,2019_Jul_12_1235,2AFC_task,59.95308071945958,
stimuli/rgb_scene000165_render000000.png,stimuli/rgb_scene000165_render000002.png,0,113,113,148,"[1, 0]",left,1,01,35,m,y,n,2019_Jul_12_1235,2AFC_task,59.95308071945958,
stimuli/rgb_scene000150_render000000.png,stimuli/rgb_scene000150_render000003.png,0,114,114,107,"[1, 0]",left,1,01,35,m,y,n,2019_Jul_12_1235,2AFC_task,59.95308071945958,
stimuli/rgb_scene000150_render000002.png,stimuli/rgb_scene000150_render000004.png,0,115,115,117,"[0, 1]",right,1,01,35,m,y,n,2019_Jul_12_1235,2AFC_task,59.95308071945958,
stimuli/rgb_scene000042_render000000.png,stimuli/rgb_scene000042_render000003.png,0,116,116,2,"[0, 1]",right,1,01,35,m,y,n,2019_Jul_12_1235,2AFC_task,59.95308071945958,
stimuli/rgb_scene000047_render000002.png,stimuli/rgb_scene000047_render000006.png,0,117,117,35,"[1, 0]",left,1,01,35,m,y,n,2019_Jul_12_1235,2AFC_task,59.95308071945958,
stimuli/rgb_scene000066_render000000.png,stimuli/rgb_scene000066_render000004.png,0,118,118,66,"[1, 0]",left,1,01,35,m,y,n,2019_Jul_12_1235,2AFC_task,59.95308071945958,
stimuli/rgb_scene000042_render000000.png,stimuli/rgb_scene000042_render000005.png,0,119,119,4,"[0, 1]",right,1,01,35,m,y,n,2019_Jul_12_1235,2AFC_task,59.95308071945958,
stimuli/rgb_scene000165_render000000.png,stimuli/rgb_scene000165_render000006.png,0,120,120,152,"[0, 1]",right,1,01,35,m,y,n,2019_Jul_12_1235,2AFC_task,59.95308071945958,
stimuli/rgb_scene000165_render000000.png,stimuli/rgb_scene000165_render000004.png,0,121,121,150,"[0, 1]",right,1,01,35,m,y,n,2019_Jul_12_1235,2AFC_task,59.95308071945958,
stimuli/rgb_scene000150_render000002.png,stimuli/rgb_scene000150_render000003.png,0,122,122,116,"[1, 0]",left,1,01,35,m,y,n,2019_Jul_12_1235,2AFC_task,59.95308071945958,
stimuli/rgb_scene000160_render000000.png,stimuli/rgb_scene000160_render000002.png,0,123,123,127,"[1, 0]",left,1,01,35,m,y,n,2019_Jul_12_1235,2AFC_task,59.95308071945958,
stimuli/rgb_scene000042_render000002.png,stimuli/rgb_scene000042_render000004.png,0,124,124,12,"[1, 0]",left,1,01,35,m,y,n,2019_Jul_12_1235,2AFC_task,59.95308071945958,
stimuli/rgb_scene000169_render000002.png,stimuli/rgb_scene000169_render000005.png,0,125,125,181,"[0, 1]",right,1,01,35,m,y,n,2019_Jul_12_1235,2AFC_task,59.95308071945958,
stimuli/rgb_scene000160_render000003.png,stimuli/rgb_scene000160_render000005.png,0,126,126,142,"[1, 0]",left,1,01,35,m,y,n,2019_Jul_12_1235,2AFC_task,59.95308071945958,
stimuli/rgb_scene000160_render000003.png,stimuli/rgb_scene000160_render000004.png,0,127,127,141,"[1, 0]",left,1,01,35,m,y,n,2019_Jul_12_1235,2AFC_task,59.95308071945958,
stimuli/rgb_scene000150_render000002.png,stimuli/rgb_scene000150_render000005.png,0,128,128,118,"[0, 1]",right,1,01,35,m,y,n,2019_Jul_12_1235,2AFC_task,59.95308071945958,
stimuli/rgb_scene000150_render000005.png,stimuli/rgb_scene000150_render000006.png,0,129,129,125,"[0, 1]",right,1,01,35,m,y,n,2019_Jul_12_1235,2AFC_task,59.95308071945958,
stimuli/rgb_scene000042_render000003.png,stimuli/rgb_scene000042_render000005.png,0,130,130,16,"[0, 1]",right,1,01,35,m,y,n,2019_Jul_12_1235,2AFC_task,59.95308071945958,
stimuli/rgb_scene000196_render000003.png,stimuli/rgb_scene000196_render000004.png,0,131,131,204,"[1, 0]",right,0,01,35,m,y,n,2019_Jul_12_1235,2AFC_task,59.95308071945958,
stimuli/rgb_scene000196_render000003.png,stimuli/rgb_scene000196_render000005.png,0,132,132,205,"[1, 0]",right,0,01,35,m,y,n,2019_Jul_12_1235,2AFC_task,59.95308071945958,
stimuli/rgb_scene000056_render000001.png,stimuli/rgb_scene000056_render000002.png,0,133,133,48,"[0, 1]",right,1,01,35,m,y,n,2019_Jul_12_1235,2AFC_task,59.95308071945958,
stimuli/rgb_scene000066_render000005.png,stimuli/rgb_scene000066_render000006.png,0,134,134,83,"[0, 1]",right,1,01,35,m,y,n,2019_Jul_12_1235,2AFC_task,59.95308071945958,
stimuli/rgb_scene000042_render000000.png,stimuli/rgb_scene000042_render000006.png,0,135,135,5,"[1, 0]",left,1,01,35,m,y,n,2019_Jul_12_1235,2AFC_task,59.95308071945958,
stimuli/rgb_scene000150_render000003.png,stimuli/rgb_scene000150_render000004.png,0,136,136,120,"[0, 1]",right,1,01,35,m,y,n,2019_Jul_12_1235,2AFC_task,59.95308071945958,
stimuli/rgb_scene000150_render000002.png,stimuli/rgb_scene000150_render000006.png,0,137,137,119,"[0, 1]",right,1,01,35,m,y,n,2019_Jul_12_1235,2AFC_task,59.95308071945958,
stimuli/rgb_scene000147_render000003.png,stimuli/rgb_scene000147_render000006.png,0,138,138,101,"[1, 0]",left,1,01,35,m,y,n,2019_Jul_12_1235,2AFC_task,59.95308071945958,
stimuli/rgb_scene000169_render000000.png,stimuli/rgb_scene000169_render000005.png,0,139,139,172,"[1, 0]",left,1,01,35,m,y,n,2019_Jul_12_1235,2AFC_task,59.95308071945958,
stimuli/rgb_scene000169_render000000.png,stimuli/rgb_scene000169_render000004.png,0,140,140,171,"[0, 1]",right,1,01,35,m,y,n,2019_Jul_12_1235,2AFC_task,59.95308071945958,
stimuli/rgb_scene000169_render000001.png,stimuli/rgb_scene000169_render000004.png,0,141,141,176,"[0, 1]",right,1,01,35,m,y,n,2019_Jul_12_1235,2AFC_task,59.95308071945958,
stimuli/rgb_scene000196_render000001.png,stimuli/rgb_scene000196_render000006.png,0,142,142,199,"[1, 0]",right,0,01,35,m,y,n,2019_Jul_12_1235,2AFC_task,59.95308071945958,
stimuli/rgb_scene000047_render000005.png,stimuli/rgb_scene000047_render000006.png,0,143,143,41,"[0, 1]",right,1,01,35,m,y,n,2019_Jul_12_1235,2AFC_task,59.95308071945958,
stimuli/rgb_scene000047_render000000.png,stimuli/rgb_scene000047_render000006.png,0,144,144,26,"[0, 1]",right,1,01,35,m,y,n,2019_Jul_12_1235,2AFC_task,59.95308071945958,
stimuli/rgb_scene000042_render000003.png,stimuli/rgb_scene000042_render000004.png,0,145,145,15,"[0, 1]",right,1,01,35,m,y,n,2019_Jul_12_1235,2AFC_task,59.95308071945958,
stimuli/rgb_scene000042_render000001.png,stimuli/rgb_scene000042_render000002.png,0,146,146,6,"[0, 1]",right,1,01,35,m,y,n,2019_Jul_12_1235,2AFC_task,59.95308071945958,
stimuli/rgb_scene000042_render000000.png,stimuli/rgb_scene000042_render000002.png,0,147,147,1,"[0, 1]",right,1,01,35,m,y,n,2019_Jul_12_1235,2AFC_task,59.95308071945958,
stimuli/rgb_scene000165_render000004.png,stimuli/rgb_scene000165_render000005.png,0,148,148,165,"[0, 1]",right,1,01,35,m,y,n,2019_Jul_12_1235,2AFC_task,59.95308071945958,
stimuli/rgb_scene000056_render000005.png,stimuli/rgb_scene000056_render000006.png,0,149,149,62,"[0, 1]",right,1,01,35,m,y,n,2019_Jul_12_1235,2AFC_task,59.95308071945958,
stimuli/rgb_scene000160_render000003.png,stimuli/rgb_scene000160_render000006.png,0,150,150,143,"[0, 1]",right,1,01,35,m,y,n,2019_Jul_12_1235,2AFC_task,59.95308071945958,
stimuli/rgb_scene000160_render000000.png,stimuli/rgb_scene000160_render000003.png,0,151,151,128,"[1, 0]",left,1,01,35,m,y,n,2019_Jul_12_1235,2AFC_task,59.95308071945958,
stimuli/rgb_scene000150_render000001.png,stimuli/rgb_scene000150_render000005.png,0,152,152,114,"[0, 1]",right,1,01,35,m,y,n,2019_Jul_12_1235,2AFC_task,59.95308071945958,
stimuli/rgb_scene000165_render000002.png,stimuli/rgb_scene000165_render000003.png,0,153,153,158,"[1, 0]",left,1,01,35,m,y,n,2019_Jul_12_1235,2AFC_task,59.95308071945958,
stimuli/rgb_scene000147_render000004.png,stimuli/rgb_scene000147_render000006.png,0,154,154,103,"[0, 1]",right,1,01,35,m,y,n,2019_Jul_12_1235,2AFC_task,59.95308071945958,
stimuli/rgb_scene000042_render000000.png,stimuli/rgb_scene000042_render000004.png,0,155,155,3,"[0, 1]",right,1,01,35,m,y,n,2019_Jul_12_1235,2AFC_task,59.95308071945958,
stimuli/rgb_scene000165_render000001.png,stimuli/rgb_scene000165_render000005.png,0,156,156,156,"[1, 0]",left,1,01,35,m,y,n,2019_Jul_12_1235,2AFC_task,59.95308071945958,
stimuli/rgb_scene000150_render000000.png,stimuli/rgb_scene000150_render000006.png,0,157,157,110,"[1, 0]",left,1,01,35,m,y,n,2019_Jul_12_1235,2AFC_task,59.95308071945958,
stimuli/rgb_scene000150_render000001.png,stimuli/rgb_scene000150_render000006.png,0,158,158,115,"[0, 1]",right,1,01,35,m,y,n,2019_Jul_12_1235,2AFC_task,59.95308071945958,
stimuli/rgb_scene000169_render000002.png,stimuli/rgb_scene000169_render000004.png,0,159,159,180,"[1, 0]",left,1,01,35,m,y,n,2019_Jul_12_1235,2AFC_task,59.95308071945958,
stimuli/rgb_scene000066_render000001.png,stimuli/rgb_scene000066_render000005.png,0,160,160,72,"[0, 1]",right,1,01,35,m,y,n,2019_Jul_12_1235,2AFC_task,59.95308071945958,
stimuli/rgb_scene000056_render000003.png,stimuli/rgb_scene000056_render000006.png,0,161,161,59,"[1, 0]",left,1,01,35,m,y,n,2019_Jul_12_1235,2AFC_task,59.95308071945958,
stimuli/rgb_scene000056_render000001.png,stimuli/rgb_scene000056_render000004.png,0,162,162,50,"[0, 1]",right,1,01,35,m,y,n,2019_Jul_12_1235,2AFC_task,59.95308071945958,
stimuli/rgb_scene000160_render000002.png,stimuli/rgb_scene000160_render000005.png,0,163,163,139,"[1, 0]",left,1,01,35,m,y,n,2019_Jul_12_1235,2AFC_task,59.95308071945958,
stimuli/rgb_scene000150_render000000.png,stimuli/rgb_scene000150_render000004.png,0,164,164,108,"[1, 0]",left,1,01,35,m,y,n,2019_Jul_12_1235,2AFC_task,59.95308071945958,
stimuli/rgb_scene000160_render000000.png,stimuli/rgb_scene000160_render000006.png,0,165,165,131,"[1, 0]",left,1,01,35,m,y,n,2019_Jul_12_1235,2AFC_task,59.95308071945958,
stimuli/rgb_scene000196_render000000.png,stimuli/rgb_scene000196_render000002.png,0,166,166,190,"[0, 1]",right,1,01,35,m,y,n,2019_Jul_12_1235,2AFC_task,59.95308071945958,
stimuli/rgb_scene000196_render000000.png,stimuli/rgb_scene000196_render000006.png,0,167,167,194,"[1, 0]",left,1,01,35,m,y,n,2019_Jul_12_1235,2AFC_task,59.95308071945958,
stimuli/rgb_scene000169_render000001.png,stimuli/rgb_scene000169_render000002.png,0,168,168,174,"[0, 1]",right,1,01,35,m,y,n,2019_Jul_12_1235,2AFC_task,59.95308071945958,
stimuli/rgb_scene000042_render000001.png,stimuli/rgb_scene000042_render000003.png,0,169,169,7,"[0, 1]",right,1,01,35,m,y,n,2019_Jul_12_1235,2AFC_task,59.95308071945958,
stimuli/rgb_scene000042_render000002.png,stimuli/rgb_scene000042_render000003.png,0,170,170,11,"[1, 0]",left,1,01,35,m,y,n,2019_Jul_12_1235,2AFC_task,59.95308071945958,
stimuli/rgb_scene000056_render000000.png,stimuli/rgb_scene000056_render000002.png,0,171,171,43,"[0, 1]",right,1,01,35,m,y,n,2019_Jul_12_1235,2AFC_task,59.95308071945958,
stimuli/rgb_scene000165_render000005.png,stimuli/rgb_scene000165_render000006.png,0,172,172,167,"[0, 1]",right,1,01,35,m,y,n,2019_Jul_12_1235,2AFC_task,59.95308071945958,
stimuli/rgb_scene000147_render000001.png,stimuli/rgb_scene000147_render000002.png,0,173,173,90,"[1, 0]",left,1,01,35,m,y,n,2019_Jul_12_1235,2AFC_task,59.95308071945958,
stimuli/rgb_scene000047_render000003.png,stimuli/rgb_scene000047_render000006.png,0,174,174,38,"[0, 1]",right,1,01,35,m,y,n,2019_Jul_12_1235,2AFC_task,59.95308071945958,
stimuli/rgb_scene000150_render000004.png,stimuli/rgb_scene000150_render000006.png,0,175,175,124,"[1, 0]",left,1,01,35,m,y,n,2019_Jul_12_1235,2AFC_task,59.95308071945958,
stimuli/rgb_scene000147_render000000.png,stimuli/rgb_scene000147_render000006.png,0,176,176,89,"[1, 0]",left,1,01,35,m,y,n,2019_Jul_12_1235,2AFC_task,59.95308071945958,
stimuli/rgb_scene000196_render000003.png,stimuli/rgb_scene000196_render000006.png,0,177,177,206,"[0, 1]",right,1,01,35,m,y,n,2019_Jul_12_1235,2AFC_task,59.95308071945958,
stimuli/rgb_scene000047_render000001.png,stimuli/rgb_scene000047_render000003.png,0,178,178,28,"[1, 0]",left,1,01,35,m,y,n,2019_Jul_12_1235,2AFC_task,59.95308071945958,
stimuli/rgb_scene000066_render000001.png,stimuli/rgb_scene000066_render000006.png,0,179,179,73,"[1, 0]",left,1,01,35,m,y,n,2019_Jul_12_1235,2AFC_task,59.95308071945958,
stimuli/rgb_scene000150_render000004.png,stimuli/rgb_scene000150_render000005.png,0,180,180,123,"[0, 1]",right,1,01,35,m,y,n,2019_Jul_12_1235,2AFC_task,59.95308071945958,
stimuli/rgb_scene000196_render000004.png,stimuli/rgb_scene000196_render000005.png,0,181,181,207,"[1, 0]",right,0,01,35,m,y,n,2019_Jul_12_1235,2AFC_task,59.95308071945958,
stimuli/rgb_scene000196_render000002.png,stimuli/rgb_scene000196_render000006.png,0,182,182,203,"[1, 0]",right,0,01,35,m,y,n,2019_Jul_12_1235,2AFC_task,59.95308071945958,
stimuli/rgb_scene000066_render000003.png,stimuli/rgb_scene000066_render000005.png,0,183,183,79,"[0, 1]",right,1,01,35,m,y,n,2019_Jul_12_1235,2AFC_task,59.95308071945958,
stimuli/rgb_scene000160_render000001.png,stimuli/rgb_scene000160_render000003.png,0,184,184,133,"[1, 0]",left,1,01,35,m,y,n,2019_Jul_12_1235,2AFC_task,59.95308071945958,
stimuli/rgb_scene000169_render000002.png,stimuli/rgb_scene000169_render000003.png,0,185,185,179,"[1, 0]",left,1,01,35,m,y,n,2019_Jul_12_1235,2AFC_task,59.95308071945958,
stimuli/rgb_scene000066_render000000.png,stimuli/rgb_scene000066_render000006.png,0,186,186,68,"[1, 0]",left,1,01,35,m,y,n,2019_Jul_12_1235,2AFC_task,59.95308071945958,
stimuli/rgb_scene000150_render000001.png,stimuli/rgb_scene000150_render000004.png,0,187,187,113,"[0, 1]",right,1,01,35,m,y,n,2019_Jul_12_1235,2AFC_task,59.95308071945958,
stimuli/rgb_scene000066_render000002.png,stimuli/rgb_scene000066_render000006.png,0,188,188,77,"[0, 1]",right,1,01,35,m,y,n,2019_Jul_12_1235,2AFC_task,59.95308071945958,
stimuli/rgb_scene000160_render000001.png,stimuli/rgb_scene000160_render000006.png,0,189,189,136,"[1, 0]",left,1,01,35,m,y,n,2019_Jul_12_1235,2AFC_task,59.95308071945958,
stimuli/rgb_scene000066_render000002.png,stimuli/rgb_scene000066_render000005.png,0,190,190,76,"[1, 0]",left,1,01,35,m,y,n,2019_Jul_12_1235,2AFC_task,59.95308071945958,
stimuli/rgb_scene000150_render000000.png,stimuli/rgb_scene000150_render000001.png,0,191,191,105,"[1, 0]",left,1,01,35,m,y,n,2019_Jul_12_1235,2AFC_task,59.95308071945958,
stimuli/rgb_scene000047_render000001.png,stimuli/rgb_scene000047_render000002.png,0,192,192,27,"[1, 0]",left,1,01,35,m,y,n,2019_Jul_12_1235,2AFC_task,59.95308071945958,
stimuli/rgb_scene000169_render000001.png,stimuli/rgb_scene000169_render000006.png,0,193,193,178,"[1, 0]",left,1,01,35,m,y,n,2019_Jul_12_1235,2AFC_task,59.95308071945958,
stimuli/rgb_scene000047_render000002.png,stimuli/rgb_scene000047_render000004.png,0,194,194,33,"[0, 1]",right,1,01,35,m,y,n,2019_Jul_12_1235,2AFC_task,59.95308071945958,
stimuli/rgb_scene000147_render000000.png,stimuli/rgb_scene000147_render000002.png,0,195,195,85,"[1, 0]",left,1,01,35,m,y,n,2019_Jul_12_1235,2AFC_task,59.95308071945958,
stimuli/rgb_scene000066_render000002.png,stimuli/rgb_scene000066_render000003.png,0,196,196,74,"[0, 1]",right,1,01,35,m,y,n,2019_Jul_12_1235,2AFC_task,59.95308071945958,
stimuli/rgb_scene000047_render000003.png,stimuli/rgb_scene000047_render000004.png,0,197,197,36,"[1, 0]",left,1,01,35,m,y,n,2019_Jul_12_1235,2AFC_task,59.95308071945958,
stimuli/rgb_scene000169_render000000.png,stimuli/rgb_scene000169_render000003.png,0,198,198,170,"[0, 1]",right,1,01,35,m,y,n,2019_Jul_12_1235,2AFC_task,59.95308071945958,
stimuli/rgb_scene000147_render000003.png,stimuli/rgb_scene000147_render000005.png,0,199,199,100,"[0, 1]",right,1,01,35,m,y,n,2019_Jul_12_1235,2AFC_task,59.95308071945958,
stimuli/rgb_scene000165_render000000.png,stimuli/rgb_scene000165_render000005.png,0,200,200,151,"[0, 1]",right,1,01,35,m,y,n,2019_Jul_12_1235,2AFC_task,59.95308071945958,
stimuli/rgb_scene000147_render000002.png,stimuli/rgb_scene000147_render000003.png,0,201,201,95,"[0, 1]",right,1,01,35,m,y,n,2019_Jul_12_1235,2AFC_task,59.95308071945958,
stimuli/rgb_scene000196_render000005.png,stimuli/rgb_scene000196_render000006.png,0,202,202,209,"[0, 1]",left,0,01,35,m,y,n,2019_Jul_12_1235,2AFC_task,59.95308071945958,
stimuli/rgb_scene000150_render000003.png,stimuli/rgb_scene000150_render000005.png,0,203,203,121,"[0, 1]",right,1,01,35,m,y,n,2019_Jul_12_1235,2AFC_task,59.95308071945958,
stimuli/rgb_scene000147_render000002.png,stimuli/rgb_scene000147_render000004.png,0,204,204,96,"[0, 1]",right,1,01,35,m,y,n,2019_Jul_12_1235,2AFC_task,59.95308071945958,
stimuli/rgb_scene000150_render000001.png,stimuli/rgb_scene000150_render000003.png,0,205,205,112,"[1, 0]",left,1,01,35,m,y,n,2019_Jul_12_1235,2AFC_task,59.95308071945958,
stimuli/rgb_scene000066_render000000.png,stimuli/rgb_scene000066_render000001.png,0,206,206,63,"[1, 0]",left,1,01,35,m,y,n,2019_Jul_12_1235,2AFC_task,59.95308071945958,
stimuli/rgb_scene000047_render000004.png,stimuli/rgb_scene000047_render000005.png,0,207,207,39,"[0, 1]",right,1,01,35,m,y,n,2019_Jul_12_1235,2AFC_task,59.95308071945958,
stimuli/rgb_scene000165_render000001.png,stimuli/rgb_scene000165_render000003.png,0,208,208,154,"[1, 0]",left,1,01,35,m,y,n,2019_Jul_12_1235,2AFC_task,59.95308071945958,
stimuli/rgb_scene000160_render000001.png,stimuli/rgb_scene000160_render000002.png,0,209,209,132,"[0, 1]",right,1,01,35,m,y,n,2019_Jul_12_1235,2AFC_task,59.95308071945958,
stimuli/rgb_scene000042_render000001.png,stimuli/rgb_scene000042_render000003.png,1,0,210,7,"[1, 0]",left,1,01,35,m,y,n,2019_Jul_12_1235,2AFC_task,59.95308071945958,
stimuli/rgb_scene000165_render000004.png,stimuli/rgb_scene000165_render000006.png,1,1,211,166,"[1, 0]",left,1,01,35,m,y,n,2019_Jul_12_1235,2AFC_task,59.95308071945958,
stimuli/rgb_scene000165_render000000.png,stimuli/rgb_scene000165_render000002.png,1,2,212,148,"[0, 1]",right,1,01,35,m,y,n,2019_Jul_12_1235,2AFC_task,59.95308071945958,
stimuli/rgb_scene000056_render000004.png,stimuli/rgb_scene000056_render000005.png,1,3,213,60,"[1, 0]",left,1,01,35,m,y,n,2019_Jul_12_1235,2AFC_task,59.95308071945958,
stimuli/rgb_scene000047_render000000.png,stimuli/rgb_scene000047_render000004.png,1,4,214,24,"[1, 0]",left,1,01,35,m,y,n,2019_Jul_12_1235,2AFC_task,59.95308071945958,
stimuli/rgb_scene000047_render000002.png,stimuli/rgb_scene000047_render000004.png,1,5,215,33,"[1, 0]",left,1,01,35,m,y,n,2019_Jul_12_1235,2AFC_task,59.95308071945958,
stimuli/rgb_scene000196_render000000.png,stimuli/rgb_scene000196_render000005.png,1,6,216,193,"[1, 0]",right,0,01,35,m,y,n,2019_Jul_12_1235,2AFC_task,59.95308071945958,
stimuli/rgb_scene000066_render000002.png,stimuli/rgb_scene000066_render000005.png,1,7,217,76,"[0, 1]",right,1,01,35,m,y,n,2019_Jul_12_1235,2AFC_task,59.95308071945958,
stimuli/rgb_scene000056_render000000.png,stimuli/rgb_scene000056_render000005.png,1,8,218,46,"[1, 0]",left,1,01,35,m,y,n,2019_Jul_12_1235,2AFC_task,59.95308071945958,
stimuli/rgb_scene000042_render000000.png,stimuli/rgb_scene000042_render000003.png,1,9,219,2,"[1, 0]",left,1,01,35,m,y,n,2019_Jul_12_1235,2AFC_task,59.95308071945958,
stimuli/rgb_scene000147_render000002.png,stimuli/rgb_scene000147_render000006.png,1,10,220,98,"[0, 1]",right,1,01,35,m,y,n,2019_Jul_12_1235,2AFC_task,59.95308071945958,
stimuli/rgb_scene000165_render000002.png,stimuli/rgb_scene000165_render000005.png,1,11,221,160,"[0, 1]",right,1,01,35,m,y,n,2019_Jul_12_1235,2AFC_task,59.95308071945958,
stimuli/rgb_scene000165_render000002.png,stimuli/rgb_scene000165_render000003.png,1,12,222,158,"[0, 1]",right,1,01,35,m,y,n,2019_Jul_12_1235,2AFC_task,59.95308071945958,
stimuli/rgb_scene000066_render000002.png,stimuli/rgb_scene000066_render000004.png,1,13,223,75,"[1, 0]",left,1,01,35,m,y,n,2019_Jul_12_1235,2AFC_task,59.95308071945958,
stimuli/rgb_scene000056_render000002.png,stimuli/rgb_scene000056_render000006.png,1,14,224,56,"[0, 1]",right,1,01,35,m,y,n,2019_Jul_12_1235,2AFC_task,59.95308071945958,
stimuli/rgb_scene000066_render000003.png,stimuli/rgb_scene000066_render000005.png,1,15,225,79,"[0, 1]",right,1,01,35,m,y,n,2019_Jul_12_1235,2AFC_task,59.95308071945958,
stimuli/rgb_scene000042_render000002.png,stimuli/rgb_scene000042_render000004.png,1,16,226,12,"[1, 0]",left,1,01,35,m,y,n,2019_Jul_12_1235,2AFC_task,59.95308071945958,
stimuli/rgb_scene000196_render000004.png,stimuli/rgb_scene000196_render000005.png,1,17,227,207,"[1, 0]",right,0,01,35,m,y,n,2019_Jul_12_1235,2AFC_task,59.95308071945958,
stimuli/rgb_scene000196_render000004.png,stimuli/rgb_scene000196_render000006.png,1,18,228,208,"[1, 0]",right,0,01,35,m,y,n,2019_Jul_12_1235,2AFC_task,59.95308071945958,
stimuli/rgb_scene000160_render000000.png,stimuli/rgb_scene000160_render000001.png,1,19,229,126,"[1, 0]",left,1,01,35,m,y,n,2019_Jul_12_1235,2AFC_task,59.95308071945958,
stimuli/rgb_scene000042_render000001.png,stimuli/rgb_scene000042_render000004.png,1,20,230,8,"[0, 1]",right,1,01,35,m,y,n,2019_Jul_12_1235,2AFC_task,59.95308071945958,
stimuli/rgb_scene000196_render000000.png,stimuli/rgb_scene000196_render000004.png,1,21,231,192,"[1, 0]",right,0,01,35,m,y,n,2019_Jul_12_1235,2AFC_task,59.95308071945958,
stimuli/rgb_scene000160_render000003.png,stimuli/rgb_scene000160_render000004.png,1,22,232,141,"[1, 0]",left,1,01,35,m,y,n,2019_Jul_12_1235,2AFC_task,59.95308071945958,
stimuli/rgb_scene000147_render000001.png,stimuli/rgb_scene000147_render000006.png,1,23,233,94,"[1, 0]",left,1,01,35,m,y,n,2019_Jul_12_1235,2AFC_task,59.95308071945958,
stimuli/rgb_scene000160_render000002.png,stimuli/rgb_scene000160_render000004.png,1,24,234,138,"[0, 1]",right,1,01,35,m,y,n,2019_Jul_12_1235,2AFC_task,59.95308071945958,
stimuli/rgb_scene000165_render000000.png,stimuli/rgb_scene000165_render000006.png,1,25,235,152,"[0, 1]",right,1,01,35,m,y,n,2019_Jul_12_1235,2AFC_task,59.95308071945958,
stimuli/rgb_scene000047_render000003.png,stimuli/rgb_scene000047_render000005.png,1,26,236,37,"[0, 1]",right,1,01,35,m,y,n,2019_Jul_12_1235,2AFC_task,59.95308071945958,
stimuli/rgb_scene000150_render000001.png,stimuli/rgb_scene000150_render000002.png,1,27,237,111,"[1, 0]",left,1,01,35,m,y,n,2019_Jul_12_1235,2AFC_task,59.95308071945958,
stimuli/rgb_scene000066_render000003.png,stimuli/rgb_scene000066_render000006.png,1,28,238,80,"[1, 0]",left,1,01,35,m,y,n,2019_Jul_12_1235,2AFC_task,59.95308071945958,
stimuli/rgb_scene000047_render000003.png,stimuli/rgb_scene000047_render000004.png,1,29,239,36,"[1, 0]",left,1,01,35,m,y,n,2019_Jul_12_1235,2AFC_task,59.95308071945958,
stimuli/rgb_scene000042_render000004.png,stimuli/rgb_scene000042_render000005.png,1,30,240,18,"[1, 0]",left,1,01,35,m,y,n,2019_Jul_12_1235,2AFC_task,59.95308071945958,
stimuli/rgb_scene000042_render000001.png,stimuli/rgb_scene000042_render000006.png,1,31,241,10,"[1, 0]",left,1,01,35,m,y,n,2019_Jul_12_1235,2AFC_task,59.95308071945958,
stimuli/rgb_scene000160_render000000.png,stimuli/rgb_scene000160_render000005.png,1,32,242,130,"[0, 1]",right,1,01,35,m,y,n,2019_Jul_12_1235,2AFC_task,59.95308071945958,
stimuli/rgb_scene000150_render000000.png,stimuli/rgb_scene000150_render000005.png,1,33,243,109,"[0, 1]",right,1,01,35,m,y,n,2019_Jul_12_1235,2AFC_task,59.95308071945958,
stimuli/rgb_scene000042_render000001.png,stimuli/rgb_scene000042_render000002.png,1,34,244,6,"[0, 1]",right,1,01,35,m,y,n,2019_Jul_12_1235,2AFC_task,59.95308071945958,
stimuli/rgb_scene000066_render000003.png,stimuli/rgb_scene000066_render000004.png,1,35,245,78,"[0, 1]",right,1,01,35,m,y,n,2019_Jul_12_1235,2AFC_task,59.95308071945958,
stimuli/rgb_scene000047_render000000.png,stimuli/rgb_scene000047_render000001.png,1,36,246,21,"[1, 0]",left,1,01,35,m,y,n,2019_Jul_12_1235,2AFC_task,59.95308071945958,
stimuli/rgb_scene000150_render000005.png,stimuli/rgb_scene000150_render000006.png,1,37,247,125,"[1, 0]",left,1,01,35,m,y,n,2019_Jul_12_1235,2AFC_task,59.95308071945958,
stimuli/rgb_scene000150_render000001.png,stimuli/rgb_scene000150_render000006.png,1,38,248,115,"[1, 0]",left,1,01,35,m,y,n,2019_Jul_12_1235,2AFC_task,59.95308071945958,
stimuli/rgb_scene000066_render000004.png,stimuli/rgb_scene000066_render000005.png,1,39,249,81,"[0, 1]",right,1,01,35,m,y,n,2019_Jul_12_1235,2AFC_task,59.95308071945958,
stimuli/rgb_scene000150_render000000.png,stimuli/rgb_scene000150_render000003.png,1,40,250,107,"[1, 0]",left,1,01,35,m,y,n,2019_Jul_12_1235,2AFC_task,59.95308071945958,
stimuli/rgb_scene000056_render000000.png,stimuli/rgb_scene000056_render000002.png,1,41,251,43,"[0, 1]",right,1,01,35,m,y,n,2019_Jul_12_1235,2AFC_task,59.95308071945958,
stimuli/rgb_scene000150_render000002.png,stimuli/rgb_scene000150_render000006.png,1,42,252,119,"[1, 0]",left,1,01,35,m,y,n,2019_Jul_12_1235,2AFC_task,59.95308071945958,
stimuli/rgb_scene000047_render000004.png,stimuli/rgb_scene000047_render000006.png,1,43,253,40,"[0, 1]",right,1,01,35,m,y,n,2019_Jul_12_1235,2AFC_task,59.95308071945958,
stimuli/rgb_scene000042_render000003.png,stimuli/rgb_scene000042_render000006.png,1,44,254,17,"[1, 0]",left,1,01,35,m,y,n,2019_Jul_12_1235,2AFC_task,59.95308071945958,
stimuli/rgb_scene000147_render000004.png,stimuli/rgb_scene000147_render000005.png,1,45,255,102,"[1, 0]",left,1,01,35,m,y,n,2019_Jul_12_1235,2AFC_task,59.95308071945958,
stimuli/rgb_scene000066_render000002.png,stimuli/rgb_scene000066_render000006.png,1,46,256,77,"[1, 0]",left,1,01,35,m,y,n,2019_Jul_12_1235,2AFC_task,59.95308071945958,
stimuli/rgb_scene000056_render000001.png,stimuli/rgb_scene000056_render000003.png,1,47,257,49,"[0, 1]",right,1,01,35,m,y,n,2019_Jul_12_1235,2AFC_task,59.95308071945958,
stimuli/rgb_scene000196_render000001.png,stimuli/rgb_scene000196_render000006.png,1,48,258,199,"[0, 1]",left,0,01,35,m,y,n,2019_Jul_12_1235,2AFC_task,59.95308071945958,
stimuli/rgb_scene000169_render000000.png,stimuli/rgb_scene000169_render000001.png,1,49,259,168,"[1, 0]",left,1,01,35,m,y,n,2019_Jul_12_1235,2AFC_task,59.95308071945958,
stimuli/rgb_scene000147_render000000.png,stimuli/rgb_scene000147_render000001.png,1,50,260,84,"[0, 1]",right,1,01,35,m,y,n,2019_Jul_12_1235,2AFC_task,59.95308071945958,
stimuli/rgb_scene000150_render000002.png,stimuli/rgb_scene000150_render000004.png,1,51,261,117,"[0, 1]",right,1,01,35,m,y,n,2019_Jul_12_1235,2AFC_task,59.95308071945958,
stimuli/rgb_scene000196_render000001.png,stimuli/rgb_scene000196_render000003.png,1,52,262,196,"[1, 0]",right,0,01,35,m,y,n,2019_Jul_12_1235,2AFC_task,59.95308071945958,
stimuli/rgb_scene000147_render000002.png,stimuli/rgb_scene000147_render000004.png,1,53,263,96,"[0, 1]",right,1,01,35,m,y,n,2019_Jul_12_1235,2AFC_task,59.95308071945958,
stimuli/rgb_scene000147_render000003.png,stimuli/rgb_scene000147_render000005.png,1,54,264,100,"[1, 0]",left,1,01,35,m,y,n,2019_Jul_12_1235,2AFC_task,59.95308071945958,
stimuli/rgb_scene000165_render000001.png,stimuli/rgb_scene000165_render000004.png,1,55,265,155,"[1, 0]",left,1,01,35,m,y,n,2019_Jul_12_1235,2AFC_task,59.95308071945958,
stimuli/rgb_scene000165_render000001.png,stimuli/rgb_scene000165_render000003.png,1,56,266,154,"[1, 0]",left,1,01,35,m,y,n,2019_Jul_12_1235,2AFC_task,59.95308071945958,
stimuli/rgb_scene000042_render000002.png,stimuli/rgb_scene000042_render000005.png,1,57,267,13,"[1, 0]",left,1,01,35,m,y,n,2019_Jul_12_1235,2AFC_task,59.95308071945958,
stimuli/rgb_scene000147_render000003.png,stimuli/rgb_scene000147_render000004.png,1,58,268,99,"[1, 0]",left,1,01,35,m,y,n,2019_Jul_12_1235,2AFC_task,59.95308071945958,
stimuli/rgb_scene000160_render000001.png,stimuli/rgb_scene000160_render000004.png,1,59,269,134,"[0, 1]",right,1,01,35,m,y,n,2019_Jul_12_1235,2AFC_task,59.95308071945958,
stimuli/rgb_scene000160_render000004.png,stimuli/rgb_scene000160_render000006.png,1,60,270,145,"[0, 1]",right,1,01,35,m,y,n,2019_Jul_12_1235,2AFC_task,59.95308071945958,
stimuli/rgb_scene000047_render000001.png,stimuli/rgb_scene000047_render000005.png,1,61,271,30,"[0, 1]",right,1,01,35,m,y,n,2019_Jul_12_1235,2AFC_task,59.95308071945958,
stimuli/rgb_scene000165_render000001.png,stimuli/rgb_scene000165_render000002.png,1,62,272,153,"[1, 0]",left,1,01,35,m,y,n,2019_Jul_12_1235,2AFC_task,59.95308071945958,
stimuli/rgb_scene000165_render000000.png,stimuli/rgb_scene000165_render000001.png,1,63,273,147,"[1, 0]",left,1,01,35,m,y,n,2019_Jul_12_1235,2AFC_task,59.95308071945958,
stimuli/rgb_scene000066_render000001.png,stimuli/rgb_scene000066_render000006.png,1,64,274,73,"[1, 0]",left,1,01,35,m,y,n,2019_Jul_12_1235,2AFC_task,59.95308071945958,
stimuli/rgb_scene000169_render000001.png,stimuli/rgb_scene000169_render000004.png,1,65,275,176,"[1, 0]",left,1,01,35,m,y,n,2019_Jul_12_1235,2AFC_task,59.95308071945958,
stimuli/rgb_scene000147_render000000.png,stimuli/rgb_scene000147_render000004.png,1,66,276,87,"[0, 1]",right,1,01,35,m,y,n,2019_Jul_12_1235,2AFC_task,59.95308071945958,
stimuli/rgb_scene000042_render000000.png,stimuli/rgb_scene000042_render000002.png,1,67,277,1,"[1, 0]",left,1,01,35,m,y,n,2019_Jul_12_1235,2AFC_task,59.95308071945958,
stimuli/rgb_scene000042_render000003.png,stimuli/rgb_scene000042_render000005.png,1,68,278,16,"[0, 1]",right,1,01,35,m,y,n,2019_Jul_12_1235,2AFC_task,59.95308071945958,
stimuli/rgb_scene000150_render000003.png,stimuli/rgb_scene000150_render000004.png,1,69,279,120,"[1, 0]",left,1,01,35,m,y,n,2019_Jul_12_1235,2AFC_task,59.95308071945958,
stimuli/rgb_scene000042_render000001.png,stimuli/rgb_scene000042_render000005.png,1,70,280,9,"[1, 0]",left,1,01,35,m,y,n,2019_Jul_12_1235,2AFC_task,59.95308071945958,
stimuli/rgb_scene000042_render000002.png,stimuli/rgb_scene000042_render000003.png,1,71,281,11,"[1, 0]",left,1,01,35,m,y,n,2019_Jul_12_1235,2AFC_task,59.95308071945958,
stimuli/rgb_scene000047_render000004.png,stimuli/rgb_scene000047_render000005.png,1,72,282,39,"[1, 0]",left,1,01,35,m,y,n,2019_Jul_12_1235,2AFC_task,59.95308071945958,
stimuli/rgb_scene000056_render000001.png,stimuli/rgb_scene000056_render000004.png,1,73,283,50,"[1, 0]",left,1,01,35,m,y,n,2019_Jul_12_1235,2AFC_task,59.95308071945958,
stimuli/rgb_scene000196_render000000.png,stimuli/rgb_scene000196_render000001.png,1,74,284,189,"[1, 0]",right,0,01,35,m,y,n,2019_Jul_12_1235,2AFC_task,59.95308071945958,
stimuli/rgb_scene000056_render000002.png,stimuli/rgb_scene000056_render000003.png,1,75,285,53,"[0, 1]",right,1,01,35,m,y,n,2019_Jul_12_1235,2AFC_task,59.95308071945958,
stimuli/rgb_scene000160_render000000.png,stimuli/rgb_scene000160_render000006.png,1,76,286,131,"[1, 0]",left,1,01,35,m,y,n,2019_Jul_12_1235,2AFC_task,59.95308071945958,
stimuli/rgb_scene000150_render000004.png,stimuli/rgb_scene000150_render000005.png,1,77,287,123,"[1, 0]",left,1,01,35,m,y,n,2019_Jul_12_1235,2AFC_task,59.95308071945958,
stimuli/rgb_scene000056_render000004.png,stimuli/rgb_scene000056_render000006.png,1,78,288,61,"[0, 1]",right,1,01,35,m,y,n,2019_Jul_12_1235,2AFC_task,59.95308071945958,
stimuli/rgb_scene000165_render000004.png,stimuli/rgb_scene000165_render000005.png,1,79,289,165,"[1, 0]",left,1,01,35,m,y,n,2019_Jul_12_1235,2AFC_task,59.95308071945958,
stimuli/rgb_scene000066_render000000.png,stimuli/rgb_scene000066_render000003.png,1,80,290,65,"[0, 1]",right,1,01,35,m,y,n,2019_Jul_12_1235,2AFC_task,59.95308071945958,
stimuli/rgb_scene000042_render000002.png,stimuli/rgb_scene000042_render000006.png,1,81,291,14,"[1, 0]",left,1,01,35,m,y,n,2019_Jul_12_1235,2AFC_task,59.95308071945958,
stimuli/rgb_scene000165_render000002.png,stimuli/rgb_scene000165_render000006.png,1,82,292,161,"[0, 1]",right,1,01,35,m,y,n,2019_Jul_12_1235,2AFC_task,59.95308071945958,
stimuli/rgb_scene000047_render000000.png,stimuli/rgb_scene000047_render000006.png,1,83,293,26,"[0, 1]",right,1,01,35,m,y,n,2019_Jul_12_1235,2AFC_task,59.95308071945958,
stimuli/rgb_scene000047_render000001.png,stimuli/rgb_scene000047_render000003.png,1,84,294,28,"[1, 0]",left,1,01,35,m,y,n,2019_Jul_12_1235,2AFC_task,59.95308071945958,
stimuli/rgb_scene000150_render000000.png,stimuli/rgb_scene000150_render000002.png,1,85,295,106,"[1, 0]",left,1,01,35,m,y,n,2019_Jul_12_1235,2AFC_task,59.95308071945958,
stimuli/rgb_scene000150_render000000.png,stimuli/rgb_scene000150_render000004.png,1,86,296,108,"[1, 0]",left,1,01,35,m,y,n,2019_Jul_12_1235,2AFC_task,59.95308071945958,
stimuli/rgb_scene000160_render000002.png,stimuli/rgb_scene000160_render000005.png,1,87,297,139,"[0, 1]",right,1,01,35,m,y,n,2019_Jul_12_1235,2AFC_task,59.95308071945958,
stimuli/rgb_scene000165_render000001.png,stimuli/rgb_scene000165_render000006.png,1,88,298,157,"[0, 1]",right,1,01,35,m,y,n,2019_Jul_12_1235,2AFC_task,59.95308071945958,
stimuli/rgb_scene000169_render000001.png,stimuli/rgb_scene000169_render000003.png,1,89,299,175,"[0, 1]",right,1,01,35,m,y,n,2019_Jul_12_1235,2AFC_task,59.95308071945958,
stimuli/rgb_scene000196_render000001.png,stimuli/rgb_scene000196_render000004.png,1,90,300,197,"[1, 0]",right,0,01,35,m,y,n,2019_Jul_12_1235,2AFC_task,59.95308071945958,
stimuli/rgb_scene000056_render000001.png,stimuli/rgb_scene000056_render000006.png,1,91,301,52,"[1, 0]",left,1,01,35,m,y,n,2019_Jul_12_1235,2AFC_task,59.95308071945958,
stimuli/rgb_scene000150_render000002.png,stimuli/rgb_scene000150_render000003.png,1,92,302,116,"[1, 0]",left,1,01,35,m,y,n,2019_Jul_12_1235,2AFC_task,59.95308071945958,
stimuli/rgb_scene000165_render000003.png,stimuli/rgb_scene000165_render000005.png,1,93,303,163,"[1, 0]",left,1,01,35,m,y,n,2019_Jul_12_1235,2AFC_task,59.95308071945958,
stimuli/rgb_scene000056_render000003.png,stimuli/rgb_scene000056_render000004.png,1,94,304,57,"[1, 0]",left,1,01,35,m,y,n,2019_Jul_12_1235,2AFC_task,59.95308071945958,
stimuli/rgb_scene000169_render000005.png,stimuli/rgb_scene000169_render000006.png,1,95,305,188,"[1, 0]",left,1,01,35,m,y,n,2019_Jul_12_1235,2AFC_task,59.95308071945958,
stimuli/rgb_scene000169_render000000.png,stimuli/rgb_scene000169_render000003.png,1,96,306,170,"[1, 0]",right,0,01,35,m,y,n,2019_Jul_12_1235,2AFC_task,59.95308071945958,
stimuli/rgb_scene000066_render000000.png,stimuli/rgb_scene000066_render000001.png,1,97,307,63,"[1, 0]",left,1,01,35,m,y,n,2019_Jul_12_1235,2AFC_task,59.95308071945958,
stimuli/rgb_scene000169_render000000.png,stimuli/rgb_scene000169_render000005.png,1,98,308,172,"[1, 0]",left,1,01,35,m,y,n,2019_Jul_12_1235,2AFC_task,59.95308071945958,
stimuli/rgb_scene000196_render000000.png,stimuli/rgb_scene000196_render000002.png,1,99,309,190,"[0, 1]",right,1,01,35,m,y,n,2019_Jul_12_1235,2AFC_task,59.95308071945958,
stimuli/rgb_scene000066_render000005.png,stimuli/rgb_scene000066_render000006.png,1,100,310,83,"[1, 0]",left,1,01,35,m,y,n,2019_Jul_12_1235,2AFC_task,59.95308071945958,
stimuli/rgb_scene000150_render000003.png,stimuli/rgb_scene000150_render000005.png,1,101,311,121,"[0, 1]",right,1,01,35,m,y,n,2019_Jul_12_1235,2AFC_task,59.95308071945958,
stimuli/rgb_scene000147_render000003.png,stimuli/rgb_scene000147_render000006.png,1,102,312,101,"[0, 1]",right,1,01,35,m,y,n,2019_Jul_12_1235,2AFC_task,59.95308071945958,
stimuli/rgb_scene000047_render000000.png,stimuli/rgb_scene000047_render000005.png,1,103,313,25,"[0, 1]",right,1,01,35,m,y,n,2019_Jul_12_1235,2AFC_task,59.95308071945958,
stimuli/rgb_scene000169_render000001.png,stimuli/rgb_scene000169_render000006.png,1,104,314,178,"[0, 1]",right,1,01,35,m,y,n,2019_Jul_12_1235,2AFC_task,59.95308071945958,
stimuli/rgb_scene000047_render000001.png,stimuli/rgb_scene000047_render000006.png,1,105,315,31,"[1, 0]",left,1,01,35,m,y,n,2019_Jul_12_1235,2AFC_task,59.95308071945958,
stimuli/rgb_scene000165_render000000.png,stimuli/rgb_scene000165_render000005.png,1,106,316,151,"[0, 1]",right,1,01,35,m,y,n,2019_Jul_12_1235,2AFC_task,59.95308071945958,
stimuli/rgb_scene000042_render000000.png,stimuli/rgb_scene000042_render000006.png,1,107,317,5,"[1, 0]",left,1,01,35,m,y,n,2019_Jul_12_1235,2AFC_task,59.95308071945958,
stimuli/rgb_scene000165_render000005.png,stimuli/rgb_scene000165_render000006.png,1,108,318,167,"[0, 1]",right,1,01,35,m,y,n,2019_Jul_12_1235,2AFC_task,59.95308071945958,
stimuli/rgb_scene000165_render000000.png,stimuli/rgb_scene000165_render000004.png,1,109,319,150,"[1, 0]",left,1,01,35,m,y,n,2019_Jul_12_1235,2AFC_task,59.95308071945958,
stimuli/rgb_scene000150_render000001.png,stimuli/rgb_scene000150_render000004.png,1,110,320,113,"[1, 0]",left,1,01,35,m,y,n,2019_Jul_12_1235,2AFC_task,59.95308071945958,
stimuli/rgb_scene000169_render000002.png,stimuli/rgb_scene000169_render000006.png,1,111,321,182,"[0, 1]",right,1,01,35,m,y,n,2019_Jul_12_1235,2AFC_task,59.95308071945958,
stimuli/rgb_scene000196_render000001.png,stimuli/rgb_scene000196_render000005.png,1,112,322,198,"[1, 0]",right,0,01,35,m,y,n,2019_Jul_12_1235,2AFC_task,59.95308071945958,
stimuli/rgb_scene000150_render000002.png,stimuli/rgb_scene000150_render000005.png,1,113,323,118,"[0, 1]",right,1,01,35,m,y,n,2019_Jul_12_1235,2AFC_task,59.95308071945958,
stimuli/rgb_scene000160_render000000.png,stimuli/rgb_scene000160_render000002.png,1,114,324,127,"[0, 1]",right,1,01,35,m,y,n,2019_Jul_12_1235,2AFC_task,59.95308071945958,
stimuli/rgb_scene000196_render000002.png,stimuli/rgb_scene000196_render000005.png,1,115,325,202,"[1, 0]",right,0,01,35,m,y,n,2019_Jul_12_1235,2AFC_task,59.95308071945958,
stimuli/rgb_scene000056_render000000.png,stimuli/rgb_scene000056_render000004.png,1,116,326,45,"[1, 0]",left,1,01,35,m,y,n,2019_Jul_12_1235,2AFC_task,59.95308071945958,
stimuli/rgb_scene000169_render000003.png,stimuli/rgb_scene000169_render000006.png,1,117,327,185,"[0, 1]",right,1,01,35,m,y,n,2019_Jul_12_1235,2AFC_task,59.95308071945958,
stimuli/rgb_scene000160_render000005.png,stimuli/rgb_scene000160_render000006.png,1,118,328,146,"[0, 1]",right,1,01,35,m,y,n,2019_Jul_12_1235,2AFC_task,59.95308071945958,
stimuli/rgb_scene000147_render000001.png,stimuli/rgb_scene000147_render000002.png,1,119,329,90,"[0, 1]",right,1,01,35,m,y,n,2019_Jul_12_1235,2AFC_task,59.95308071945958,
stimuli/rgb_scene000066_render000004.png,stimuli/rgb_scene000066_render000006.png,1,120,330,82,"[0, 1]",right,1,01,35,m,y,n,2019_Jul_12_1235,2AFC_task,59.95308071945958,
stimuli/rgb_scene000042_render000000.png,stimuli/rgb_scene000042_render000004.png,1,121,331,3,"[1, 0]",left,1,01,35,m,y,n,2019_Jul_12_1235,2AFC_task,59.95308071945958,
stimuli/rgb_scene000160_render000002.png,stimuli/rgb_scene000160_render000006.png,1,122,332,140,"[1, 0]",left,1,01,35,m,y,n,2019_Jul_12_1235,2AFC_task,59.95308071945958,
stimuli/rgb_scene000066_render000000.png,stimuli/rgb_scene000066_render000005.png,1,123,333,67,"[0, 1]",right,1,01,35,m,y,n,2019_Jul_12_1235,2AFC_task,59.95308071945958,
stimuli/rgb_scene000147_render000001.png,stimuli/rgb_scene000147_render000003.png,1,124,334,91,"[1, 0]",left,1,01,35,m,y,n,2019_Jul_12_1235,2AFC_task,59.95308071945958,
stimuli/rgb_scene000150_render000000.png,stimuli/rgb_scene000150_render000001.png,1,125,335,105,"[1, 0]",left,1,01,35,m,y,n,2019_Jul_12_1235,2AFC_task,59.95308071945958,
stimuli/rgb_scene000160_render000001.png,stimuli/rgb_scene000160_render000006.png,1,126,336,136,"[0, 1]",right,1,01,35,m,y,n,2019_Jul_12_1235,2AFC_task,59.95308071945958,
stimuli/rgb_scene000147_render000000.png,stimuli/rgb_scene000147_render000002.png,1,127,337,85,"[0, 1]",right,1,01,35,m,y,n,2019_Jul_12_1235,2AFC_task,59.95308071945958,
stimuli/rgb_scene000160_render000000.png,stimuli/rgb_scene000160_render000004.png,1,128,338,129,"[1, 0]",left,1,01,35,m,y,n,2019_Jul_12_1235,2AFC_task,59.95308071945958,
stimuli/rgb_scene000042_render000005.png,stimuli/rgb_scene000042_render000006.png,1,129,339,20,"[1, 0]",left,1,01,35,m,y,n,2019_Jul_12_1235,2AFC_task,59.95308071945958,
stimuli/rgb_scene000147_render000001.png,stimuli/rgb_scene000147_render000005.png,1,130,340,93,"[1, 0]",left,1,01,35,m,y,n,2019_Jul_12_1235,2AFC_task,59.95308071945958,
stimuli/rgb_scene000147_render000000.png,stimuli/rgb_scene000147_render000003.png,1,131,341,86,"[1, 0]",left,1,01,35,m,y,n,2019_Jul_12_1235,2AFC_task,59.95308071945958,
stimuli/rgb_scene000169_render000003.png,stimuli/rgb_scene000169_render000005.png,1,132,342,184,"[0, 1]",right,1,01,35,m,y,n,2019_Jul_12_1235,2AFC_task,59.95308071945958,
stimuli/rgb_scene000047_render000001.png,stimuli/rgb_scene000047_render000004.png,1,133,343,29,"[0, 1]",right,1,01,35,m,y,n,2019_Jul_12_1235,2AFC_task,59.95308071945958,
stimuli/rgb_scene000160_render000001.png,stimuli/rgb_scene000160_render000003.png,1,134,344,133,"[0, 1]",right,1,01,35,m,y,n,2019_Jul_12_1235,2AFC_task,59.95308071945958,
stimuli/rgb_scene000056_render000003.png,stimuli/rgb_scene000056_render000006.png,1,135,345,59,"[1, 0]",left,1,01,35,m,y,n,2019_Jul_12_1235,2AFC_task,59.95308071945958,
stimuli/rgb_scene000196_render000001.png,stimuli/rgb_scene000196_render000002.png,1,136,346,195,"[0, 1]",right,1,01,35,m,y,n,2019_Jul_12_1235,2AFC_task,59.95308071945958,
stimuli/rgb_scene000196_render000003.png,stimuli/rgb_scene000196_render000005.png,1,137,347,205,"[1, 0]",right,0,01,35,m,y,n,2019_Jul_12_1235,2AFC_task,59.95308071945958,
stimuli/rgb_scene000066_render000000.png,stimuli/rgb_scene000066_render000006.png,1,138,348,68,"[0, 1]",right,1,01,35,m,y,n,2019_Jul_12_1235,2AFC_task,59.95308071945958,
stimuli/rgb_scene000047_render000000.png,stimuli/rgb_scene000047_render000003.png,1,139,349,23,"[0, 1]",right,1,01,35,m,y,n,2019_Jul_12_1235,2AFC_task,59.95308071945958,
stimuli/rgb_scene000056_render000001.png,stimuli/rgb_scene000056_render000005.png,1,140,350,51,"[1, 0]",left,1,01,35,m,y,n,2019_Jul_12_1235,2AFC_task,59.95308071945958,
stimuli/rgb_scene000150_render000004.png,stimuli/rgb_scene000150_render000006.png,1,141,351,124,"[1, 0]",left,1,01,35,m,y,n,2019_Jul_12_1235,2AFC_task,59.95308071945958,
stimuli/rgb_scene000047_render000003.png,stimuli/rgb_scene000047_render000006.png,1,142,352,38,"[1, 0]",left,1,01,35,m,y,n,2019_Jul_12_1235,2AFC_task,59.95308071945958,
stimuli/rgb_scene000160_render000001.png,stimuli/rgb_scene000160_render000002.png,1,143,353,132,"[0, 1]",right,1,01,35,m,y,n,2019_Jul_12_1235,2AFC_task,59.95308071945958,
stimuli/rgb_scene000047_render000002.png,stimuli/rgb_scene000047_render000006.png,1,144,354,35,"[1, 0]",left,1,01,35,m,y,n,2019_Jul_12_1235,2AFC_task,59.95308071945958,
stimuli/rgb_scene000066_render000001.png,stimuli/rgb_scene000066_render000005.png,1,145,355,72,"[1, 0]",left,1,01,35,m,y,n,2019_Jul_12_1235,2AFC_task,59.95308071945958,
stimuli/rgb_scene000169_render000002.png,stimuli/rgb_scene000169_render000005.png,1,146,356,181,"[0, 1]",right,1,01,35,m,y,n,2019_Jul_12_1235,2AFC_task,59.95308071945958,
stimuli/rgb_scene000066_render000000.png,stimuli/rgb_scene000066_render000004.png,1,147,357,66,"[0, 1]",right,1,01,35,m,y,n,2019_Jul_12_1235,2AFC_task,59.95308071945958,
stimuli/rgb_scene000066_render000002.png,stimuli/rgb_scene000066_render000003.png,1,148,358,74,"[0, 1]",right,1,01,35,m,y,n,2019_Jul_12_1235,2AFC_task,59.95308071945958,
stimuli/rgb_scene000165_render000000.png,stimuli/rgb_scene000165_render000003.png,1,149,359,149,"[1, 0]",left,1,01,35,m,y,n,2019_Jul_12_1235,2AFC_task,59.95308071945958,
stimuli/rgb_scene000169_render000002.png,stimuli/rgb_scene000169_render000004.png,1,150,360,180,"[0, 1]",right,1,01,35,m,y,n,2019_Jul_12_1235,2AFC_task,59.95308071945958,
stimuli/rgb_scene000150_render000001.png,stimuli/rgb_scene000150_render000005.png,1,151,361,114,"[1, 0]",left,1,01,35,m,y,n,2019_Jul_12_1235,2AFC_task,59.95308071945958,
stimuli/rgb_scene000196_render000002.png,stimuli/rgb_scene000196_render000006.png,1,152,362,203,"[0, 1]",left,0,01,35,m,y,n,2019_Jul_12_1235,2AFC_task,59.95308071945958,
stimuli/rgb_scene000147_render000002.png,stimuli/rgb_scene000147_render000003.png,1,153,363,95,"[0, 1]",right,1,01,35,m,y,n,2019_Jul_12_1235,2AFC_task,59.95308071945958,
stimuli/rgb_scene000150_render000000.png,stimuli/rgb_scene000150_render000006.png,1,154,364,110,"[1, 0]",left,1,01,35,m,y,n,2019_Jul_12_1235,2AFC_task,59.95308071945958,
stimuli/rgb_scene000056_render000000.png,stimuli/rgb_scene000056_render000003.png,1,155,365,44,"[0, 1]",right,1,01,35,m,y,n,2019_Jul_12_1235,2AFC_task,59.95308071945958,
stimuli/rgb_scene000169_render000000.png,stimuli/rgb_scene000169_render000006.png,1,156,366,173,"[1, 0]",left,1,01,35,m,y,n,2019_Jul_12_1235,2AFC_task,59.95308071945958,
stimuli/rgb_scene000042_render000004.png,stimuli/rgb_scene000042_render000006.png,1,157,367,19,"[1, 0]",left,1,01,35,m,y,n,2019_Jul_12_1235,2AFC_task,59.95308071945958,
stimuli/rgb_scene000196_render000002.png,stimuli/rgb_scene000196_render000004.png,1,158,368,201,"[0, 1]",left,0,01,35,m,y,n,2019_Jul_12_1235,2AFC_task,59.95308071945958,
stimuli/rgb_scene000169_render000002.png,stimuli/rgb_scene000169_render000003.png,1,159,369,179,"[1, 0]",right,0,01,35,m,y,n,2019_Jul_12_1235,2AFC_task,59.95308071945958,
stimuli/rgb_scene000042_render000003.png,stimuli/rgb_scene000042_render000004.png,1,160,370,15,"[0, 1]",right,1,01,35,m,y,n,2019_Jul_12_1235,2AFC_task,59.95308071945958,
stimuli/rgb_scene000056_render000005.png,stimuli/rgb_scene000056_render000006.png,1,161,371,62,"[0, 1]",right,1,01,35,m,y,n,2019_Jul_12_1235,2AFC_task,59.95308071945958,
stimuli/rgb_scene000196_render000003.png,stimuli/rgb_scene000196_render000006.png,1,162,372,206,"[0, 1]",left,0,01,35,m,y,n,2019_Jul_12_1235,2AFC_task,59.95308071945958,
stimuli/rgb_scene000147_render000000.png,stimuli/rgb_scene000147_render000006.png,1,163,373,89,"[1, 0]",left,1,01,35,m,y,n,2019_Jul_12_1235,2AFC_task,59.95308071945958,
stimuli/rgb_scene000147_render000000.png,stimuli/rgb_scene000147_render000005.png,1,164,374,88,"[1, 0]",left,1,01,35,m,y,n,2019_Jul_12_1235,2AFC_task,59.95308071945958,
stimuli/rgb_scene000147_render000002.png,stimuli/rgb_scene000147_render000005.png,1,165,375,97,"[1, 0]",left,1,01,35,m,y,n,2019_Jul_12_1235,2AFC_task,59.95308071945958,
stimuli/rgb_scene000066_render000001.png,stimuli/rgb_scene000066_render000004.png,1,166,376,71,"[1, 0]",left,1,01,35,m,y,n,2019_Jul_12_1235,2AFC_task,59.95308071945958,
stimuli/rgb_scene000056_render000000.png,stimuli/rgb_scene000056_render000006.png,1,167,377,47,"[1, 0]",left,1,01,35,m,y,n,2019_Jul_12_1235,2AFC_task,59.95308071945958,
stimuli/rgb_scene000169_render000004.png,stimuli/rgb_scene000169_render000005.png,1,168,378,186,"[0, 1]",right,1,01,35,m,y,n,2019_Jul_12_1235,2AFC_task,59.95308071945958,
stimuli/rgb_scene000066_render000001.png,stimuli/rgb_scene000066_render000003.png,1,169,379,70,"[0, 1]",right,1,01,35,m,y,n,2019_Jul_12_1235,2AFC_task,59.95308071945958,
stimuli/rgb_scene000169_render000000.png,stimuli/rgb_scene000169_render000004.png,1,170,380,171,"[0, 1]",right,1,01,35,m,y,n,2019_Jul_12_1235,2AFC_task,59.95308071945958,
stimuli/rgb_scene000042_render000000.png,stimuli/rgb_scene000042_render000005.png,1,171,381,4,"[1, 0]",left,1,01,35,m,y,n,2019_Jul_12_1235,2AFC_task,59.95308071945958,
stimuli/rgb_scene000056_render000000.png,stimuli/rgb_scene000056_render000001.png,1,172,382,42,"[1, 0]",left,1,01,35,m,y,n,2019_Jul_12_1235,2AFC_task,59.95308071945958,
stimuli/rgb_scene000147_render000001.png,stimuli/rgb_scene000147_render000004.png,1,173,383,92,"[1, 0]",left,1,01,35,m,y,n,2019_Jul_12_1235,2AFC_task,59.95308071945958,
stimuli/rgb_scene000169_render000001.png,stimuli/rgb_scene000169_render000005.png,1,174,384,177,"[1, 0]",left,1,01,35,m,y,n,2019_Jul_12_1235,2AFC_task,59.95308071945958,
stimuli/rgb_scene000056_render000002.png,stimuli/rgb_scene000056_render000005.png,1,175,385,55,"[1, 0]",left,1,01,35,m,y,n,2019_Jul_12_1235,2AFC_task,59.95308071945958,
stimuli/rgb_scene000160_render000004.png,stimuli/rgb_scene000160_render000005.png,1,176,386,144,"[0, 1]",right,1,01,35,m,y,n,2019_Jul_12_1235,2AFC_task,59.95308071945958,
stimuli/rgb_scene000160_render000002.png,stimuli/rgb_scene000160_render000003.png,1,177,387,137,"[1, 0]",left,1,01,35,m,y,n,2019_Jul_12_1235,2AFC_task,59.95308071945958,
stimuli/rgb_scene000169_render000003.png,stimuli/rgb_scene000169_render000004.png,1,178,388,183,"[0, 1]",right,1,01,35,m,y,n,2019_Jul_12_1235,2AFC_task,59.95308071945958,
stimuli/rgb_scene000150_render000003.png,stimuli/rgb_scene000150_render000006.png,1,179,389,122,"[0, 1]",right,1,01,35,m,y,n,2019_Jul_12_1235,2AFC_task,59.95308071945958,
stimuli/rgb_scene000147_render000004.png,stimuli/rgb_scene000147_render000006.png,1,180,390,103,"[1, 0]",left,1,01,35,m,y,n,2019_Jul_12_1235,2AFC_task,59.95308071945958,
stimuli/rgb_scene000196_render000003.png,stimuli/rgb_scene000196_render000004.png,1,181,391,204,"[0, 1]",left,0,01,35,m,y,n,2019_Jul_12_1235,2AFC_task,59.95308071945958,
stimuli/rgb_scene000160_render000003.png,stimuli/rgb_scene000160_render000006.png,1,182,392,143,"[0, 1]",right,1,01,35,m,y,n,2019_Jul_12_1235,2AFC_task,59.95308071945958,
stimuli/rgb_scene000165_render000003.png,stimuli/rgb_scene000165_render000006.png,1,183,393,164,"[1, 0]",left,1,01,35,m,y,n,2019_Jul_12_1235,2AFC_task,59.95308071945958,
stimuli/rgb_scene000056_render000001.png,stimuli/rgb_scene000056_render000002.png,1,184,394,48,"[0, 1]",right,1,01,35,m,y,n,2019_Jul_12_1235,2AFC_task,59.95308071945958,
stimuli/rgb_scene000196_render000000.png,stimuli/rgb_scene000196_render000006.png,1,185,395,194,"[1, 0]",right,0,01,35,m,y,n,2019_Jul_12_1235,2AFC_task,59.95308071945958,
stimuli/rgb_scene000160_render000001.png,stimuli/rgb_scene000160_render000005.png,1,186,396,135,"[1, 0]",left,1,01,35,m,y,n,2019_Jul_12_1235,2AFC_task,59.95308071945958,
stimuli/rgb_scene000066_render000001.png,stimuli/rgb_scene000066_render000002.png,1,187,397,69,"[1, 0]",left,1,01,35,m,y,n,2019_Jul_12_1235,2AFC_task,59.95308071945958,
stimuli/rgb_scene000047_render000005.png,stimuli/rgb_scene000047_render000006.png,1,188,398,41,"[0, 1]",right,1,01,35,m,y,n,2019_Jul_12_1235,2AFC_task,59.95308071945958,
stimuli/rgb_scene000147_render000005.png,stimuli/rgb_scene000147_render000006.png,1,189,399,104,"[0, 1]",right,1,01,35,m,y,n,2019_Jul_12_1235,2AFC_task,59.95308071945958,
stimuli/rgb_scene000169_render000001.png,stimuli/rgb_scene000169_render000002.png,1,190,400,174,"[1, 0]",right,0,01,35,m,y,n,2019_Jul_12_1235,2AFC_task,59.95308071945958,
stimuli/rgb_scene000047_render000000.png,stimuli/rgb_scene000047_render000002.png,1,191,401,22,"[1, 0]",left,1,01,35,m,y,n,2019_Jul_12_1235,2AFC_task,59.95308071945958,
stimuli/rgb_scene000056_render000003.png,stimuli/rgb_scene000056_render000005.png,1,192,402,58,"[1, 0]",left,1,01,35,m,y,n,2019_Jul_12_1235,2AFC_task,59.95308071945958,
stimuli/rgb_scene000196_render000000.png,stimuli/rgb_scene000196_render000003.png,1,193,403,191,"[0, 1]",left,0,01,35,m,y,n,2019_Jul_12_1235,2AFC_task,59.95308071945958,
stimuli/rgb_scene000150_render000001.png,stimuli/rgb_scene000150_render000003.png,1,194,404,112,"[1, 0]",left,1,01,35,m,y,n,2019_Jul_12_1235,2AFC_task,59.95308071945958,
stimuli/rgb_scene000165_render000002.png,stimuli/rgb_scene000165_render000004.png,1,195,405,159,"[0, 1]",right,1,01,35,m,y,n,2019_Jul_12_1235,2AFC_task,59.95308071945958,
stimuli/rgb_scene000160_render000000.png,stimuli/rgb_scene000160_render000003.png,1,196,406,128,"[1, 0]",left,1,01,35,m,y,n,2019_Jul_12_1235,2AFC_task,59.95308071945958,
stimuli/rgb_scene000196_render000002.png,stimuli/rgb_scene000196_render000003.png,1,197,407,200,"[1, 0]",left,1,01,35,m,y,n,2019_Jul_12_1235,2AFC_task,59.95308071945958,
stimuli/rgb_scene000169_render000004.png,stimuli/rgb_scene000169_render000006.png,1,198,408,187,"[0, 1]",right,1,01,35,m,y,n,2019_Jul_12_1235,2AFC_task,59.95308071945958,
stimuli/rgb_scene000047_render000002.png,stimuli/rgb_scene000047_render000005.png,1,199,409,34,"[0, 1]",right,1,01,35,m,y,n,2019_Jul_12_1235,2AFC_task,59.95308071945958,
stimuli/rgb_scene000196_render000005.png,stimuli/rgb_scene000196_render000006.png,1,200,410,209,"[0, 1]",left,0,01,35,m,y,n,2019_Jul_12_1235,2AFC_task,59.95308071945958,
stimuli/rgb_scene000056_render000002.png,stimuli/rgb_scene000056_render000004.png,1,201,411,54,"[0, 1]",right,1,01,35,m,y,n,2019_Jul_12_1235,2AFC_task,59.95308071945958,
stimuli/rgb_scene000066_render000000.png,stimuli/rgb_scene000066_render000002.png,1,202,412,64,"[1, 0]",left,1,01,35,m,y,n,2019_Jul_12_1235,2AFC_task,59.95308071945958,
stimuli/rgb_scene000042_render000000.png,stimuli/rgb_scene000042_render000001.png,1,203,413,0,"[0, 1]",right,1,01,35,m,y,n,2019_Jul_12_1235,2AFC_task,59.95308071945958,
stimuli/rgb_scene000169_render000000.png,stimuli/rgb_scene000169_render000002.png,1,204,414,169,"[1, 0]",left,1,01,35,m,y,n,2019_Jul_12_1235,2AFC_task,59.95308071945958,
stimuli/rgb_scene000160_render000003.png,stimuli/rgb_scene000160_render000005.png,1,205,415,142,"[1, 0]",left,1,01,35,m,y,n,2019_Jul_12_1235,2AFC_task,59.95308071945958,
stimuli/rgb_scene000165_render000001.png,stimuli/rgb_scene000165_render000005.png,1,206,416,156,"[0, 1]",right,1,01,35,m,y,n,2019_Jul_12_1235,2AFC_task,59.95308071945958,
stimuli/rgb_scene000165_render000003.png,stimuli/rgb_scene000165_render000004.png,1,207,417,162,"[1, 0]",left,1,01,35,m,y,n,2019_Jul_12_1235,2AFC_task,59.95308071945958,
stimuli/rgb_scene000047_render000002.png,stimuli/rgb_scene000047_render000003.png,1,208,418,32,"[0, 1]",right,1,01,35,m,y,n,2019_Jul_12_1235,2AFC_task,59.95308071945958,
stimuli/rgb_scene000047_render000001.png,stimuli/rgb_scene000047_render000002.png,1,209,419,27,"[0, 1]",right,1,01,35,m,y,n,2019_Jul_12_1235,2AFC_task,59.95308071945958,
