stimOne,stimTwo,trials_1.thisRepN,trials_1.thisTrialN,trials_1.thisN,trials_1.thisIndex,presentation_positions,resp_key,corresponding_image,participant ID (two digits, e.g. 01),age,gender (m/f/-),normal or corrected-to-normal vision (y/n),normal colour vision (y/n),date,expName,frameRate,
stimuli/rgb_scene000169_render000000.png,stimuli/rgb_scene000169_render000005.png,0,0,0,172,"[1, 0]",right,0,11,22,f,y,y,2019_Jul_11_1009,2AFC_task,59.948875572531655,
stimuli/rgb_scene000047_render000003.png,stimuli/rgb_scene000047_render000005.png,0,1,1,37,"[0, 1]",right,1,11,22,f,y,y,2019_Jul_11_1009,2AFC_task,59.948875572531655,
stimuli/rgb_scene000042_render000002.png,stimuli/rgb_scene000042_render000004.png,0,2,2,12,"[1, 0]",left,1,11,22,f,y,y,2019_Jul_11_1009,2AFC_task,59.948875572531655,
stimuli/rgb_scene000150_render000005.png,stimuli/rgb_scene000150_render000006.png,0,3,3,125,"[1, 0]",right,0,11,22,f,y,y,2019_Jul_11_1009,2AFC_task,59.948875572531655,
stimuli/rgb_scene000047_render000002.png,stimuli/rgb_scene000047_render000005.png,0,4,4,34,"[0, 1]",right,1,11,22,f,y,y,2019_Jul_11_1009,2AFC_task,59.948875572531655,
stimuli/rgb_scene000196_render000000.png,stimuli/rgb_scene000196_render000004.png,0,5,5,192,"[0, 1]",left,0,11,22,f,y,y,2019_Jul_11_1009,2AFC_task,59.948875572531655,
stimuli/rgb_scene000160_render000002.png,stimuli/rgb_scene000160_render000005.png,0,6,6,139,"[1, 0]",left,1,11,22,f,y,y,2019_Jul_11_1009,2AFC_task,59.948875572531655,
stimuli/rgb_scene000042_render000003.png,stimuli/rgb_scene000042_render000005.png,0,7,7,16,"[1, 0]",left,1,11,22,f,y,y,2019_Jul_11_1009,2AFC_task,59.948875572531655,
stimuli/rgb_scene000196_render000002.png,stimuli/rgb_scene000196_render000003.png,0,8,8,200,"[0, 1]",right,1,11,22,f,y,y,2019_Jul_11_1009,2AFC_task,59.948875572531655,
stimuli/rgb_scene000066_render000002.png,stimuli/rgb_scene000066_render000006.png,0,9,9,77,"[1, 0]",left,1,11,22,f,y,y,2019_Jul_11_1009,2AFC_task,59.948875572531655,
stimuli/rgb_scene000047_render000002.png,stimuli/rgb_scene000047_render000004.png,0,10,10,33,"[0, 1]",right,1,11,22,f,y,y,2019_Jul_11_1009,2AFC_task,59.948875572531655,
stimuli/rgb_scene000047_render000001.png,stimuli/rgb_scene000047_render000004.png,0,11,11,29,"[1, 0]",left,1,11,22,f,y,y,2019_Jul_11_1009,2AFC_task,59.948875572531655,
stimuli/rgb_scene000196_render000000.png,stimuli/rgb_scene000196_render000002.png,0,12,12,190,"[0, 1]",left,0,11,22,f,y,y,2019_Jul_11_1009,2AFC_task,59.948875572531655,
stimuli/rgb_scene000147_render000002.png,stimuli/rgb_scene000147_render000004.png,0,13,13,96,"[1, 0]",left,1,11,22,f,y,y,2019_Jul_11_1009,2AFC_task,59.948875572531655,
stimuli/rgb_scene000047_render000000.png,stimuli/rgb_scene000047_render000003.png,0,14,14,23,"[0, 1]",right,1,11,22,f,y,y,2019_Jul_11_1009,2AFC_task,59.948875572531655,
stimuli/rgb_scene000150_render000002.png,stimuli/rgb_scene000150_render000006.png,0,15,15,119,"[0, 1]",left,0,11,22,f,y,y,2019_Jul_11_1009,2AFC_task,59.948875572531655,
stimuli/rgb_scene000160_render000000.png,stimuli/rgb_scene000160_render000002.png,0,16,16,127,"[0, 1]",left,0,11,22,f,y,y,2019_Jul_11_1009,2AFC_task,59.948875572531655,
stimuli/rgb_scene000042_render000005.png,stimuli/rgb_scene000042_render000006.png,0,17,17,20,"[0, 1]",right,1,11,22,f,y,y,2019_Jul_11_1009,2AFC_task,59.948875572531655,
stimuli/rgb_scene000150_render000003.png,stimuli/rgb_scene000150_render000006.png,0,18,18,122,"[1, 0]",left,1,11,22,f,y,y,2019_Jul_11_1009,2AFC_task,59.948875572531655,
stimuli/rgb_scene000147_render000003.png,stimuli/rgb_scene000147_render000005.png,0,19,19,100,"[1, 0]",left,1,11,22,f,y,y,2019_Jul_11_1009,2AFC_task,59.948875572531655,
stimuli/rgb_scene000196_render000003.png,stimuli/rgb_scene000196_render000004.png,0,20,20,204,"[0, 1]",left,0,11,22,f,y,y,2019_Jul_11_1009,2AFC_task,59.948875572531655,
stimuli/rgb_scene000047_render000001.png,stimuli/rgb_scene000047_render000003.png,0,21,21,28,"[1, 0]",left,1,11,22,f,y,y,2019_Jul_11_1009,2AFC_task,59.948875572531655,
stimuli/rgb_scene000042_render000001.png,stimuli/rgb_scene000042_render000002.png,0,22,22,6,"[0, 1]",left,0,11,22,f,y,y,2019_Jul_11_1009,2AFC_task,59.948875572531655,
stimuli/rgb_scene000196_render000004.png,stimuli/rgb_scene000196_render000005.png,0,23,23,207,"[0, 1]",left,0,11,22,f,y,y,2019_Jul_11_1009,2AFC_task,59.948875572531655,
stimuli/rgb_scene000066_render000000.png,stimuli/rgb_scene000066_render000004.png,0,24,24,66,"[1, 0]",left,1,11,22,f,y,y,2019_Jul_11_1009,2AFC_task,59.948875572531655,
stimuli/rgb_scene000196_render000001.png,stimuli/rgb_scene000196_render000002.png,0,25,25,195,"[1, 0]",left,1,11,22,f,y,y,2019_Jul_11_1009,2AFC_task,59.948875572531655,
stimuli/rgb_scene000047_render000003.png,stimuli/rgb_scene000047_render000006.png,0,26,26,38,"[0, 1]",right,1,11,22,f,y,y,2019_Jul_11_1009,2AFC_task,59.948875572531655,
stimuli/rgb_scene000147_render000003.png,stimuli/rgb_scene000147_render000004.png,0,27,27,99,"[0, 1]",right,1,11,22,f,y,y,2019_Jul_11_1009,2AFC_task,59.948875572531655,
stimuli/rgb_scene000169_render000004.png,stimuli/rgb_scene000169_render000006.png,0,28,28,187,"[0, 1]",right,1,11,22,f,y,y,2019_Jul_11_1009,2AFC_task,59.948875572531655,
stimuli/rgb_scene000056_render000003.png,stimuli/rgb_scene000056_render000006.png,0,29,29,59,"[0, 1]",right,1,11,22,f,y,y,2019_Jul_11_1009,2AFC_task,59.948875572531655,
stimuli/rgb_scene000160_render000004.png,stimuli/rgb_scene000160_render000005.png,0,30,30,144,"[0, 1]",left,0,11,22,f,y,y,2019_Jul_11_1009,2AFC_task,59.948875572531655,
stimuli/rgb_scene000150_render000001.png,stimuli/rgb_scene000150_render000005.png,0,31,31,114,"[0, 1]",right,1,11,22,f,y,y,2019_Jul_11_1009,2AFC_task,59.948875572531655,
stimuli/rgb_scene000047_render000001.png,stimuli/rgb_scene000047_render000006.png,0,32,32,31,"[0, 1]",right,1,11,22,f,y,y,2019_Jul_11_1009,2AFC_task,59.948875572531655,
stimuli/rgb_scene000169_render000000.png,stimuli/rgb_scene000169_render000004.png,0,33,33,171,"[0, 1]",left,0,11,22,f,y,y,2019_Jul_11_1009,2AFC_task,59.948875572531655,
stimuli/rgb_scene000042_render000000.png,stimuli/rgb_scene000042_render000001.png,0,34,34,0,"[0, 1]",right,1,11,22,f,y,y,2019_Jul_11_1009,2AFC_task,59.948875572531655,
stimuli/rgb_scene000165_render000000.png,stimuli/rgb_scene000165_render000003.png,0,35,35,149,"[0, 1]",left,0,11,22,f,y,y,2019_Jul_11_1009,2AFC_task,59.948875572531655,
stimuli/rgb_scene000160_render000004.png,stimuli/rgb_scene000160_render000006.png,0,36,36,145,"[1, 0]",left,1,11,22,f,y,y,2019_Jul_11_1009,2AFC_task,59.948875572531655,
stimuli/rgb_scene000056_render000004.png,stimuli/rgb_scene000056_render000006.png,0,37,37,61,"[1, 0]",left,1,11,22,f,y,y,2019_Jul_11_1009,2AFC_task,59.948875572531655,
stimuli/rgb_scene000147_render000000.png,stimuli/rgb_scene000147_render000003.png,0,38,38,86,"[0, 1]",right,1,11,22,f,y,y,2019_Jul_11_1009,2AFC_task,59.948875572531655,
stimuli/rgb_scene000160_render000002.png,stimuli/rgb_scene000160_render000004.png,0,39,39,138,"[1, 0]",left,1,11,22,f,y,y,2019_Jul_11_1009,2AFC_task,59.948875572531655,
stimuli/rgb_scene000196_render000003.png,stimuli/rgb_scene000196_render000006.png,0,40,40,206,"[1, 0]",right,0,11,22,f,y,y,2019_Jul_11_1009,2AFC_task,59.948875572531655,
stimuli/rgb_scene000042_render000001.png,stimuli/rgb_scene000042_render000006.png,0,41,41,10,"[0, 1]",right,1,11,22,f,y,y,2019_Jul_11_1009,2AFC_task,59.948875572531655,
stimuli/rgb_scene000047_render000000.png,stimuli/rgb_scene000047_render000005.png,0,42,42,25,"[0, 1]",right,1,11,22,f,y,y,2019_Jul_11_1009,2AFC_task,59.948875572531655,
stimuli/rgb_scene000196_render000000.png,stimuli/rgb_scene000196_render000006.png,0,43,43,194,"[0, 1]",left,0,11,22,f,y,y,2019_Jul_11_1009,2AFC_task,59.948875572531655,
stimuli/rgb_scene000056_render000003.png,stimuli/rgb_scene000056_render000005.png,0,44,44,58,"[1, 0]",left,1,11,22,f,y,y,2019_Jul_11_1009,2AFC_task,59.948875572531655,
stimuli/rgb_scene000147_render000000.png,stimuli/rgb_scene000147_render000004.png,0,45,45,87,"[0, 1]",right,1,11,22,f,y,y,2019_Jul_11_1009,2AFC_task,59.948875572531655,
stimuli/rgb_scene000066_render000002.png,stimuli/rgb_scene000066_render000003.png,0,46,46,74,"[0, 1]",right,1,11,22,f,y,y,2019_Jul_11_1009,2AFC_task,59.948875572531655,
stimuli/rgb_scene000066_render000002.png,stimuli/rgb_scene000066_render000004.png,0,47,47,75,"[1, 0]",left,1,11,22,f,y,y,2019_Jul_11_1009,2AFC_task,59.948875572531655,
stimuli/rgb_scene000150_render000001.png,stimuli/rgb_scene000150_render000002.png,0,48,48,111,"[1, 0]",left,1,11,22,f,y,y,2019_Jul_11_1009,2AFC_task,59.948875572531655,
stimuli/rgb_scene000160_render000002.png,stimuli/rgb_scene000160_render000003.png,0,49,49,137,"[1, 0]",left,1,11,22,f,y,y,2019_Jul_11_1009,2AFC_task,59.948875572531655,
stimuli/rgb_scene000042_render000000.png,stimuli/rgb_scene000042_render000003.png,0,50,50,2,"[1, 0]",left,1,11,22,f,y,y,2019_Jul_11_1009,2AFC_task,59.948875572531655,
stimuli/rgb_scene000165_render000004.png,stimuli/rgb_scene000165_render000006.png,0,51,51,166,"[1, 0]",left,1,11,22,f,y,y,2019_Jul_11_1009,2AFC_task,59.948875572531655,
stimuli/rgb_scene000056_render000002.png,stimuli/rgb_scene000056_render000004.png,0,52,52,54,"[0, 1]",right,1,11,22,f,y,y,2019_Jul_11_1009,2AFC_task,59.948875572531655,
stimuli/rgb_scene000196_render000001.png,stimuli/rgb_scene000196_render000006.png,0,53,53,199,"[1, 0]",left,1,11,22,f,y,y,2019_Jul_11_1009,2AFC_task,59.948875572531655,
stimuli/rgb_scene000056_render000001.png,stimuli/rgb_scene000056_render000006.png,0,54,54,52,"[1, 0]",left,1,11,22,f,y,y,2019_Jul_11_1009,2AFC_task,59.948875572531655,
stimuli/rgb_scene000056_render000004.png,stimuli/rgb_scene000056_render000005.png,0,55,55,60,"[0, 1]",right,1,11,22,f,y,y,2019_Jul_11_1009,2AFC_task,59.948875572531655,
stimuli/rgb_scene000147_render000000.png,stimuli/rgb_scene000147_render000005.png,0,56,56,88,"[0, 1]",right,1,11,22,f,y,y,2019_Jul_11_1009,2AFC_task,59.948875572531655,
stimuli/rgb_scene000196_render000002.png,stimuli/rgb_scene000196_render000005.png,0,57,57,202,"[0, 1]",left,0,11,22,f,y,y,2019_Jul_11_1009,2AFC_task,59.948875572531655,
stimuli/rgb_scene000169_render000002.png,stimuli/rgb_scene000169_render000005.png,0,58,58,181,"[0, 1]",left,0,11,22,f,y,y,2019_Jul_11_1009,2AFC_task,59.948875572531655,
stimuli/rgb_scene000042_render000003.png,stimuli/rgb_scene000042_render000006.png,0,59,59,17,"[0, 1]",left,0,11,22,f,y,y,2019_Jul_11_1009,2AFC_task,59.948875572531655,
stimuli/rgb_scene000165_render000002.png,stimuli/rgb_scene000165_render000006.png,0,60,60,161,"[1, 0]",left,1,11,22,f,y,y,2019_Jul_11_1009,2AFC_task,59.948875572531655,
stimuli/rgb_scene000056_render000002.png,stimuli/rgb_scene000056_render000005.png,0,61,61,55,"[1, 0]",left,1,11,22,f,y,y,2019_Jul_11_1009,2AFC_task,59.948875572531655,
stimuli/rgb_scene000196_render000001.png,stimuli/rgb_scene000196_render000005.png,0,62,62,198,"[0, 1]",right,1,11,22,f,y,y,2019_Jul_11_1009,2AFC_task,59.948875572531655,
stimuli/rgb_scene000150_render000004.png,stimuli/rgb_scene000150_render000006.png,0,63,63,124,"[0, 1]",right,1,11,22,f,y,y,2019_Jul_11_1009,2AFC_task,59.948875572531655,
stimuli/rgb_scene000165_render000003.png,stimuli/rgb_scene000165_render000004.png,0,64,64,162,"[0, 1]",right,1,11,22,f,y,y,2019_Jul_11_1009,2AFC_task,59.948875572531655,
stimuli/rgb_scene000042_render000002.png,stimuli/rgb_scene000042_render000006.png,0,65,65,14,"[1, 0]",left,1,11,22,f,y,y,2019_Jul_11_1009,2AFC_task,59.948875572531655,
stimuli/rgb_scene000047_render000000.png,stimuli/rgb_scene000047_render000001.png,0,66,66,21,"[1, 0]",left,1,11,22,f,y,y,2019_Jul_11_1009,2AFC_task,59.948875572531655,
stimuli/rgb_scene000047_render000002.png,stimuli/rgb_scene000047_render000003.png,0,67,67,32,"[1, 0]",left,1,11,22,f,y,y,2019_Jul_11_1009,2AFC_task,59.948875572531655,
stimuli/rgb_scene000169_render000002.png,stimuli/rgb_scene000169_render000006.png,0,68,68,182,"[1, 0]",right,0,11,22,f,y,y,2019_Jul_11_1009,2AFC_task,59.948875572531655,
stimuli/rgb_scene000047_render000000.png,stimuli/rgb_scene000047_render000004.png,0,69,69,24,"[0, 1]",right,1,11,22,f,y,y,2019_Jul_11_1009,2AFC_task,59.948875572531655,
stimuli/rgb_scene000165_render000001.png,stimuli/rgb_scene000165_render000002.png,0,70,70,153,"[1, 0]",left,1,11,22,f,y,y,2019_Jul_11_1009,2AFC_task,59.948875572531655,
stimuli/rgb_scene000196_render000002.png,stimuli/rgb_scene000196_render000004.png,0,71,71,201,"[1, 0]",left,1,11,22,f,y,y,2019_Jul_11_1009,2AFC_task,59.948875572531655,
stimuli/rgb_scene000066_render000000.png,stimuli/rgb_scene000066_render000006.png,0,72,72,68,"[1, 0]",left,1,11,22,f,y,y,2019_Jul_11_1009,2AFC_task,59.948875572531655,
stimuli/rgb_scene000056_render000001.png,stimuli/rgb_scene000056_render000003.png,0,73,73,49,"[1, 0]",left,1,11,22,f,y,y,2019_Jul_11_1009,2AFC_task,59.948875572531655,
stimuli/rgb_scene000066_render000004.png,stimuli/rgb_scene000066_render000005.png,0,74,74,81,"[0, 1]",left,0,11,22,f,y,y,2019_Jul_11_1009,2AFC_task,59.948875572531655,
stimuli/rgb_scene000165_render000001.png,stimuli/rgb_scene000165_render000003.png,0,75,75,154,"[0, 1]",right,1,11,22,f,y,y,2019_Jul_11_1009,2AFC_task,59.948875572531655,
stimuli/rgb_scene000150_render000000.png,stimuli/rgb_scene000150_render000002.png,0,76,76,106,"[1, 0]",left,1,11,22,f,y,y,2019_Jul_11_1009,2AFC_task,59.948875572531655,
stimuli/rgb_scene000047_render000002.png,stimuli/rgb_scene000047_render000006.png,0,77,77,35,"[1, 0]",left,1,11,22,f,y,y,2019_Jul_11_1009,2AFC_task,59.948875572531655,
stimuli/rgb_scene000147_render000002.png,stimuli/rgb_scene000147_render000003.png,0,78,78,95,"[0, 1]",right,1,11,22,f,y,y,2019_Jul_11_1009,2AFC_task,59.948875572531655,
stimuli/rgb_scene000047_render000004.png,stimuli/rgb_scene000047_render000006.png,0,79,79,40,"[1, 0]",left,1,11,22,f,y,y,2019_Jul_11_1009,2AFC_task,59.948875572531655,
stimuli/rgb_scene000147_render000001.png,stimuli/rgb_scene000147_render000005.png,0,80,80,93,"[1, 0]",left,1,11,22,f,y,y,2019_Jul_11_1009,2AFC_task,59.948875572531655,
stimuli/rgb_scene000066_render000000.png,stimuli/rgb_scene000066_render000003.png,0,81,81,65,"[0, 1]",right,1,11,22,f,y,y,2019_Jul_11_1009,2AFC_task,59.948875572531655,
stimuli/rgb_scene000056_render000000.png,stimuli/rgb_scene000056_render000006.png,0,82,82,47,"[1, 0]",left,1,11,22,f,y,y,2019_Jul_11_1009,2AFC_task,59.948875572531655,
stimuli/rgb_scene000042_render000002.png,stimuli/rgb_scene000042_render000005.png,0,83,83,13,"[1, 0]",left,1,11,22,f,y,y,2019_Jul_11_1009,2AFC_task,59.948875572531655,
stimuli/rgb_scene000147_render000005.png,stimuli/rgb_scene000147_render000006.png,0,84,84,104,"[0, 1]",right,1,11,22,f,y,y,2019_Jul_11_1009,2AFC_task,59.948875572531655,
stimuli/rgb_scene000160_render000001.png,stimuli/rgb_scene000160_render000003.png,0,85,85,133,"[1, 0]",left,1,11,22,f,y,y,2019_Jul_11_1009,2AFC_task,59.948875572531655,
stimuli/rgb_scene000169_render000000.png,stimuli/rgb_scene000169_render000002.png,0,86,86,169,"[1, 0]",right,0,11,22,f,y,y,2019_Jul_11_1009,2AFC_task,59.948875572531655,
stimuli/rgb_scene000066_render000001.png,stimuli/rgb_scene000066_render000003.png,0,87,87,70,"[1, 0]",left,1,11,22,f,y,y,2019_Jul_11_1009,2AFC_task,59.948875572531655,
stimuli/rgb_scene000169_render000000.png,stimuli/rgb_scene000169_render000001.png,0,88,88,168,"[0, 1]",right,1,11,22,f,y,y,2019_Jul_11_1009,2AFC_task,59.948875572531655,
stimuli/rgb_scene000150_render000000.png,stimuli/rgb_scene000150_render000005.png,0,89,89,109,"[0, 1]",right,1,11,22,f,y,y,2019_Jul_11_1009,2AFC_task,59.948875572531655,
stimuli/rgb_scene000165_render000002.png,stimuli/rgb_scene000165_render000004.png,0,90,90,159,"[0, 1]",right,1,11,22,f,y,y,2019_Jul_11_1009,2AFC_task,59.948875572531655,
stimuli/rgb_scene000150_render000000.png,stimuli/rgb_scene000150_render000004.png,0,91,91,108,"[0, 1]",right,1,11,22,f,y,y,2019_Jul_11_1009,2AFC_task,59.948875572531655,
stimuli/rgb_scene000056_render000001.png,stimuli/rgb_scene000056_render000004.png,0,92,92,50,"[1, 0]",left,1,11,22,f,y,y,2019_Jul_11_1009,2AFC_task,59.948875572531655,
stimuli/rgb_scene000160_render000000.png,stimuli/rgb_scene000160_render000004.png,0,93,93,129,"[1, 0]",left,1,11,22,f,y,y,2019_Jul_11_1009,2AFC_task,59.948875572531655,
stimuli/rgb_scene000150_render000001.png,stimuli/rgb_scene000150_render000003.png,0,94,94,112,"[1, 0]",left,1,11,22,f,y,y,2019_Jul_11_1009,2AFC_task,59.948875572531655,
stimuli/rgb_scene000196_render000005.png,stimuli/rgb_scene000196_render000006.png,0,95,95,209,"[1, 0]",right,0,11,22,f,y,y,2019_Jul_11_1009,2AFC_task,59.948875572531655,
stimuli/rgb_scene000056_render000001.png,stimuli/rgb_scene000056_render000005.png,0,96,96,51,"[1, 0]",left,1,11,22,f,y,y,2019_Jul_11_1009,2AFC_task,59.948875572531655,
stimuli/rgb_scene000042_render000003.png,stimuli/rgb_scene000042_render000004.png,0,97,97,15,"[0, 1]",left,0,11,22,f,y,y,2019_Jul_11_1009,2AFC_task,59.948875572531655,
stimuli/rgb_scene000160_render000001.png,stimuli/rgb_scene000160_render000005.png,0,98,98,135,"[1, 0]",left,1,11,22,f,y,y,2019_Jul_11_1009,2AFC_task,59.948875572531655,
stimuli/rgb_scene000169_render000004.png,stimuli/rgb_scene000169_render000005.png,0,99,99,186,"[1, 0]",right,0,11,22,f,y,y,2019_Jul_11_1009,2AFC_task,59.948875572531655,
stimuli/rgb_scene000196_render000000.png,stimuli/rgb_scene000196_render000003.png,0,100,100,191,"[0, 1]",right,1,11,22,f,y,y,2019_Jul_11_1009,2AFC_task,59.948875572531655,
stimuli/rgb_scene000165_render000001.png,stimuli/rgb_scene000165_render000006.png,0,101,101,157,"[0, 1]",right,1,11,22,f,y,y,2019_Jul_11_1009,2AFC_task,59.948875572531655,
stimuli/rgb_scene000169_render000001.png,stimuli/rgb_scene000169_render000002.png,0,102,102,174,"[0, 1]",right,1,11,22,f,y,y,2019_Jul_11_1009,2AFC_task,59.948875572531655,
stimuli/rgb_scene000160_render000001.png,stimuli/rgb_scene000160_render000004.png,0,103,103,134,"[0, 1]",right,1,11,22,f,y,y,2019_Jul_11_1009,2AFC_task,59.948875572531655,
stimuli/rgb_scene000165_render000003.png,stimuli/rgb_scene000165_render000006.png,0,104,104,164,"[0, 1]",left,0,11,22,f,y,y,2019_Jul_11_1009,2AFC_task,59.948875572531655,
stimuli/rgb_scene000169_render000001.png,stimuli/rgb_scene000169_render000003.png,0,105,105,175,"[1, 0]",right,0,11,22,f,y,y,2019_Jul_11_1009,2AFC_task,59.948875572531655,
stimuli/rgb_scene000042_render000000.png,stimuli/rgb_scene000042_render000006.png,0,106,106,5,"[0, 1]",right,1,11,22,f,y,y,2019_Jul_11_1009,2AFC_task,59.948875572531655,
stimuli/rgb_scene000056_render000001.png,stimuli/rgb_scene000056_render000002.png,0,107,107,48,"[0, 1]",left,0,11,22,f,y,y,2019_Jul_11_1009,2AFC_task,59.948875572531655,
stimuli/rgb_scene000047_render000000.png,stimuli/rgb_scene000047_render000006.png,0,108,108,26,"[1, 0]",left,1,11,22,f,y,y,2019_Jul_11_1009,2AFC_task,59.948875572531655,
stimuli/rgb_scene000160_render000000.png,stimuli/rgb_scene000160_render000001.png,0,109,109,126,"[0, 1]",right,1,11,22,f,y,y,2019_Jul_11_1009,2AFC_task,59.948875572531655,
stimuli/rgb_scene000066_render000001.png,stimuli/rgb_scene000066_render000004.png,0,110,110,71,"[0, 1]",right,1,11,22,f,y,y,2019_Jul_11_1009,2AFC_task,59.948875572531655,
stimuli/rgb_scene000160_render000003.png,stimuli/rgb_scene000160_render000005.png,0,111,111,142,"[1, 0]",left,1,11,22,f,y,y,2019_Jul_11_1009,2AFC_task,59.948875572531655,
stimuli/rgb_scene000042_render000004.png,stimuli/rgb_scene000042_render000005.png,0,112,112,18,"[1, 0]",left,1,11,22,f,y,y,2019_Jul_11_1009,2AFC_task,59.948875572531655,
stimuli/rgb_scene000160_render000001.png,stimuli/rgb_scene000160_render000006.png,0,113,113,136,"[0, 1]",right,1,11,22,f,y,y,2019_Jul_11_1009,2AFC_task,59.948875572531655,
stimuli/rgb_scene000047_render000001.png,stimuli/rgb_scene000047_render000002.png,0,114,114,27,"[1, 0]",left,1,11,22,f,y,y,2019_Jul_11_1009,2AFC_task,59.948875572531655,
stimuli/rgb_scene000169_render000003.png,stimuli/rgb_scene000169_render000005.png,0,115,115,184,"[1, 0]",right,0,11,22,f,y,y,2019_Jul_11_1009,2AFC_task,59.948875572531655,
stimuli/rgb_scene000196_render000000.png,stimuli/rgb_scene000196_render000001.png,0,116,116,189,"[0, 1]",left,0,11,22,f,y,y,2019_Jul_11_1009,2AFC_task,59.948875572531655,
stimuli/rgb_scene000150_render000002.png,stimuli/rgb_scene000150_render000005.png,0,117,117,118,"[0, 1]",right,1,11,22,f,y,y,2019_Jul_11_1009,2AFC_task,59.948875572531655,
stimuli/rgb_scene000160_render000000.png,stimuli/rgb_scene000160_render000003.png,0,118,118,128,"[1, 0]",left,1,11,22,f,y,y,2019_Jul_11_1009,2AFC_task,59.948875572531655,
stimuli/rgb_scene000147_render000002.png,stimuli/rgb_scene000147_render000006.png,0,119,119,98,"[0, 1]",right,1,11,22,f,y,y,2019_Jul_11_1009,2AFC_task,59.948875572531655,
stimuli/rgb_scene000165_render000000.png,stimuli/rgb_scene000165_render000001.png,0,120,120,147,"[1, 0]",left,1,11,22,f,y,y,2019_Jul_11_1009,2AFC_task,59.948875572531655,
stimuli/rgb_scene000066_render000000.png,stimuli/rgb_scene000066_render000002.png,0,121,121,64,"[1, 0]",left,1,11,22,f,y,y,2019_Jul_11_1009,2AFC_task,59.948875572531655,
stimuli/rgb_scene000147_render000001.png,stimuli/rgb_scene000147_render000004.png,0,122,122,92,"[0, 1]",right,1,11,22,f,y,y,2019_Jul_11_1009,2AFC_task,59.948875572531655,
stimuli/rgb_scene000196_render000001.png,stimuli/rgb_scene000196_render000004.png,0,123,123,197,"[1, 0]",left,1,11,22,f,y,y,2019_Jul_11_1009,2AFC_task,59.948875572531655,
stimuli/rgb_scene000066_render000001.png,stimuli/rgb_scene000066_render000005.png,0,124,124,72,"[1, 0]",left,1,11,22,f,y,y,2019_Jul_11_1009,2AFC_task,59.948875572531655,
stimuli/rgb_scene000047_render000000.png,stimuli/rgb_scene000047_render000002.png,0,125,125,22,"[1, 0]",left,1,11,22,f,y,y,2019_Jul_11_1009,2AFC_task,59.948875572531655,
stimuli/rgb_scene000047_render000003.png,stimuli/rgb_scene000047_render000004.png,0,126,126,36,"[1, 0]",left,1,11,22,f,y,y,2019_Jul_11_1009,2AFC_task,59.948875572531655,
stimuli/rgb_scene000150_render000000.png,stimuli/rgb_scene000150_render000006.png,0,127,127,110,"[1, 0]",left,1,11,22,f,y,y,2019_Jul_11_1009,2AFC_task,59.948875572531655,
stimuli/rgb_scene000169_render000001.png,stimuli/rgb_scene000169_render000006.png,0,128,128,178,"[0, 1]",right,1,11,22,f,y,y,2019_Jul_11_1009,2AFC_task,59.948875572531655,
stimuli/rgb_scene000150_render000001.png,stimuli/rgb_scene000150_render000006.png,0,129,129,115,"[0, 1]",right,1,11,22,f,y,y,2019_Jul_11_1009,2AFC_task,59.948875572531655,
stimuli/rgb_scene000150_render000003.png,stimuli/rgb_scene000150_render000004.png,0,130,130,120,"[0, 1]",left,0,11,22,f,y,y,2019_Jul_11_1009,2AFC_task,59.948875572531655,
stimuli/rgb_scene000169_render000000.png,stimuli/rgb_scene000169_render000003.png,0,131,131,170,"[1, 0]",left,1,11,22,f,y,y,2019_Jul_11_1009,2AFC_task,59.948875572531655,
stimuli/rgb_scene000165_render000000.png,stimuli/rgb_scene000165_render000002.png,0,132,132,148,"[0, 1]",right,1,11,22,f,y,y,2019_Jul_11_1009,2AFC_task,59.948875572531655,
stimuli/rgb_scene000150_render000002.png,stimuli/rgb_scene000150_render000004.png,0,133,133,117,"[0, 1]",right,1,11,22,f,y,y,2019_Jul_11_1009,2AFC_task,59.948875572531655,
stimuli/rgb_scene000056_render000003.png,stimuli/rgb_scene000056_render000004.png,0,134,134,57,"[1, 0]",right,0,11,22,f,y,y,2019_Jul_11_1009,2AFC_task,59.948875572531655,
stimuli/rgb_scene000066_render000005.png,stimuli/rgb_scene000066_render000006.png,0,135,135,83,"[1, 0]",left,1,11,22,f,y,y,2019_Jul_11_1009,2AFC_task,59.948875572531655,
stimuli/rgb_scene000165_render000004.png,stimuli/rgb_scene000165_render000005.png,0,136,136,165,"[0, 1]",right,1,11,22,f,y,y,2019_Jul_11_1009,2AFC_task,59.948875572531655,
stimuli/rgb_scene000169_render000000.png,stimuli/rgb_scene000169_render000006.png,0,137,137,173,"[0, 1]",right,1,11,22,f,y,y,2019_Jul_11_1009,2AFC_task,59.948875572531655,
stimuli/rgb_scene000150_render000000.png,stimuli/rgb_scene000150_render000001.png,0,138,138,105,"[1, 0]",left,1,11,22,f,y,y,2019_Jul_11_1009,2AFC_task,59.948875572531655,
stimuli/rgb_scene000160_render000003.png,stimuli/rgb_scene000160_render000006.png,0,139,139,143,"[1, 0]",left,1,11,22,f,y,y,2019_Jul_11_1009,2AFC_task,59.948875572531655,
stimuli/rgb_scene000056_render000000.png,stimuli/rgb_scene000056_render000003.png,0,140,140,44,"[0, 1]",right,1,11,22,f,y,y,2019_Jul_11_1009,2AFC_task,59.948875572531655,
stimuli/rgb_scene000196_render000004.png,stimuli/rgb_scene000196_render000006.png,0,141,141,208,"[0, 1]",left,0,11,22,f,y,y,2019_Jul_11_1009,2AFC_task,59.948875572531655,
stimuli/rgb_scene000042_render000002.png,stimuli/rgb_scene000042_render000003.png,0,142,142,11,"[0, 1]",right,1,11,22,f,y,y,2019_Jul_11_1009,2AFC_task,59.948875572531655,
stimuli/rgb_scene000147_render000003.png,stimuli/rgb_scene000147_render000006.png,0,143,143,101,"[0, 1]",right,1,11,22,f,y,y,2019_Jul_11_1009,2AFC_task,59.948875572531655,
stimuli/rgb_scene000147_render000001.png,stimuli/rgb_scene000147_render000006.png,0,144,144,94,"[0, 1]",left,0,11,22,f,y,y,2019_Jul_11_1009,2AFC_task,59.948875572531655,
stimuli/rgb_scene000056_render000000.png,stimuli/rgb_scene000056_render000002.png,0,145,145,43,"[0, 1]",right,1,11,22,f,y,y,2019_Jul_11_1009,2AFC_task,59.948875572531655,
stimuli/rgb_scene000196_render000003.png,stimuli/rgb_scene000196_render000005.png,0,146,146,205,"[0, 1]",right,1,11,22,f,y,y,2019_Jul_11_1009,2AFC_task,59.948875572531655,
stimuli/rgb_scene000165_render000003.png,stimuli/rgb_scene000165_render000005.png,0,147,147,163,"[1, 0]",left,1,11,22,f,y,y,2019_Jul_11_1009,2AFC_task,59.948875572531655,
stimuli/rgb_scene000066_render000003.png,stimuli/rgb_scene000066_render000004.png,0,148,148,78,"[0, 1]",right,1,11,22,f,y,y,2019_Jul_11_1009,2AFC_task,59.948875572531655,
stimuli/rgb_scene000160_render000001.png,stimuli/rgb_scene000160_render000002.png,0,149,149,132,"[1, 0]",left,1,11,22,f,y,y,2019_Jul_11_1009,2AFC_task,59.948875572531655,
stimuli/rgb_scene000042_render000001.png,stimuli/rgb_scene000042_render000004.png,0,150,150,8,"[0, 1]",right,1,11,22,f,y,y,2019_Jul_11_1009,2AFC_task,59.948875572531655,
stimuli/rgb_scene000066_render000003.png,stimuli/rgb_scene000066_render000006.png,0,151,151,80,"[0, 1]",right,1,11,22,f,y,y,2019_Jul_11_1009,2AFC_task,59.948875572531655,
stimuli/rgb_scene000160_render000002.png,stimuli/rgb_scene000160_render000006.png,0,152,152,140,"[0, 1]",left,0,11,22,f,y,y,2019_Jul_11_1009,2AFC_task,59.948875572531655,
stimuli/rgb_scene000160_render000000.png,stimuli/rgb_scene000160_render000005.png,0,153,153,130,"[0, 1]",left,0,11,22,f,y,y,2019_Jul_11_1009,2AFC_task,59.948875572531655,
stimuli/rgb_scene000165_render000000.png,stimuli/rgb_scene000165_render000005.png,0,154,154,151,"[0, 1]",right,1,11,22,f,y,y,2019_Jul_11_1009,2AFC_task,59.948875572531655,
stimuli/rgb_scene000056_render000000.png,stimuli/rgb_scene000056_render000001.png,0,155,155,42,"[0, 1]",right,1,11,22,f,y,y,2019_Jul_11_1009,2AFC_task,59.948875572531655,
stimuli/rgb_scene000042_render000000.png,stimuli/rgb_scene000042_render000005.png,0,156,156,4,"[0, 1]",right,1,11,22,f,y,y,2019_Jul_11_1009,2AFC_task,59.948875572531655,
stimuli/rgb_scene000196_render000000.png,stimuli/rgb_scene000196_render000005.png,0,157,157,193,"[0, 1]",left,0,11,22,f,y,y,2019_Jul_11_1009,2AFC_task,59.948875572531655,
stimuli/rgb_scene000056_render000000.png,stimuli/rgb_scene000056_render000004.png,0,158,158,45,"[1, 0]",right,0,11,22,f,y,y,2019_Jul_11_1009,2AFC_task,59.948875572531655,
stimuli/rgb_scene000042_render000001.png,stimuli/rgb_scene000042_render000005.png,0,159,159,9,"[0, 1]",right,1,11,22,f,y,y,2019_Jul_11_1009,2AFC_task,59.948875572531655,
stimuli/rgb_scene000066_render000001.png,stimuli/rgb_scene000066_render000006.png,0,160,160,73,"[1, 0]",left,1,11,22,f,y,y,2019_Jul_11_1009,2AFC_task,59.948875572531655,
stimuli/rgb_scene000147_render000000.png,stimuli/rgb_scene000147_render000001.png,0,161,161,84,"[1, 0]",left,1,11,22,f,y,y,2019_Jul_11_1009,2AFC_task,59.948875572531655,
stimuli/rgb_scene000165_render000005.png,stimuli/rgb_scene000165_render000006.png,0,162,162,167,"[0, 1]",left,0,11,22,f,y,y,2019_Jul_11_1009,2AFC_task,59.948875572531655,
stimuli/rgb_scene000150_render000004.png,stimuli/rgb_scene000150_render000005.png,0,163,163,123,"[0, 1]",left,0,11,22,f,y,y,2019_Jul_11_1009,2AFC_task,59.948875572531655,
stimuli/rgb_scene000150_render000003.png,stimuli/rgb_scene000150_render000005.png,0,164,164,121,"[0, 1]",right,1,11,22,f,y,y,2019_Jul_11_1009,2AFC_task,59.948875572531655,
stimuli/rgb_scene000056_render000000.png,stimuli/rgb_scene000056_render000005.png,0,165,165,46,"[1, 0]",left,1,11,22,f,y,y,2019_Jul_11_1009,2AFC_task,59.948875572531655,
stimuli/rgb_scene000147_render000001.png,stimuli/rgb_scene000147_render000002.png,0,166,166,90,"[1, 0]",right,0,11,22,f,y,y,2019_Jul_11_1009,2AFC_task,59.948875572531655,
stimuli/rgb_scene000147_render000000.png,stimuli/rgb_scene000147_render000002.png,0,167,167,85,"[0, 1]",right,1,11,22,f,y,y,2019_Jul_11_1009,2AFC_task,59.948875572531655,
stimuli/rgb_scene000150_render000002.png,stimuli/rgb_scene000150_render000003.png,0,168,168,116,"[0, 1]",right,1,11,22,f,y,y,2019_Jul_11_1009,2AFC_task,59.948875572531655,
stimuli/rgb_scene000147_render000004.png,stimuli/rgb_scene000147_render000006.png,0,169,169,103,"[1, 0]",left,1,11,22,f,y,y,2019_Jul_11_1009,2AFC_task,59.948875572531655,
stimuli/rgb_scene000169_render000003.png,stimuli/rgb_scene000169_render000006.png,0,170,170,185,"[0, 1]",right,1,11,22,f,y,y,2019_Jul_11_1009,2AFC_task,59.948875572531655,
stimuli/rgb_scene000169_render000001.png,stimuli/rgb_scene000169_render000004.png,0,171,171,176,"[0, 1]",left,0,11,22,f,y,y,2019_Jul_11_1009,2AFC_task,59.948875572531655,
stimuli/rgb_scene000042_render000000.png,stimuli/rgb_scene000042_render000002.png,0,172,172,1,"[0, 1]",right,1,11,22,f,y,y,2019_Jul_11_1009,2AFC_task,59.948875572531655,
stimuli/rgb_scene000147_render000004.png,stimuli/rgb_scene000147_render000005.png,0,173,173,102,"[0, 1]",right,1,11,22,f,y,y,2019_Jul_11_1009,2AFC_task,59.948875572531655,
stimuli/rgb_scene000165_render000002.png,stimuli/rgb_scene000165_render000003.png,0,174,174,158,"[1, 0]",left,1,11,22,f,y,y,2019_Jul_11_1009,2AFC_task,59.948875572531655,
stimuli/rgb_scene000056_render000005.png,stimuli/rgb_scene000056_render000006.png,0,175,175,62,"[1, 0]",right,0,11,22,f,y,y,2019_Jul_11_1009,2AFC_task,59.948875572531655,
stimuli/rgb_scene000165_render000002.png,stimuli/rgb_scene000165_render000005.png,0,176,176,160,"[1, 0]",left,1,11,22,f,y,y,2019_Jul_11_1009,2AFC_task,59.948875572531655,
stimuli/rgb_scene000147_render000000.png,stimuli/rgb_scene000147_render000006.png,0,177,177,89,"[0, 1]",right,1,11,22,f,y,y,2019_Jul_11_1009,2AFC_task,59.948875572531655,
stimuli/rgb_scene000169_render000003.png,stimuli/rgb_scene000169_render000004.png,0,178,178,183,"[0, 1]",left,0,11,22,f,y,y,2019_Jul_11_1009,2AFC_task,59.948875572531655,
stimuli/rgb_scene000150_render000001.png,stimuli/rgb_scene000150_render000004.png,0,179,179,113,"[0, 1]",right,1,11,22,f,y,y,2019_Jul_11_1009,2AFC_task,59.948875572531655,
stimuli/rgb_scene000169_render000001.png,stimuli/rgb_scene000169_render000005.png,0,180,180,177,"[1, 0]",left,1,11,22,f,y,y,2019_Jul_11_1009,2AFC_task,59.948875572531655,
stimuli/rgb_scene000056_render000002.png,stimuli/rgb_scene000056_render000003.png,0,181,181,53,"[0, 1]",right,1,11,22,f,y,y,2019_Jul_11_1009,2AFC_task,59.948875572531655,
stimuli/rgb_scene000165_render000001.png,stimuli/rgb_scene000165_render000005.png,0,182,182,156,"[0, 1]",right,1,11,22,f,y,y,2019_Jul_11_1009,2AFC_task,59.948875572531655,
stimuli/rgb_scene000169_render000002.png,stimuli/rgb_scene000169_render000003.png,0,183,183,179,"[1, 0]",left,1,11,22,f,y,y,2019_Jul_11_1009,2AFC_task,59.948875572531655,
stimuli/rgb_scene000196_render000001.png,stimuli/rgb_scene000196_render000003.png,0,184,184,196,"[0, 1]",left,0,11,22,f,y,y,2019_Jul_11_1009,2AFC_task,59.948875572531655,
stimuli/rgb_scene000066_render000000.png,stimuli/rgb_scene000066_render000005.png,0,185,185,67,"[0, 1]",right,1,11,22,f,y,y,2019_Jul_11_1009,2AFC_task,59.948875572531655,
stimuli/rgb_scene000169_render000002.png,stimuli/rgb_scene000169_render000004.png,0,186,186,180,"[1, 0]",right,0,11,22,f,y,y,2019_Jul_11_1009,2AFC_task,59.948875572531655,
stimuli/rgb_scene000042_render000001.png,stimuli/rgb_scene000042_render000003.png,0,187,187,7,"[1, 0]",left,1,11,22,f,y,y,2019_Jul_11_1009,2AFC_task,59.948875572531655,
stimuli/rgb_scene000160_render000003.png,stimuli/rgb_scene000160_render000004.png,0,188,188,141,"[1, 0]",left,1,11,22,f,y,y,2019_Jul_11_1009,2AFC_task,59.948875572531655,
stimuli/rgb_scene000066_render000002.png,stimuli/rgb_scene000066_render000005.png,0,189,189,76,"[0, 1]",right,1,11,22,f,y,y,2019_Jul_11_1009,2AFC_task,59.948875572531655,
stimuli/rgb_scene000056_render000002.png,stimuli/rgb_scene000056_render000006.png,0,190,190,56,"[1, 0]",left,1,11,22,f,y,y,2019_Jul_11_1009,2AFC_task,59.948875572531655,
stimuli/rgb_scene000160_render000000.png,stimuli/rgb_scene000160_render000006.png,0,191,191,131,"[0, 1]",right,1,11,22,f,y,y,2019_Jul_11_1009,2AFC_task,59.948875572531655,
stimuli/rgb_scene000047_render000004.png,stimuli/rgb_scene000047_render000005.png,0,192,192,39,"[0, 1]",left,0,11,22,f,y,y,2019_Jul_11_1009,2AFC_task,59.948875572531655,
stimuli/rgb_scene000160_render000005.png,stimuli/rgb_scene000160_render000006.png,0,193,193,146,"[1, 0]",right,0,11,22,f,y,y,2019_Jul_11_1009,2AFC_task,59.948875572531655,
stimuli/rgb_scene000150_render000000.png,stimuli/rgb_scene000150_render000003.png,0,194,194,107,"[1, 0]",left,1,11,22,f,y,y,2019_Jul_11_1009,2AFC_task,59.948875572531655,
stimuli/rgb_scene000066_render000001.png,stimuli/rgb_scene000066_render000002.png,0,195,195,69,"[1, 0]",left,1,11,22,f,y,y,2019_Jul_11_1009,2AFC_task,59.948875572531655,
stimuli/rgb_scene000042_render000004.png,stimuli/rgb_scene000042_render000006.png,0,196,196,19,"[1, 0]",left,1,11,22,f,y,y,2019_Jul_11_1009,2AFC_task,59.948875572531655,
stimuli/rgb_scene000165_render000001.png,stimuli/rgb_scene000165_render000004.png,0,197,197,155,"[1, 0]",left,1,11,22,f,y,y,2019_Jul_11_1009,2AFC_task,59.948875572531655,
stimuli/rgb_scene000165_render000000.png,stimuli/rgb_scene000165_render000004.png,0,198,198,150,"[1, 0]",left,1,11,22,f,y,y,2019_Jul_11_1009,2AFC_task,59.948875572531655,
stimuli/rgb_scene000047_render000005.png,stimuli/rgb_scene000047_render000006.png,0,199,199,41,"[0, 1]",right,1,11,22,f,y,y,2019_Jul_11_1009,2AFC_task,59.948875572531655,
stimuli/rgb_scene000147_render000002.png,stimuli/rgb_scene000147_render000005.png,0,200,200,97,"[0, 1]",right,1,11,22,f,y,y,2019_Jul_11_1009,2AFC_task,59.948875572531655,
stimuli/rgb_scene000042_render000000.png,stimuli/rgb_scene000042_render000004.png,0,201,201,3,"[1, 0]",left,1,11,22,f,y,y,2019_Jul_11_1009,2AFC_task,59.948875572531655,
stimuli/rgb_scene000196_render000002.png,stimuli/rgb_scene000196_render000006.png,0,202,202,203,"[0, 1]",right,1,11,22,f,y,y,2019_Jul_11_1009,2AFC_task,59.948875572531655,
stimuli/rgb_scene000066_render000003.png,stimuli/rgb_scene000066_render000005.png,0,203,203,79,"[0, 1]",left,0,11,22,f,y,y,2019_Jul_11_1009,2AFC_task,59.948875572531655,
stimuli/rgb_scene000066_render000000.png,stimuli/rgb_scene000066_render000001.png,0,204,204,63,"[1, 0]",left,1,11,22,f,y,y,2019_Jul_11_1009,2AFC_task,59.948875572531655,
stimuli/rgb_scene000147_render000001.png,stimuli/rgb_scene000147_render000003.png,0,205,205,91,"[0, 1]",right,1,11,22,f,y,y,2019_Jul_11_1009,2AFC_task,59.948875572531655,
stimuli/rgb_scene000047_render000001.png,stimuli/rgb_scene000047_render000005.png,0,206,206,30,"[1, 0]",left,1,11,22,f,y,y,2019_Jul_11_1009,2AFC_task,59.948875572531655,
stimuli/rgb_scene000169_render000005.png,stimuli/rgb_scene000169_render000006.png,0,207,207,188,"[0, 1]",right,1,11,22,f,y,y,2019_Jul_11_1009,2AFC_task,59.948875572531655,
stimuli/rgb_scene000066_render000004.png,stimuli/rgb_scene000066_render000006.png,0,208,208,82,"[1, 0]",left,1,11,22,f,y,y,2019_Jul_11_1009,2AFC_task,59.948875572531655,
stimuli/rgb_scene000165_render000000.png,stimuli/rgb_scene000165_render000006.png,0,209,209,152,"[1, 0]",left,1,11,22,f,y,y,2019_Jul_11_1009,2AFC_task,59.948875572531655,
stimuli/rgb_scene000196_render000000.png,stimuli/rgb_scene000196_render000003.png,1,0,210,191,"[1, 0]",left,1,11,22,f,y,y,2019_Jul_11_1009,2AFC_task,59.948875572531655,
stimuli/rgb_scene000047_render000002.png,stimuli/rgb_scene000047_render000004.png,1,1,211,33,"[1, 0]",left,1,11,22,f,y,y,2019_Jul_11_1009,2AFC_task,59.948875572531655,
stimuli/rgb_scene000165_render000000.png,stimuli/rgb_scene000165_render000005.png,1,2,212,151,"[0, 1]",right,1,11,22,f,y,y,2019_Jul_11_1009,2AFC_task,59.948875572531655,
stimuli/rgb_scene000169_render000002.png,stimuli/rgb_scene000169_render000006.png,1,3,213,182,"[0, 1]",right,1,11,22,f,y,y,2019_Jul_11_1009,2AFC_task,59.948875572531655,
stimuli/rgb_scene000042_render000000.png,stimuli/rgb_scene000042_render000003.png,1,4,214,2,"[0, 1]",left,0,11,22,f,y,y,2019_Jul_11_1009,2AFC_task,59.948875572531655,
stimuli/rgb_scene000150_render000002.png,stimuli/rgb_scene000150_render000006.png,1,5,215,119,"[0, 1]",left,0,11,22,f,y,y,2019_Jul_11_1009,2AFC_task,59.948875572531655,
stimuli/rgb_scene000147_render000001.png,stimuli/rgb_scene000147_render000002.png,1,6,216,90,"[0, 1]",left,0,11,22,f,y,y,2019_Jul_11_1009,2AFC_task,59.948875572531655,
stimuli/rgb_scene000150_render000000.png,stimuli/rgb_scene000150_render000004.png,1,7,217,108,"[1, 0]",left,1,11,22,f,y,y,2019_Jul_11_1009,2AFC_task,59.948875572531655,
stimuli/rgb_scene000066_render000000.png,stimuli/rgb_scene000066_render000005.png,1,8,218,67,"[0, 1]",right,1,11,22,f,y,y,2019_Jul_11_1009,2AFC_task,59.948875572531655,
stimuli/rgb_scene000047_render000000.png,stimuli/rgb_scene000047_render000003.png,1,9,219,23,"[1, 0]",left,1,11,22,f,y,y,2019_Jul_11_1009,2AFC_task,59.948875572531655,
stimuli/rgb_scene000147_render000002.png,stimuli/rgb_scene000147_render000004.png,1,10,220,96,"[1, 0]",left,1,11,22,f,y,y,2019_Jul_11_1009,2AFC_task,59.948875572531655,
stimuli/rgb_scene000196_render000002.png,stimuli/rgb_scene000196_render000004.png,1,11,221,201,"[0, 1]",right,1,11,22,f,y,y,2019_Jul_11_1009,2AFC_task,59.948875572531655,
stimuli/rgb_scene000042_render000003.png,stimuli/rgb_scene000042_render000004.png,1,12,222,15,"[0, 1]",left,0,11,22,f,y,y,2019_Jul_11_1009,2AFC_task,59.948875572531655,
stimuli/rgb_scene000165_render000001.png,stimuli/rgb_scene000165_render000006.png,1,13,223,157,"[1, 0]",left,1,11,22,f,y,y,2019_Jul_11_1009,2AFC_task,59.948875572531655,
stimuli/rgb_scene000047_render000003.png,stimuli/rgb_scene000047_render000005.png,1,14,224,37,"[0, 1]",right,1,11,22,f,y,y,2019_Jul_11_1009,2AFC_task,59.948875572531655,
stimuli/rgb_scene000150_render000002.png,stimuli/rgb_scene000150_render000005.png,1,15,225,118,"[1, 0]",left,1,11,22,f,y,y,2019_Jul_11_1009,2AFC_task,59.948875572531655,
stimuli/rgb_scene000056_render000000.png,stimuli/rgb_scene000056_render000004.png,1,16,226,45,"[0, 1]",right,1,11,22,f,y,y,2019_Jul_11_1009,2AFC_task,59.948875572531655,
stimuli/rgb_scene000169_render000004.png,stimuli/rgb_scene000169_render000005.png,1,17,227,186,"[0, 1]",left,0,11,22,f,y,y,2019_Jul_11_1009,2AFC_task,59.948875572531655,
stimuli/rgb_scene000056_render000000.png,stimuli/rgb_scene000056_render000001.png,1,18,228,42,"[0, 1]",left,0,11,22,f,y,y,2019_Jul_11_1009,2AFC_task,59.948875572531655,
stimuli/rgb_scene000066_render000001.png,stimuli/rgb_scene000066_render000005.png,1,19,229,72,"[1, 0]",left,1,11,22,f,y,y,2019_Jul_11_1009,2AFC_task,59.948875572531655,
stimuli/rgb_scene000150_render000000.png,stimuli/rgb_scene000150_render000003.png,1,20,230,107,"[1, 0]",left,1,11,22,f,y,y,2019_Jul_11_1009,2AFC_task,59.948875572531655,
stimuli/rgb_scene000056_render000002.png,stimuli/rgb_scene000056_render000004.png,1,21,231,54,"[1, 0]",left,1,11,22,f,y,y,2019_Jul_11_1009,2AFC_task,59.948875572531655,
stimuli/rgb_scene000147_render000000.png,stimuli/rgb_scene000147_render000001.png,1,22,232,84,"[0, 1]",right,1,11,22,f,y,y,2019_Jul_11_1009,2AFC_task,59.948875572531655,
stimuli/rgb_scene000165_render000001.png,stimuli/rgb_scene000165_render000002.png,1,23,233,153,"[1, 0]",left,1,11,22,f,y,y,2019_Jul_11_1009,2AFC_task,59.948875572531655,
stimuli/rgb_scene000047_render000001.png,stimuli/rgb_scene000047_render000005.png,1,24,234,30,"[1, 0]",left,1,11,22,f,y,y,2019_Jul_11_1009,2AFC_task,59.948875572531655,
stimuli/rgb_scene000066_render000001.png,stimuli/rgb_scene000066_render000002.png,1,25,235,69,"[1, 0]",left,1,11,22,f,y,y,2019_Jul_11_1009,2AFC_task,59.948875572531655,
stimuli/rgb_scene000150_render000001.png,stimuli/rgb_scene000150_render000004.png,1,26,236,113,"[1, 0]",left,1,11,22,f,y,y,2019_Jul_11_1009,2AFC_task,59.948875572531655,
stimuli/rgb_scene000165_render000004.png,stimuli/rgb_scene000165_render000006.png,1,27,237,166,"[1, 0]",left,1,11,22,f,y,y,2019_Jul_11_1009,2AFC_task,59.948875572531655,
stimuli/rgb_scene000056_render000005.png,stimuli/rgb_scene000056_render000006.png,1,28,238,62,"[1, 0]",right,0,11,22,f,y,y,2019_Jul_11_1009,2AFC_task,59.948875572531655,
stimuli/rgb_scene000160_render000002.png,stimuli/rgb_scene000160_render000006.png,1,29,239,140,"[0, 1]",left,0,11,22,f,y,y,2019_Jul_11_1009,2AFC_task,59.948875572531655,
stimuli/rgb_scene000056_render000001.png,stimuli/rgb_scene000056_render000004.png,1,30,240,50,"[0, 1]",left,0,11,22,f,y,y,2019_Jul_11_1009,2AFC_task,59.948875572531655,
stimuli/rgb_scene000047_render000005.png,stimuli/rgb_scene000047_render000006.png,1,31,241,41,"[0, 1]",right,1,11,22,f,y,y,2019_Jul_11_1009,2AFC_task,59.948875572531655,
stimuli/rgb_scene000169_render000003.png,stimuli/rgb_scene000169_render000006.png,1,32,242,185,"[1, 0]",left,1,11,22,f,y,y,2019_Jul_11_1009,2AFC_task,59.948875572531655,
stimuli/rgb_scene000169_render000001.png,stimuli/rgb_scene000169_render000006.png,1,33,243,178,"[1, 0]",right,0,11,22,f,y,y,2019_Jul_11_1009,2AFC_task,59.948875572531655,
stimuli/rgb_scene000047_render000002.png,stimuli/rgb_scene000047_render000003.png,1,34,244,32,"[0, 1]",left,0,11,22,f,y,y,2019_Jul_11_1009,2AFC_task,59.948875572531655,
stimuli/rgb_scene000160_render000002.png,stimuli/rgb_scene000160_render000004.png,1,35,245,138,"[1, 0]",left,1,11,22,f,y,y,2019_Jul_11_1009,2AFC_task,59.948875572531655,
stimuli/rgb_scene000047_render000001.png,stimuli/rgb_scene000047_render000002.png,1,36,246,27,"[1, 0]",left,1,11,22,f,y,y,2019_Jul_11_1009,2AFC_task,59.948875572531655,
stimuli/rgb_scene000196_render000000.png,stimuli/rgb_scene000196_render000006.png,1,37,247,194,"[1, 0]",right,0,11,22,f,y,y,2019_Jul_11_1009,2AFC_task,59.948875572531655,
stimuli/rgb_scene000150_render000000.png,stimuli/rgb_scene000150_render000002.png,1,38,248,106,"[0, 1]",right,1,11,22,f,y,y,2019_Jul_11_1009,2AFC_task,59.948875572531655,
stimuli/rgb_scene000160_render000005.png,stimuli/rgb_scene000160_render000006.png,1,39,249,146,"[1, 0]",left,1,11,22,f,y,y,2019_Jul_11_1009,2AFC_task,59.948875572531655,
stimuli/rgb_scene000169_render000004.png,stimuli/rgb_scene000169_render000006.png,1,40,250,187,"[1, 0]",right,0,11,22,f,y,y,2019_Jul_11_1009,2AFC_task,59.948875572531655,
stimuli/rgb_scene000047_render000001.png,stimuli/rgb_scene000047_render000004.png,1,41,251,29,"[1, 0]",left,1,11,22,f,y,y,2019_Jul_11_1009,2AFC_task,59.948875572531655,
stimuli/rgb_scene000196_render000003.png,stimuli/rgb_scene000196_render000005.png,1,42,252,205,"[1, 0]",right,0,11,22,f,y,y,2019_Jul_11_1009,2AFC_task,59.948875572531655,
stimuli/rgb_scene000066_render000003.png,stimuli/rgb_scene000066_render000005.png,1,43,253,79,"[1, 0]",left,1,11,22,f,y,y,2019_Jul_11_1009,2AFC_task,59.948875572531655,
stimuli/rgb_scene000169_render000001.png,stimuli/rgb_scene000169_render000003.png,1,44,254,175,"[0, 1]",right,1,11,22,f,y,y,2019_Jul_11_1009,2AFC_task,59.948875572531655,
stimuli/rgb_scene000169_render000003.png,stimuli/rgb_scene000169_render000005.png,1,45,255,184,"[0, 1]",left,0,11,22,f,y,y,2019_Jul_11_1009,2AFC_task,59.948875572531655,
stimuli/rgb_scene000150_render000003.png,stimuli/rgb_scene000150_render000004.png,1,46,256,120,"[0, 1]",left,0,11,22,f,y,y,2019_Jul_11_1009,2AFC_task,59.948875572531655,
stimuli/rgb_scene000196_render000002.png,stimuli/rgb_scene000196_render000005.png,1,47,257,202,"[1, 0]",left,1,11,22,f,y,y,2019_Jul_11_1009,2AFC_task,59.948875572531655,
stimuli/rgb_scene000160_render000003.png,stimuli/rgb_scene000160_render000005.png,1,48,258,142,"[1, 0]",left,1,11,22,f,y,y,2019_Jul_11_1009,2AFC_task,59.948875572531655,
stimuli/rgb_scene000160_render000001.png,stimuli/rgb_scene000160_render000002.png,1,49,259,132,"[0, 1]",left,0,11,22,f,y,y,2019_Jul_11_1009,2AFC_task,59.948875572531655,
stimuli/rgb_scene000147_render000000.png,stimuli/rgb_scene000147_render000005.png,1,50,260,88,"[0, 1]",right,1,11,22,f,y,y,2019_Jul_11_1009,2AFC_task,59.948875572531655,
stimuli/rgb_scene000147_render000001.png,stimuli/rgb_scene000147_render000004.png,1,51,261,92,"[1, 0]",left,1,11,22,f,y,y,2019_Jul_11_1009,2AFC_task,59.948875572531655,
stimuli/rgb_scene000196_render000001.png,stimuli/rgb_scene000196_render000002.png,1,52,262,195,"[1, 0]",right,0,11,22,f,y,y,2019_Jul_11_1009,2AFC_task,59.948875572531655,
stimuli/rgb_scene000066_render000005.png,stimuli/rgb_scene000066_render000006.png,1,53,263,83,"[0, 1]",left,0,11,22,f,y,y,2019_Jul_11_1009,2AFC_task,59.948875572531655,
stimuli/rgb_scene000160_render000000.png,stimuli/rgb_scene000160_render000006.png,1,54,264,131,"[0, 1]",right,1,11,22,f,y,y,2019_Jul_11_1009,2AFC_task,59.948875572531655,
stimuli/rgb_scene000047_render000004.png,stimuli/rgb_scene000047_render000005.png,1,55,265,39,"[1, 0]",left,1,11,22,f,y,y,2019_Jul_11_1009,2AFC_task,59.948875572531655,
stimuli/rgb_scene000160_render000002.png,stimuli/rgb_scene000160_render000003.png,1,56,266,137,"[0, 1]",right,1,11,22,f,y,y,2019_Jul_11_1009,2AFC_task,59.948875572531655,
stimuli/rgb_scene000056_render000003.png,stimuli/rgb_scene000056_render000006.png,1,57,267,59,"[0, 1]",right,1,11,22,f,y,y,2019_Jul_11_1009,2AFC_task,59.948875572531655,
stimuli/rgb_scene000196_render000001.png,stimuli/rgb_scene000196_render000005.png,1,58,268,198,"[0, 1]",left,0,11,22,f,y,y,2019_Jul_11_1009,2AFC_task,59.948875572531655,
stimuli/rgb_scene000147_render000004.png,stimuli/rgb_scene000147_render000005.png,1,59,269,102,"[1, 0]",left,1,11,22,f,y,y,2019_Jul_11_1009,2AFC_task,59.948875572531655,
stimuli/rgb_scene000066_render000000.png,stimuli/rgb_scene000066_render000001.png,1,60,270,63,"[0, 1]",right,1,11,22,f,y,y,2019_Jul_11_1009,2AFC_task,59.948875572531655,
stimuli/rgb_scene000165_render000002.png,stimuli/rgb_scene000165_render000004.png,1,61,271,159,"[1, 0]",left,1,11,22,f,y,y,2019_Jul_11_1009,2AFC_task,59.948875572531655,
stimuli/rgb_scene000047_render000003.png,stimuli/rgb_scene000047_render000004.png,1,62,272,36,"[0, 1]",right,1,11,22,f,y,y,2019_Jul_11_1009,2AFC_task,59.948875572531655,
stimuli/rgb_scene000147_render000002.png,stimuli/rgb_scene000147_render000005.png,1,63,273,97,"[1, 0]",left,1,11,22,f,y,y,2019_Jul_11_1009,2AFC_task,59.948875572531655,
stimuli/rgb_scene000196_render000000.png,stimuli/rgb_scene000196_render000005.png,1,64,274,193,"[1, 0]",right,0,11,22,f,y,y,2019_Jul_11_1009,2AFC_task,59.948875572531655,
stimuli/rgb_scene000066_render000002.png,stimuli/rgb_scene000066_render000005.png,1,65,275,76,"[0, 1]",left,0,11,22,f,y,y,2019_Jul_11_1009,2AFC_task,59.948875572531655,
stimuli/rgb_scene000042_render000000.png,stimuli/rgb_scene000042_render000002.png,1,66,276,1,"[1, 0]",left,1,11,22,f,y,y,2019_Jul_11_1009,2AFC_task,59.948875572531655,
stimuli/rgb_scene000042_render000000.png,stimuli/rgb_scene000042_render000005.png,1,67,277,4,"[0, 1]",right,1,11,22,f,y,y,2019_Jul_11_1009,2AFC_task,59.948875572531655,
stimuli/rgb_scene000147_render000000.png,stimuli/rgb_scene000147_render000004.png,1,68,278,87,"[1, 0]",left,1,11,22,f,y,y,2019_Jul_11_1009,2AFC_task,59.948875572531655,
stimuli/rgb_scene000150_render000002.png,stimuli/rgb_scene000150_render000003.png,1,69,279,116,"[1, 0]",left,1,11,22,f,y,y,2019_Jul_11_1009,2AFC_task,59.948875572531655,
stimuli/rgb_scene000056_render000000.png,stimuli/rgb_scene000056_render000006.png,1,70,280,47,"[0, 1]",right,1,11,22,f,y,y,2019_Jul_11_1009,2AFC_task,59.948875572531655,
stimuli/rgb_scene000042_render000000.png,stimuli/rgb_scene000042_render000004.png,1,71,281,3,"[1, 0]",left,1,11,22,f,y,y,2019_Jul_11_1009,2AFC_task,59.948875572531655,
stimuli/rgb_scene000066_render000001.png,stimuli/rgb_scene000066_render000004.png,1,72,282,71,"[1, 0]",right,0,11,22,f,y,y,2019_Jul_11_1009,2AFC_task,59.948875572531655,
stimuli/rgb_scene000066_render000000.png,stimuli/rgb_scene000066_render000004.png,1,73,283,66,"[0, 1]",left,0,11,22,f,y,y,2019_Jul_11_1009,2AFC_task,59.948875572531655,
stimuli/rgb_scene000196_render000003.png,stimuli/rgb_scene000196_render000004.png,1,74,284,204,"[1, 0]",left,1,11,22,f,y,y,2019_Jul_11_1009,2AFC_task,59.948875572531655,
stimuli/rgb_scene000160_render000004.png,stimuli/rgb_scene000160_render000005.png,1,75,285,144,"[1, 0]",left,1,11,22,f,y,y,2019_Jul_11_1009,2AFC_task,59.948875572531655,
stimuli/rgb_scene000147_render000001.png,stimuli/rgb_scene000147_render000006.png,1,76,286,94,"[0, 1]",right,1,11,22,f,y,y,2019_Jul_11_1009,2AFC_task,59.948875572531655,
stimuli/rgb_scene000042_render000001.png,stimuli/rgb_scene000042_render000003.png,1,77,287,7,"[0, 1]",left,0,11,22,f,y,y,2019_Jul_11_1009,2AFC_task,59.948875572531655,
stimuli/rgb_scene000150_render000002.png,stimuli/rgb_scene000150_render000004.png,1,78,288,117,"[0, 1]",left,0,11,22,f,y,y,2019_Jul_11_1009,2AFC_task,59.948875572531655,
stimuli/rgb_scene000150_render000003.png,stimuli/rgb_scene000150_render000006.png,1,79,289,122,"[0, 1]",right,1,11,22,f,y,y,2019_Jul_11_1009,2AFC_task,59.948875572531655,
stimuli/rgb_scene000042_render000001.png,stimuli/rgb_scene000042_render000004.png,1,80,290,8,"[1, 0]",left,1,11,22,f,y,y,2019_Jul_11_1009,2AFC_task,59.948875572531655,
stimuli/rgb_scene000056_render000004.png,stimuli/rgb_scene000056_render000005.png,1,81,291,60,"[1, 0]",right,0,11,22,f,y,y,2019_Jul_11_1009,2AFC_task,59.948875572531655,
stimuli/rgb_scene000042_render000000.png,stimuli/rgb_scene000042_render000001.png,1,82,292,0,"[0, 1]",left,0,11,22,f,y,y,2019_Jul_11_1009,2AFC_task,59.948875572531655,
stimuli/rgb_scene000042_render000005.png,stimuli/rgb_scene000042_render000006.png,1,83,293,20,"[0, 1]",left,0,11,22,f,y,y,2019_Jul_11_1009,2AFC_task,59.948875572531655,
stimuli/rgb_scene000165_render000000.png,stimuli/rgb_scene000165_render000001.png,1,84,294,147,"[0, 1]",right,1,11,22,f,y,y,2019_Jul_11_1009,2AFC_task,59.948875572531655,
stimuli/rgb_scene000160_render000000.png,stimuli/rgb_scene000160_render000005.png,1,85,295,130,"[0, 1]",left,0,11,22,f,y,y,2019_Jul_11_1009,2AFC_task,59.948875572531655,
stimuli/rgb_scene000066_render000004.png,stimuli/rgb_scene000066_render000006.png,1,86,296,82,"[1, 0]",right,0,11,22,f,y,y,2019_Jul_11_1009,2AFC_task,59.948875572531655,
stimuli/rgb_scene000150_render000001.png,stimuli/rgb_scene000150_render000002.png,1,87,297,111,"[0, 1]",left,0,11,22,f,y,y,2019_Jul_11_1009,2AFC_task,59.948875572531655,
stimuli/rgb_scene000056_render000001.png,stimuli/rgb_scene000056_render000002.png,1,88,298,48,"[1, 0]",right,0,11,22,f,y,y,2019_Jul_11_1009,2AFC_task,59.948875572531655,
stimuli/rgb_scene000066_render000000.png,stimuli/rgb_scene000066_render000003.png,1,89,299,65,"[0, 1]",right,1,11,22,f,y,y,2019_Jul_11_1009,2AFC_task,59.948875572531655,
stimuli/rgb_scene000196_render000000.png,stimuli/rgb_scene000196_render000001.png,1,90,300,189,"[0, 1]",left,0,11,22,f,y,y,2019_Jul_11_1009,2AFC_task,59.948875572531655,
stimuli/rgb_scene000169_render000005.png,stimuli/rgb_scene000169_render000006.png,1,91,301,188,"[1, 0]",left,1,11,22,f,y,y,2019_Jul_11_1009,2AFC_task,59.948875572531655,
stimuli/rgb_scene000047_render000002.png,stimuli/rgb_scene000047_render000006.png,1,92,302,35,"[1, 0]",left,1,11,22,f,y,y,2019_Jul_11_1009,2AFC_task,59.948875572531655,
stimuli/rgb_scene000047_render000003.png,stimuli/rgb_scene000047_render000006.png,1,93,303,38,"[1, 0]",left,1,11,22,f,y,y,2019_Jul_11_1009,2AFC_task,59.948875572531655,
stimuli/rgb_scene000066_render000001.png,stimuli/rgb_scene000066_render000006.png,1,94,304,73,"[1, 0]",left,1,11,22,f,y,y,2019_Jul_11_1009,2AFC_task,59.948875572531655,
stimuli/rgb_scene000196_render000001.png,stimuli/rgb_scene000196_render000006.png,1,95,305,199,"[0, 1]",left,0,11,22,f,y,y,2019_Jul_11_1009,2AFC_task,59.948875572531655,
stimuli/rgb_scene000056_render000001.png,stimuli/rgb_scene000056_render000005.png,1,96,306,51,"[1, 0]",left,1,11,22,f,y,y,2019_Jul_11_1009,2AFC_task,59.948875572531655,
stimuli/rgb_scene000147_render000000.png,stimuli/rgb_scene000147_render000003.png,1,97,307,86,"[0, 1]",right,1,11,22,f,y,y,2019_Jul_11_1009,2AFC_task,59.948875572531655,
stimuli/rgb_scene000160_render000003.png,stimuli/rgb_scene000160_render000006.png,1,98,308,143,"[0, 1]",right,1,11,22,f,y,y,2019_Jul_11_1009,2AFC_task,59.948875572531655,
stimuli/rgb_scene000147_render000000.png,stimuli/rgb_scene000147_render000006.png,1,99,309,89,"[1, 0]",left,1,11,22,f,y,y,2019_Jul_11_1009,2AFC_task,59.948875572531655,
stimuli/rgb_scene000160_render000000.png,stimuli/rgb_scene000160_render000001.png,1,100,310,126,"[0, 1]",right,1,11,22,f,y,y,2019_Jul_11_1009,2AFC_task,59.948875572531655,
stimuli/rgb_scene000196_render000004.png,stimuli/rgb_scene000196_render000006.png,1,101,311,208,"[0, 1]",left,0,11,22,f,y,y,2019_Jul_11_1009,2AFC_task,59.948875572531655,
stimuli/rgb_scene000160_render000001.png,stimuli/rgb_scene000160_render000004.png,1,102,312,134,"[0, 1]",right,1,11,22,f,y,y,2019_Jul_11_1009,2AFC_task,59.948875572531655,
stimuli/rgb_scene000047_render000004.png,stimuli/rgb_scene000047_render000006.png,1,103,313,40,"[0, 1]",left,0,11,22,f,y,y,2019_Jul_11_1009,2AFC_task,59.948875572531655,
stimuli/rgb_scene000042_render000002.png,stimuli/rgb_scene000042_render000003.png,1,104,314,11,"[1, 0]",right,0,11,22,f,y,y,2019_Jul_11_1009,2AFC_task,59.948875572531655,
stimuli/rgb_scene000042_render000002.png,stimuli/rgb_scene000042_render000005.png,1,105,315,13,"[1, 0]",left,1,11,22,f,y,y,2019_Jul_11_1009,2AFC_task,59.948875572531655,
stimuli/rgb_scene000169_render000000.png,stimuli/rgb_scene000169_render000002.png,1,106,316,169,"[0, 1]",left,0,11,22,f,y,y,2019_Jul_11_1009,2AFC_task,59.948875572531655,
stimuli/rgb_scene000066_render000002.png,stimuli/rgb_scene000066_render000003.png,1,107,317,74,"[1, 0]",left,1,11,22,f,y,y,2019_Jul_11_1009,2AFC_task,59.948875572531655,
stimuli/rgb_scene000196_render000000.png,stimuli/rgb_scene000196_render000004.png,1,108,318,192,"[0, 1]",right,1,11,22,f,y,y,2019_Jul_11_1009,2AFC_task,59.948875572531655,
stimuli/rgb_scene000169_render000001.png,stimuli/rgb_scene000169_render000002.png,1,109,319,174,"[1, 0]",right,0,11,22,f,y,y,2019_Jul_11_1009,2AFC_task,59.948875572531655,
stimuli/rgb_scene000196_render000000.png,stimuli/rgb_scene000196_render000002.png,1,110,320,190,"[1, 0]",right,0,11,22,f,y,y,2019_Jul_11_1009,2AFC_task,59.948875572531655,
stimuli/rgb_scene000150_render000001.png,stimuli/rgb_scene000150_render000003.png,1,111,321,112,"[1, 0]",left,1,11,22,f,y,y,2019_Jul_11_1009,2AFC_task,59.948875572531655,
stimuli/rgb_scene000056_render000003.png,stimuli/rgb_scene000056_render000005.png,1,112,322,58,"[1, 0]",right,0,11,22,f,y,y,2019_Jul_11_1009,2AFC_task,59.948875572531655,
stimuli/rgb_scene000147_render000002.png,stimuli/rgb_scene000147_render000003.png,1,113,323,95,"[1, 0]",left,1,11,22,f,y,y,2019_Jul_11_1009,2AFC_task,59.948875572531655,
stimuli/rgb_scene000147_render000005.png,stimuli/rgb_scene000147_render000006.png,1,114,324,104,"[0, 1]",left,0,11,22,f,y,y,2019_Jul_11_1009,2AFC_task,59.948875572531655,
stimuli/rgb_scene000169_render000000.png,stimuli/rgb_scene000169_render000006.png,1,115,325,173,"[0, 1]",right,1,11,22,f,y,y,2019_Jul_11_1009,2AFC_task,59.948875572531655,
stimuli/rgb_scene000042_render000003.png,stimuli/rgb_scene000042_render000006.png,1,116,326,17,"[0, 1]",right,1,11,22,f,y,y,2019_Jul_11_1009,2AFC_task,59.948875572531655,
stimuli/rgb_scene000042_render000004.png,stimuli/rgb_scene000042_render000005.png,1,117,327,18,"[1, 0]",left,1,11,22,f,y,y,2019_Jul_11_1009,2AFC_task,59.948875572531655,
stimuli/rgb_scene000042_render000001.png,stimuli/rgb_scene000042_render000005.png,1,118,328,9,"[0, 1]",right,1,11,22,f,y,y,2019_Jul_11_1009,2AFC_task,59.948875572531655,
stimuli/rgb_scene000056_render000001.png,stimuli/rgb_scene000056_render000006.png,1,119,329,52,"[1, 0]",left,1,11,22,f,y,y,2019_Jul_11_1009,2AFC_task,59.948875572531655,
stimuli/rgb_scene000147_render000004.png,stimuli/rgb_scene000147_render000006.png,1,120,330,103,"[0, 1]",right,1,11,22,f,y,y,2019_Jul_11_1009,2AFC_task,59.948875572531655,
stimuli/rgb_scene000165_render000002.png,stimuli/rgb_scene000165_render000003.png,1,121,331,158,"[0, 1]",right,1,11,22,f,y,y,2019_Jul_11_1009,2AFC_task,59.948875572531655,
stimuli/rgb_scene000165_render000001.png,stimuli/rgb_scene000165_render000003.png,1,122,332,154,"[0, 1]",left,0,11,22,f,y,y,2019_Jul_11_1009,2AFC_task,59.948875572531655,
stimuli/rgb_scene000056_render000000.png,stimuli/rgb_scene000056_render000002.png,1,123,333,43,"[1, 0]",right,0,11,22,f,y,y,2019_Jul_11_1009,2AFC_task,59.948875572531655,
stimuli/rgb_scene000165_render000000.png,stimuli/rgb_scene000165_render000003.png,1,124,334,149,"[0, 1]",right,1,11,22,f,y,y,2019_Jul_11_1009,2AFC_task,59.948875572531655,
stimuli/rgb_scene000165_render000002.png,stimuli/rgb_scene000165_render000005.png,1,125,335,160,"[1, 0]",left,1,11,22,f,y,y,2019_Jul_11_1009,2AFC_task,59.948875572531655,
stimuli/rgb_scene000165_render000002.png,stimuli/rgb_scene000165_render000006.png,1,126,336,161,"[1, 0]",left,1,11,22,f,y,y,2019_Jul_11_1009,2AFC_task,59.948875572531655,
stimuli/rgb_scene000150_render000001.png,stimuli/rgb_scene000150_render000006.png,1,127,337,115,"[1, 0]",right,0,11,22,f,y,y,2019_Jul_11_1009,2AFC_task,59.948875572531655,
stimuli/rgb_scene000160_render000001.png,stimuli/rgb_scene000160_render000003.png,1,128,338,133,"[1, 0]",left,1,11,22,f,y,y,2019_Jul_11_1009,2AFC_task,59.948875572531655,
stimuli/rgb_scene000169_render000001.png,stimuli/rgb_scene000169_render000004.png,1,129,339,176,"[0, 1]",left,0,11,22,f,y,y,2019_Jul_11_1009,2AFC_task,59.948875572531655,
stimuli/rgb_scene000042_render000002.png,stimuli/rgb_scene000042_render000004.png,1,130,340,12,"[0, 1]",right,1,11,22,f,y,y,2019_Jul_11_1009,2AFC_task,59.948875572531655,
stimuli/rgb_scene000169_render000002.png,stimuli/rgb_scene000169_render000005.png,1,131,341,181,"[0, 1]",left,0,11,22,f,y,y,2019_Jul_11_1009,2AFC_task,59.948875572531655,
stimuli/rgb_scene000196_render000001.png,stimuli/rgb_scene000196_render000003.png,1,132,342,196,"[0, 1]",left,0,11,22,f,y,y,2019_Jul_11_1009,2AFC_task,59.948875572531655,
stimuli/rgb_scene000169_render000000.png,stimuli/rgb_scene000169_render000003.png,1,133,343,170,"[0, 1]",left,0,11,22,f,y,y,2019_Jul_11_1009,2AFC_task,59.948875572531655,
stimuli/rgb_scene000169_render000000.png,stimuli/rgb_scene000169_render000005.png,1,134,344,172,"[0, 1]",left,0,11,22,f,y,y,2019_Jul_11_1009,2AFC_task,59.948875572531655,
stimuli/rgb_scene000056_render000001.png,stimuli/rgb_scene000056_render000003.png,1,135,345,49,"[0, 1]",right,1,11,22,f,y,y,2019_Jul_11_1009,2AFC_task,59.948875572531655,
stimuli/rgb_scene000056_render000004.png,stimuli/rgb_scene000056_render000006.png,1,136,346,61,"[0, 1]",right,1,11,22,f,y,y,2019_Jul_11_1009,2AFC_task,59.948875572531655,
stimuli/rgb_scene000150_render000000.png,stimuli/rgb_scene000150_render000005.png,1,137,347,109,"[1, 0]",left,1,11,22,f,y,y,2019_Jul_11_1009,2AFC_task,59.948875572531655,
stimuli/rgb_scene000165_render000001.png,stimuli/rgb_scene000165_render000004.png,1,138,348,155,"[0, 1]",right,1,11,22,f,y,y,2019_Jul_11_1009,2AFC_task,59.948875572531655,
stimuli/rgb_scene000047_render000000.png,stimuli/rgb_scene000047_render000002.png,1,139,349,22,"[0, 1]",right,1,11,22,f,y,y,2019_Jul_11_1009,2AFC_task,59.948875572531655,
stimuli/rgb_scene000165_render000000.png,stimuli/rgb_scene000165_render000004.png,1,140,350,150,"[1, 0]",right,0,11,22,f,y,y,2019_Jul_11_1009,2AFC_task,59.948875572531655,
stimuli/rgb_scene000169_render000000.png,stimuli/rgb_scene000169_render000001.png,1,141,351,168,"[1, 0]",right,0,11,22,f,y,y,2019_Jul_11_1009,2AFC_task,59.948875572531655,
stimuli/rgb_scene000165_render000005.png,stimuli/rgb_scene000165_render000006.png,1,142,352,167,"[0, 1]",right,1,11,22,f,y,y,2019_Jul_11_1009,2AFC_task,59.948875572531655,
stimuli/rgb_scene000066_render000002.png,stimuli/rgb_scene000066_render000004.png,1,143,353,75,"[1, 0]",left,1,11,22,f,y,y,2019_Jul_11_1009,2AFC_task,59.948875572531655,
stimuli/rgb_scene000169_render000001.png,stimuli/rgb_scene000169_render000005.png,1,144,354,177,"[0, 1]",right,1,11,22,f,y,y,2019_Jul_11_1009,2AFC_task,59.948875572531655,
stimuli/rgb_scene000165_render000000.png,stimuli/rgb_scene000165_render000002.png,1,145,355,148,"[1, 0]",left,1,11,22,f,y,y,2019_Jul_11_1009,2AFC_task,59.948875572531655,
stimuli/rgb_scene000165_render000001.png,stimuli/rgb_scene000165_render000005.png,1,146,356,156,"[1, 0]",left,1,11,22,f,y,y,2019_Jul_11_1009,2AFC_task,59.948875572531655,
stimuli/rgb_scene000160_render000002.png,stimuli/rgb_scene000160_render000005.png,1,147,357,139,"[0, 1]",right,1,11,22,f,y,y,2019_Jul_11_1009,2AFC_task,59.948875572531655,
stimuli/rgb_scene000169_render000002.png,stimuli/rgb_scene000169_render000004.png,1,148,358,180,"[1, 0]",left,1,11,22,f,y,y,2019_Jul_11_1009,2AFC_task,59.948875572531655,
stimuli/rgb_scene000147_render000001.png,stimuli/rgb_scene000147_render000005.png,1,149,359,93,"[0, 1]",right,1,11,22,f,y,y,2019_Jul_11_1009,2AFC_task,59.948875572531655,
stimuli/rgb_scene000047_render000000.png,stimuli/rgb_scene000047_render000004.png,1,150,360,24,"[0, 1]",right,1,11,22,f,y,y,2019_Jul_11_1009,2AFC_task,59.948875572531655,
stimuli/rgb_scene000042_render000000.png,stimuli/rgb_scene000042_render000006.png,1,151,361,5,"[1, 0]",left,1,11,22,f,y,y,2019_Jul_11_1009,2AFC_task,59.948875572531655,
stimuli/rgb_scene000165_render000003.png,stimuli/rgb_scene000165_render000004.png,1,152,362,162,"[0, 1]",right,1,11,22,f,y,y,2019_Jul_11_1009,2AFC_task,59.948875572531655,
stimuli/rgb_scene000160_render000000.png,stimuli/rgb_scene000160_render000002.png,1,153,363,127,"[1, 0]",left,1,11,22,f,y,y,2019_Jul_11_1009,2AFC_task,59.948875572531655,
stimuli/rgb_scene000150_render000004.png,stimuli/rgb_scene000150_render000006.png,1,154,364,124,"[0, 1]",left,0,11,22,f,y,y,2019_Jul_11_1009,2AFC_task,59.948875572531655,
stimuli/rgb_scene000160_render000000.png,stimuli/rgb_scene000160_render000004.png,1,155,365,129,"[0, 1]",right,1,11,22,f,y,y,2019_Jul_11_1009,2AFC_task,59.948875572531655,
stimuli/rgb_scene000160_render000000.png,stimuli/rgb_scene000160_render000003.png,1,156,366,128,"[1, 0]",left,1,11,22,f,y,y,2019_Jul_11_1009,2AFC_task,59.948875572531655,
stimuli/rgb_scene000196_render000004.png,stimuli/rgb_scene000196_render000005.png,1,157,367,207,"[1, 0]",right,0,11,22,f,y,y,2019_Jul_11_1009,2AFC_task,59.948875572531655,
stimuli/rgb_scene000042_render000002.png,stimuli/rgb_scene000042_render000006.png,1,158,368,14,"[0, 1]",left,0,11,22,f,y,y,2019_Jul_11_1009,2AFC_task,59.948875572531655,
stimuli/rgb_scene000042_render000001.png,stimuli/rgb_scene000042_render000002.png,1,159,369,6,"[0, 1]",right,1,11,22,f,y,y,2019_Jul_11_1009,2AFC_task,59.948875572531655,
stimuli/rgb_scene000165_render000004.png,stimuli/rgb_scene000165_render000005.png,1,160,370,165,"[1, 0]",left,1,11,22,f,y,y,2019_Jul_11_1009,2AFC_task,59.948875572531655,
stimuli/rgb_scene000147_render000003.png,stimuli/rgb_scene000147_render000006.png,1,161,371,101,"[0, 1]",right,1,11,22,f,y,y,2019_Jul_11_1009,2AFC_task,59.948875572531655,
stimuli/rgb_scene000165_render000003.png,stimuli/rgb_scene000165_render000006.png,1,162,372,164,"[0, 1]",right,1,11,22,f,y,y,2019_Jul_11_1009,2AFC_task,59.948875572531655,
stimuli/rgb_scene000066_render000003.png,stimuli/rgb_scene000066_render000004.png,1,163,373,78,"[0, 1]",left,0,11,22,f,y,y,2019_Jul_11_1009,2AFC_task,59.948875572531655,
stimuli/rgb_scene000160_render000001.png,stimuli/rgb_scene000160_render000005.png,1,164,374,135,"[1, 0]",left,1,11,22,f,y,y,2019_Jul_11_1009,2AFC_task,59.948875572531655,
stimuli/rgb_scene000047_render000001.png,stimuli/rgb_scene000047_render000003.png,1,165,375,28,"[1, 0]",left,1,11,22,f,y,y,2019_Jul_11_1009,2AFC_task,59.948875572531655,
stimuli/rgb_scene000056_render000002.png,stimuli/rgb_scene000056_render000003.png,1,166,376,53,"[1, 0]",left,1,11,22,f,y,y,2019_Jul_11_1009,2AFC_task,59.948875572531655,
stimuli/rgb_scene000160_render000003.png,stimuli/rgb_scene000160_render000004.png,1,167,377,141,"[0, 1]",right,1,11,22,f,y,y,2019_Jul_11_1009,2AFC_task,59.948875572531655,
stimuli/rgb_scene000056_render000003.png,stimuli/rgb_scene000056_render000004.png,1,168,378,57,"[0, 1]",left,0,11,22,f,y,y,2019_Jul_11_1009,2AFC_task,59.948875572531655,
stimuli/rgb_scene000066_render000000.png,stimuli/rgb_scene000066_render000002.png,1,169,379,64,"[1, 0]",left,1,11,22,f,y,y,2019_Jul_11_1009,2AFC_task,59.948875572531655,
stimuli/rgb_scene000150_render000003.png,stimuli/rgb_scene000150_render000005.png,1,170,380,121,"[1, 0]",left,1,11,22,f,y,y,2019_Jul_11_1009,2AFC_task,59.948875572531655,
stimuli/rgb_scene000042_render000003.png,stimuli/rgb_scene000042_render000005.png,1,171,381,16,"[1, 0]",right,0,11,22,f,y,y,2019_Jul_11_1009,2AFC_task,59.948875572531655,
stimuli/rgb_scene000147_render000002.png,stimuli/rgb_scene000147_render000006.png,1,172,382,98,"[1, 0]",right,0,11,22,f,y,y,2019_Jul_11_1009,2AFC_task,59.948875572531655,
stimuli/rgb_scene000160_render000004.png,stimuli/rgb_scene000160_render000006.png,1,173,383,145,"[0, 1]",right,1,11,22,f,y,y,2019_Jul_11_1009,2AFC_task,59.948875572531655,
stimuli/rgb_scene000066_render000004.png,stimuli/rgb_scene000066_render000005.png,1,174,384,81,"[1, 0]",left,1,11,22,f,y,y,2019_Jul_11_1009,2AFC_task,59.948875572531655,
stimuli/rgb_scene000047_render000000.png,stimuli/rgb_scene000047_render000005.png,1,175,385,25,"[0, 1]",right,1,11,22,f,y,y,2019_Jul_11_1009,2AFC_task,59.948875572531655,
stimuli/rgb_scene000047_render000000.png,stimuli/rgb_scene000047_render000001.png,1,176,386,21,"[1, 0]",right,0,11,22,f,y,y,2019_Jul_11_1009,2AFC_task,59.948875572531655,
stimuli/rgb_scene000056_render000000.png,stimuli/rgb_scene000056_render000005.png,1,177,387,46,"[1, 0]",left,1,11,22,f,y,y,2019_Jul_11_1009,2AFC_task,59.948875572531655,
stimuli/rgb_scene000160_render000001.png,stimuli/rgb_scene000160_render000006.png,1,178,388,136,"[1, 0]",left,1,11,22,f,y,y,2019_Jul_11_1009,2AFC_task,59.948875572531655,
stimuli/rgb_scene000042_render000004.png,stimuli/rgb_scene000042_render000006.png,1,179,389,19,"[0, 1]",right,1,11,22,f,y,y,2019_Jul_11_1009,2AFC_task,59.948875572531655,
stimuli/rgb_scene000047_render000000.png,stimuli/rgb_scene000047_render000006.png,1,180,390,26,"[0, 1]",right,1,11,22,f,y,y,2019_Jul_11_1009,2AFC_task,59.948875572531655,
stimuli/rgb_scene000150_render000001.png,stimuli/rgb_scene000150_render000005.png,1,181,391,114,"[0, 1]",right,1,11,22,f,y,y,2019_Jul_11_1009,2AFC_task,59.948875572531655,
stimuli/rgb_scene000066_render000002.png,stimuli/rgb_scene000066_render000006.png,1,182,392,77,"[0, 1]",right,1,11,22,f,y,y,2019_Jul_11_1009,2AFC_task,59.948875572531655,
stimuli/rgb_scene000196_render000001.png,stimuli/rgb_scene000196_render000004.png,1,183,393,197,"[1, 0]",left,1,11,22,f,y,y,2019_Jul_11_1009,2AFC_task,59.948875572531655,
stimuli/rgb_scene000147_render000000.png,stimuli/rgb_scene000147_render000002.png,1,184,394,85,"[0, 1]",left,0,11,22,f,y,y,2019_Jul_11_1009,2AFC_task,59.948875572531655,
stimuli/rgb_scene000165_render000003.png,stimuli/rgb_scene000165_render000005.png,1,185,395,163,"[0, 1]",right,1,11,22,f,y,y,2019_Jul_11_1009,2AFC_task,59.948875572531655,
stimuli/rgb_scene000196_render000005.png,stimuli/rgb_scene000196_render000006.png,1,186,396,209,"[0, 1]",right,1,11,22,f,y,y,2019_Jul_11_1009,2AFC_task,59.948875572531655,
stimuli/rgb_scene000047_render000001.png,stimuli/rgb_scene000047_render000006.png,1,187,397,31,"[1, 0]",left,1,11,22,f,y,y,2019_Jul_11_1009,2AFC_task,59.948875572531655,
stimuli/rgb_scene000056_render000000.png,stimuli/rgb_scene000056_render000003.png,1,188,398,44,"[0, 1]",right,1,11,22,f,y,y,2019_Jul_11_1009,2AFC_task,59.948875572531655,
stimuli/rgb_scene000056_render000002.png,stimuli/rgb_scene000056_render000006.png,1,189,399,56,"[0, 1]",right,1,11,22,f,y,y,2019_Jul_11_1009,2AFC_task,59.948875572531655,
stimuli/rgb_scene000042_render000001.png,stimuli/rgb_scene000042_render000006.png,1,190,400,10,"[0, 1]",left,0,11,22,f,y,y,2019_Jul_11_1009,2AFC_task,59.948875572531655,
stimuli/rgb_scene000147_render000001.png,stimuli/rgb_scene000147_render000003.png,1,191,401,91,"[1, 0]",left,1,11,22,f,y,y,2019_Jul_11_1009,2AFC_task,59.948875572531655,
stimuli/rgb_scene000165_render000000.png,stimuli/rgb_scene000165_render000006.png,1,192,402,152,"[0, 1]",right,1,11,22,f,y,y,2019_Jul_11_1009,2AFC_task,59.948875572531655,
stimuli/rgb_scene000196_render000003.png,stimuli/rgb_scene000196_render000006.png,1,193,403,206,"[0, 1]",left,0,11,22,f,y,y,2019_Jul_11_1009,2AFC_task,59.948875572531655,
stimuli/rgb_scene000066_render000000.png,stimuli/rgb_scene000066_render000006.png,1,194,404,68,"[0, 1]",right,1,11,22,f,y,y,2019_Jul_11_1009,2AFC_task,59.948875572531655,
stimuli/rgb_scene000169_render000003.png,stimuli/rgb_scene000169_render000004.png,1,195,405,183,"[0, 1]",left,0,11,22,f,y,y,2019_Jul_11_1009,2AFC_task,59.948875572531655,
stimuli/rgb_scene000150_render000000.png,stimuli/rgb_scene000150_render000006.png,1,196,406,110,"[1, 0]",left,1,11,22,f,y,y,2019_Jul_11_1009,2AFC_task,59.948875572531655,
stimuli/rgb_scene000196_render000002.png,stimuli/rgb_scene000196_render000006.png,1,197,407,203,"[1, 0]",right,0,11,22,f,y,y,2019_Jul_11_1009,2AFC_task,59.948875572531655,
stimuli/rgb_scene000150_render000005.png,stimuli/rgb_scene000150_render000006.png,1,198,408,125,"[0, 1]",left,0,11,22,f,y,y,2019_Jul_11_1009,2AFC_task,59.948875572531655,
stimuli/rgb_scene000147_render000003.png,stimuli/rgb_scene000147_render000005.png,1,199,409,100,"[0, 1]",right,1,11,22,f,y,y,2019_Jul_11_1009,2AFC_task,59.948875572531655,
stimuli/rgb_scene000056_render000002.png,stimuli/rgb_scene000056_render000005.png,1,200,410,55,"[1, 0]",left,1,11,22,f,y,y,2019_Jul_11_1009,2AFC_task,59.948875572531655,
stimuli/rgb_scene000150_render000004.png,stimuli/rgb_scene000150_render000005.png,1,201,411,123,"[1, 0]",right,0,11,22,f,y,y,2019_Jul_11_1009,2AFC_task,59.948875572531655,
stimuli/rgb_scene000147_render000003.png,stimuli/rgb_scene000147_render000004.png,1,202,412,99,"[0, 1]",left,0,11,22,f,y,y,2019_Jul_11_1009,2AFC_task,59.948875572531655,
stimuli/rgb_scene000169_render000000.png,stimuli/rgb_scene000169_render000004.png,1,203,413,171,"[0, 1]",left,0,11,22,f,y,y,2019_Jul_11_1009,2AFC_task,59.948875572531655,
stimuli/rgb_scene000066_render000001.png,stimuli/rgb_scene000066_render000003.png,1,204,414,70,"[1, 0]",left,1,11,22,f,y,y,2019_Jul_11_1009,2AFC_task,59.948875572531655,
stimuli/rgb_scene000066_render000003.png,stimuli/rgb_scene000066_render000006.png,1,205,415,80,"[1, 0]",left,1,11,22,f,y,y,2019_Jul_11_1009,2AFC_task,59.948875572531655,
stimuli/rgb_scene000196_render000002.png,stimuli/rgb_scene000196_render000003.png,1,206,416,200,"[1, 0]",right,0,11,22,f,y,y,2019_Jul_11_1009,2AFC_task,59.948875572531655,
stimuli/rgb_scene000150_render000000.png,stimuli/rgb_scene000150_render000001.png,1,207,417,105,"[0, 1]",right,1,11,22,f,y,y,2019_Jul_11_1009,2AFC_task,59.948875572531655,
stimuli/rgb_scene000047_render000002.png,stimuli/rgb_scene000047_render000005.png,1,208,418,34,"[1, 0]",left,1,11,22,f,y,y,2019_Jul_11_1009,2AFC_task,59.948875572531655,
stimuli/rgb_scene000169_render000002.png,stimuli/rgb_scene000169_render000003.png,1,209,419,179,"[1, 0]",right,0,11,22,f,y,y,2019_Jul_11_1009,2AFC_task,59.948875572531655,
