stimOne,stimTwo,trials_1.thisRepN,trials_1.thisTrialN,trials_1.thisN,trials_1.thisIndex,presentation_positions,resp_key,corresponding_image,participant ID (two digits, e.g. 01),age,gender (m/f/-),normal or corrected-to-normal vision (y/n),normal colour vision (y/n),date,expName,frameRate,
stimuli/rgb_scene000165_render000001.png,stimuli/rgb_scene000165_render000002.png,0,0,0,153,"[0, 1]",right,1,12,25,f,y,y,2019_Jul_11_1345,2AFC_task,59.932923091979035,
stimuli/rgb_scene000196_render000002.png,stimuli/rgb_scene000196_render000003.png,0,1,1,200,"[0, 1]",right,1,12,25,f,y,y,2019_Jul_11_1345,2AFC_task,59.932923091979035,
stimuli/rgb_scene000169_render000001.png,stimuli/rgb_scene000169_render000002.png,0,2,2,174,"[1, 0]",left,1,12,25,f,y,y,2019_Jul_11_1345,2AFC_task,59.932923091979035,
stimuli/rgb_scene000165_render000001.png,stimuli/rgb_scene000165_render000005.png,0,3,3,156,"[1, 0]",left,1,12,25,f,y,y,2019_Jul_11_1345,2AFC_task,59.932923091979035,
stimuli/rgb_scene000150_render000000.png,stimuli/rgb_scene000150_render000006.png,0,4,4,110,"[1, 0]",left,1,12,25,f,y,y,2019_Jul_11_1345,2AFC_task,59.932923091979035,
stimuli/rgb_scene000165_render000001.png,stimuli/rgb_scene000165_render000006.png,0,5,5,157,"[1, 0]",left,1,12,25,f,y,y,2019_Jul_11_1345,2AFC_task,59.932923091979035,
stimuli/rgb_scene000165_render000002.png,stimuli/rgb_scene000165_render000004.png,0,6,6,159,"[0, 1]",right,1,12,25,f,y,y,2019_Jul_11_1345,2AFC_task,59.932923091979035,
stimuli/rgb_scene000042_render000000.png,stimuli/rgb_scene000042_render000001.png,0,7,7,0,"[0, 1]",right,1,12,25,f,y,y,2019_Jul_11_1345,2AFC_task,59.932923091979035,
stimuli/rgb_scene000047_render000002.png,stimuli/rgb_scene000047_render000006.png,0,8,8,35,"[0, 1]",left,0,12,25,f,y,y,2019_Jul_11_1345,2AFC_task,59.932923091979035,
stimuli/rgb_scene000056_render000000.png,stimuli/rgb_scene000056_render000001.png,0,9,9,42,"[1, 0]",right,0,12,25,f,y,y,2019_Jul_11_1345,2AFC_task,59.932923091979035,
stimuli/rgb_scene000147_render000002.png,stimuli/rgb_scene000147_render000005.png,0,10,10,97,"[1, 0]",left,1,12,25,f,y,y,2019_Jul_11_1345,2AFC_task,59.932923091979035,
stimuli/rgb_scene000066_render000004.png,stimuli/rgb_scene000066_render000006.png,0,11,11,82,"[1, 0]",left,1,12,25,f,y,y,2019_Jul_11_1345,2AFC_task,59.932923091979035,
stimuli/rgb_scene000160_render000000.png,stimuli/rgb_scene000160_render000002.png,0,12,12,127,"[0, 1]",right,1,12,25,f,y,y,2019_Jul_11_1345,2AFC_task,59.932923091979035,
stimuli/rgb_scene000160_render000002.png,stimuli/rgb_scene000160_render000005.png,0,13,13,139,"[0, 1]",right,1,12,25,f,y,y,2019_Jul_11_1345,2AFC_task,59.932923091979035,
stimuli/rgb_scene000160_render000002.png,stimuli/rgb_scene000160_render000004.png,0,14,14,138,"[0, 1]",right,1,12,25,f,y,y,2019_Jul_11_1345,2AFC_task,59.932923091979035,
stimuli/rgb_scene000066_render000000.png,stimuli/rgb_scene000066_render000005.png,0,15,15,67,"[1, 0]",left,1,12,25,f,y,y,2019_Jul_11_1345,2AFC_task,59.932923091979035,
stimuli/rgb_scene000160_render000002.png,stimuli/rgb_scene000160_render000003.png,0,16,16,137,"[1, 0]",left,1,12,25,f,y,y,2019_Jul_11_1345,2AFC_task,59.932923091979035,
stimuli/rgb_scene000066_render000002.png,stimuli/rgb_scene000066_render000005.png,0,17,17,76,"[0, 1]",right,1,12,25,f,y,y,2019_Jul_11_1345,2AFC_task,59.932923091979035,
stimuli/rgb_scene000165_render000001.png,stimuli/rgb_scene000165_render000004.png,0,18,18,155,"[0, 1]",right,1,12,25,f,y,y,2019_Jul_11_1345,2AFC_task,59.932923091979035,
stimuli/rgb_scene000147_render000004.png,stimuli/rgb_scene000147_render000005.png,0,19,19,102,"[1, 0]",left,1,12,25,f,y,y,2019_Jul_11_1345,2AFC_task,59.932923091979035,
stimuli/rgb_scene000196_render000005.png,stimuli/rgb_scene000196_render000006.png,0,20,20,209,"[1, 0]",right,0,12,25,f,y,y,2019_Jul_11_1345,2AFC_task,59.932923091979035,
stimuli/rgb_scene000042_render000000.png,stimuli/rgb_scene000042_render000004.png,0,21,21,3,"[0, 1]",right,1,12,25,f,y,y,2019_Jul_11_1345,2AFC_task,59.932923091979035,
stimuli/rgb_scene000042_render000003.png,stimuli/rgb_scene000042_render000005.png,0,22,22,16,"[1, 0]",left,1,12,25,f,y,y,2019_Jul_11_1345,2AFC_task,59.932923091979035,
stimuli/rgb_scene000056_render000003.png,stimuli/rgb_scene000056_render000006.png,0,23,23,59,"[0, 1]",right,1,12,25,f,y,y,2019_Jul_11_1345,2AFC_task,59.932923091979035,
stimuli/rgb_scene000066_render000003.png,stimuli/rgb_scene000066_render000004.png,0,24,24,78,"[1, 0]",left,1,12,25,f,y,y,2019_Jul_11_1345,2AFC_task,59.932923091979035,
stimuli/rgb_scene000150_render000002.png,stimuli/rgb_scene000150_render000005.png,0,25,25,118,"[0, 1]",right,1,12,25,f,y,y,2019_Jul_11_1345,2AFC_task,59.932923091979035,
stimuli/rgb_scene000196_render000000.png,stimuli/rgb_scene000196_render000001.png,0,26,26,189,"[0, 1]",right,1,12,25,f,y,y,2019_Jul_11_1345,2AFC_task,59.932923091979035,
stimuli/rgb_scene000056_render000000.png,stimuli/rgb_scene000056_render000005.png,0,27,27,46,"[0, 1]",right,1,12,25,f,y,y,2019_Jul_11_1345,2AFC_task,59.932923091979035,
stimuli/rgb_scene000150_render000000.png,stimuli/rgb_scene000150_render000005.png,0,28,28,109,"[1, 0]",left,1,12,25,f,y,y,2019_Jul_11_1345,2AFC_task,59.932923091979035,
stimuli/rgb_scene000066_render000005.png,stimuli/rgb_scene000066_render000006.png,0,29,29,83,"[0, 1]",right,1,12,25,f,y,y,2019_Jul_11_1345,2AFC_task,59.932923091979035,
stimuli/rgb_scene000042_render000004.png,stimuli/rgb_scene000042_render000006.png,0,30,30,19,"[0, 1]",right,1,12,25,f,y,y,2019_Jul_11_1345,2AFC_task,59.932923091979035,
stimuli/rgb_scene000165_render000004.png,stimuli/rgb_scene000165_render000006.png,0,31,31,166,"[0, 1]",right,1,12,25,f,y,y,2019_Jul_11_1345,2AFC_task,59.932923091979035,
stimuli/rgb_scene000169_render000000.png,stimuli/rgb_scene000169_render000006.png,0,32,32,173,"[0, 1]",right,1,12,25,f,y,y,2019_Jul_11_1345,2AFC_task,59.932923091979035,
stimuli/rgb_scene000042_render000001.png,stimuli/rgb_scene000042_render000003.png,0,33,33,7,"[1, 0]",left,1,12,25,f,y,y,2019_Jul_11_1345,2AFC_task,59.932923091979035,
stimuli/rgb_scene000147_render000002.png,stimuli/rgb_scene000147_render000004.png,0,34,34,96,"[0, 1]",right,1,12,25,f,y,y,2019_Jul_11_1345,2AFC_task,59.932923091979035,
stimuli/rgb_scene000047_render000003.png,stimuli/rgb_scene000047_render000004.png,0,35,35,36,"[1, 0]",right,0,12,25,f,y,y,2019_Jul_11_1345,2AFC_task,59.932923091979035,
stimuli/rgb_scene000147_render000002.png,stimuli/rgb_scene000147_render000006.png,0,36,36,98,"[0, 1]",right,1,12,25,f,y,y,2019_Jul_11_1345,2AFC_task,59.932923091979035,
stimuli/rgb_scene000196_render000003.png,stimuli/rgb_scene000196_render000005.png,0,37,37,205,"[1, 0]",right,0,12,25,f,y,y,2019_Jul_11_1345,2AFC_task,59.932923091979035,
stimuli/rgb_scene000196_render000004.png,stimuli/rgb_scene000196_render000005.png,0,38,38,207,"[1, 0]",left,1,12,25,f,y,y,2019_Jul_11_1345,2AFC_task,59.932923091979035,
stimuli/rgb_scene000066_render000001.png,stimuli/rgb_scene000066_render000006.png,0,39,39,73,"[1, 0]",left,1,12,25,f,y,y,2019_Jul_11_1345,2AFC_task,59.932923091979035,
stimuli/rgb_scene000047_render000003.png,stimuli/rgb_scene000047_render000006.png,0,40,40,38,"[0, 1]",right,1,12,25,f,y,y,2019_Jul_11_1345,2AFC_task,59.932923091979035,
stimuli/rgb_scene000042_render000004.png,stimuli/rgb_scene000042_render000005.png,0,41,41,18,"[0, 1]",right,1,12,25,f,y,y,2019_Jul_11_1345,2AFC_task,59.932923091979035,
stimuli/rgb_scene000042_render000002.png,stimuli/rgb_scene000042_render000005.png,0,42,42,13,"[1, 0]",left,1,12,25,f,y,y,2019_Jul_11_1345,2AFC_task,59.932923091979035,
stimuli/rgb_scene000196_render000001.png,stimuli/rgb_scene000196_render000002.png,0,43,43,195,"[1, 0]",left,1,12,25,f,y,y,2019_Jul_11_1345,2AFC_task,59.932923091979035,
stimuli/rgb_scene000056_render000000.png,stimuli/rgb_scene000056_render000004.png,0,44,44,45,"[1, 0]",right,0,12,25,f,y,y,2019_Jul_11_1345,2AFC_task,59.932923091979035,
stimuli/rgb_scene000150_render000002.png,stimuli/rgb_scene000150_render000006.png,0,45,45,119,"[1, 0]",left,1,12,25,f,y,y,2019_Jul_11_1345,2AFC_task,59.932923091979035,
stimuli/rgb_scene000150_render000001.png,stimuli/rgb_scene000150_render000005.png,0,46,46,114,"[0, 1]",right,1,12,25,f,y,y,2019_Jul_11_1345,2AFC_task,59.932923091979035,
stimuli/rgb_scene000150_render000001.png,stimuli/rgb_scene000150_render000002.png,0,47,47,111,"[0, 1]",right,1,12,25,f,y,y,2019_Jul_11_1345,2AFC_task,59.932923091979035,
stimuli/rgb_scene000147_render000003.png,stimuli/rgb_scene000147_render000004.png,0,48,48,99,"[0, 1]",right,1,12,25,f,y,y,2019_Jul_11_1345,2AFC_task,59.932923091979035,
stimuli/rgb_scene000042_render000002.png,stimuli/rgb_scene000042_render000004.png,0,49,49,12,"[1, 0]",left,1,12,25,f,y,y,2019_Jul_11_1345,2AFC_task,59.932923091979035,
stimuli/rgb_scene000056_render000001.png,stimuli/rgb_scene000056_render000005.png,0,50,50,51,"[0, 1]",right,1,12,25,f,y,y,2019_Jul_11_1345,2AFC_task,59.932923091979035,
stimuli/rgb_scene000165_render000000.png,stimuli/rgb_scene000165_render000006.png,0,51,51,152,"[0, 1]",right,1,12,25,f,y,y,2019_Jul_11_1345,2AFC_task,59.932923091979035,
stimuli/rgb_scene000066_render000001.png,stimuli/rgb_scene000066_render000002.png,0,52,52,69,"[1, 0]",right,0,12,25,f,y,y,2019_Jul_11_1345,2AFC_task,59.932923091979035,
stimuli/rgb_scene000147_render000001.png,stimuli/rgb_scene000147_render000002.png,0,53,53,90,"[0, 1]",right,1,12,25,f,y,y,2019_Jul_11_1345,2AFC_task,59.932923091979035,
stimuli/rgb_scene000165_render000004.png,stimuli/rgb_scene000165_render000005.png,0,54,54,165,"[0, 1]",right,1,12,25,f,y,y,2019_Jul_11_1345,2AFC_task,59.932923091979035,
stimuli/rgb_scene000169_render000002.png,stimuli/rgb_scene000169_render000006.png,0,55,55,182,"[0, 1]",left,0,12,25,f,y,y,2019_Jul_11_1345,2AFC_task,59.932923091979035,
stimuli/rgb_scene000066_render000002.png,stimuli/rgb_scene000066_render000006.png,0,56,56,77,"[0, 1]",right,1,12,25,f,y,y,2019_Jul_11_1345,2AFC_task,59.932923091979035,
stimuli/rgb_scene000169_render000004.png,stimuli/rgb_scene000169_render000005.png,0,57,57,186,"[0, 1]",right,1,12,25,f,y,y,2019_Jul_11_1345,2AFC_task,59.932923091979035,
stimuli/rgb_scene000165_render000002.png,stimuli/rgb_scene000165_render000006.png,0,58,58,161,"[1, 0]",left,1,12,25,f,y,y,2019_Jul_11_1345,2AFC_task,59.932923091979035,
stimuli/rgb_scene000147_render000003.png,stimuli/rgb_scene000147_render000005.png,0,59,59,100,"[0, 1]",right,1,12,25,f,y,y,2019_Jul_11_1345,2AFC_task,59.932923091979035,
stimuli/rgb_scene000165_render000000.png,stimuli/rgb_scene000165_render000005.png,0,60,60,151,"[1, 0]",left,1,12,25,f,y,y,2019_Jul_11_1345,2AFC_task,59.932923091979035,
stimuli/rgb_scene000196_render000000.png,stimuli/rgb_scene000196_render000005.png,0,61,61,193,"[1, 0]",right,0,12,25,f,y,y,2019_Jul_11_1345,2AFC_task,59.932923091979035,
stimuli/rgb_scene000196_render000000.png,stimuli/rgb_scene000196_render000003.png,0,62,62,191,"[0, 1]",left,0,12,25,f,y,y,2019_Jul_11_1345,2AFC_task,59.932923091979035,
stimuli/rgb_scene000160_render000003.png,stimuli/rgb_scene000160_render000004.png,0,63,63,141,"[0, 1]",left,0,12,25,f,y,y,2019_Jul_11_1345,2AFC_task,59.932923091979035,
stimuli/rgb_scene000196_render000002.png,stimuli/rgb_scene000196_render000005.png,0,64,64,202,"[1, 0]",right,0,12,25,f,y,y,2019_Jul_11_1345,2AFC_task,59.932923091979035,
stimuli/rgb_scene000196_render000001.png,stimuli/rgb_scene000196_render000005.png,0,65,65,198,"[0, 1]",left,0,12,25,f,y,y,2019_Jul_11_1345,2AFC_task,59.932923091979035,
stimuli/rgb_scene000066_render000004.png,stimuli/rgb_scene000066_render000005.png,0,66,66,81,"[1, 0]",left,1,12,25,f,y,y,2019_Jul_11_1345,2AFC_task,59.932923091979035,
stimuli/rgb_scene000160_render000001.png,stimuli/rgb_scene000160_render000003.png,0,67,67,133,"[0, 1]",left,0,12,25,f,y,y,2019_Jul_11_1345,2AFC_task,59.932923091979035,
stimuli/rgb_scene000066_render000001.png,stimuli/rgb_scene000066_render000005.png,0,68,68,72,"[1, 0]",left,1,12,25,f,y,y,2019_Jul_11_1345,2AFC_task,59.932923091979035,
stimuli/rgb_scene000056_render000005.png,stimuli/rgb_scene000056_render000006.png,0,69,69,62,"[0, 1]",right,1,12,25,f,y,y,2019_Jul_11_1345,2AFC_task,59.932923091979035,
stimuli/rgb_scene000169_render000002.png,stimuli/rgb_scene000169_render000003.png,0,70,70,179,"[1, 0]",right,0,12,25,f,y,y,2019_Jul_11_1345,2AFC_task,59.932923091979035,
stimuli/rgb_scene000047_render000002.png,stimuli/rgb_scene000047_render000005.png,0,71,71,34,"[1, 0]",right,0,12,25,f,y,y,2019_Jul_11_1345,2AFC_task,59.932923091979035,
stimuli/rgb_scene000056_render000000.png,stimuli/rgb_scene000056_render000003.png,0,72,72,44,"[1, 0]",right,0,12,25,f,y,y,2019_Jul_11_1345,2AFC_task,59.932923091979035,
stimuli/rgb_scene000047_render000004.png,stimuli/rgb_scene000047_render000005.png,0,73,73,39,"[1, 0]",right,0,12,25,f,y,y,2019_Jul_11_1345,2AFC_task,59.932923091979035,
stimuli/rgb_scene000047_render000003.png,stimuli/rgb_scene000047_render000005.png,0,74,74,37,"[0, 1]",left,0,12,25,f,y,y,2019_Jul_11_1345,2AFC_task,59.932923091979035,
stimuli/rgb_scene000150_render000001.png,stimuli/rgb_scene000150_render000004.png,0,75,75,113,"[1, 0]",left,1,12,25,f,y,y,2019_Jul_11_1345,2AFC_task,59.932923091979035,
stimuli/rgb_scene000147_render000001.png,stimuli/rgb_scene000147_render000005.png,0,76,76,93,"[0, 1]",right,1,12,25,f,y,y,2019_Jul_11_1345,2AFC_task,59.932923091979035,
stimuli/rgb_scene000150_render000000.png,stimuli/rgb_scene000150_render000001.png,0,77,77,105,"[0, 1]",right,1,12,25,f,y,y,2019_Jul_11_1345,2AFC_task,59.932923091979035,
stimuli/rgb_scene000147_render000001.png,stimuli/rgb_scene000147_render000004.png,0,78,78,92,"[1, 0]",left,1,12,25,f,y,y,2019_Jul_11_1345,2AFC_task,59.932923091979035,
stimuli/rgb_scene000047_render000005.png,stimuli/rgb_scene000047_render000006.png,0,79,79,41,"[0, 1]",left,0,12,25,f,y,y,2019_Jul_11_1345,2AFC_task,59.932923091979035,
stimuli/rgb_scene000150_render000002.png,stimuli/rgb_scene000150_render000004.png,0,80,80,117,"[0, 1]",right,1,12,25,f,y,y,2019_Jul_11_1345,2AFC_task,59.932923091979035,
stimuli/rgb_scene000160_render000003.png,stimuli/rgb_scene000160_render000006.png,0,81,81,143,"[0, 1]",right,1,12,25,f,y,y,2019_Jul_11_1345,2AFC_task,59.932923091979035,
stimuli/rgb_scene000147_render000000.png,stimuli/rgb_scene000147_render000004.png,0,82,82,87,"[1, 0]",left,1,12,25,f,y,y,2019_Jul_11_1345,2AFC_task,59.932923091979035,
stimuli/rgb_scene000147_render000000.png,stimuli/rgb_scene000147_render000005.png,0,83,83,88,"[1, 0]",left,1,12,25,f,y,y,2019_Jul_11_1345,2AFC_task,59.932923091979035,
stimuli/rgb_scene000150_render000002.png,stimuli/rgb_scene000150_render000003.png,0,84,84,116,"[1, 0]",left,1,12,25,f,y,y,2019_Jul_11_1345,2AFC_task,59.932923091979035,
stimuli/rgb_scene000147_render000002.png,stimuli/rgb_scene000147_render000003.png,0,85,85,95,"[1, 0]",left,1,12,25,f,y,y,2019_Jul_11_1345,2AFC_task,59.932923091979035,
stimuli/rgb_scene000165_render000001.png,stimuli/rgb_scene000165_render000003.png,0,86,86,154,"[0, 1]",right,1,12,25,f,y,y,2019_Jul_11_1345,2AFC_task,59.932923091979035,
stimuli/rgb_scene000150_render000005.png,stimuli/rgb_scene000150_render000006.png,0,87,87,125,"[0, 1]",left,0,12,25,f,y,y,2019_Jul_11_1345,2AFC_task,59.932923091979035,
stimuli/rgb_scene000169_render000001.png,stimuli/rgb_scene000169_render000006.png,0,88,88,178,"[1, 0]",right,0,12,25,f,y,y,2019_Jul_11_1345,2AFC_task,59.932923091979035,
stimuli/rgb_scene000150_render000001.png,stimuli/rgb_scene000150_render000003.png,0,89,89,112,"[0, 1]",right,1,12,25,f,y,y,2019_Jul_11_1345,2AFC_task,59.932923091979035,
stimuli/rgb_scene000196_render000002.png,stimuli/rgb_scene000196_render000004.png,0,90,90,201,"[1, 0]",left,1,12,25,f,y,y,2019_Jul_11_1345,2AFC_task,59.932923091979035,
stimuli/rgb_scene000150_render000004.png,stimuli/rgb_scene000150_render000005.png,0,91,91,123,"[1, 0]",left,1,12,25,f,y,y,2019_Jul_11_1345,2AFC_task,59.932923091979035,
stimuli/rgb_scene000056_render000004.png,stimuli/rgb_scene000056_render000006.png,0,92,92,61,"[0, 1]",right,1,12,25,f,y,y,2019_Jul_11_1345,2AFC_task,59.932923091979035,
stimuli/rgb_scene000165_render000005.png,stimuli/rgb_scene000165_render000006.png,0,93,93,167,"[0, 1]",right,1,12,25,f,y,y,2019_Jul_11_1345,2AFC_task,59.932923091979035,
stimuli/rgb_scene000147_render000000.png,stimuli/rgb_scene000147_render000002.png,0,94,94,85,"[1, 0]",left,1,12,25,f,y,y,2019_Jul_11_1345,2AFC_task,59.932923091979035,
stimuli/rgb_scene000147_render000000.png,stimuli/rgb_scene000147_render000006.png,0,95,95,89,"[1, 0]",left,1,12,25,f,y,y,2019_Jul_11_1345,2AFC_task,59.932923091979035,
stimuli/rgb_scene000160_render000005.png,stimuli/rgb_scene000160_render000006.png,0,96,96,146,"[1, 0]",left,1,12,25,f,y,y,2019_Jul_11_1345,2AFC_task,59.932923091979035,
stimuli/rgb_scene000042_render000001.png,stimuli/rgb_scene000042_render000004.png,0,97,97,8,"[0, 1]",right,1,12,25,f,y,y,2019_Jul_11_1345,2AFC_task,59.932923091979035,
stimuli/rgb_scene000147_render000004.png,stimuli/rgb_scene000147_render000006.png,0,98,98,103,"[0, 1]",right,1,12,25,f,y,y,2019_Jul_11_1345,2AFC_task,59.932923091979035,
stimuli/rgb_scene000196_render000003.png,stimuli/rgb_scene000196_render000006.png,0,99,99,206,"[0, 1]",left,0,12,25,f,y,y,2019_Jul_11_1345,2AFC_task,59.932923091979035,
stimuli/rgb_scene000196_render000001.png,stimuli/rgb_scene000196_render000006.png,0,100,100,199,"[0, 1]",left,0,12,25,f,y,y,2019_Jul_11_1345,2AFC_task,59.932923091979035,
stimuli/rgb_scene000169_render000002.png,stimuli/rgb_scene000169_render000004.png,0,101,101,180,"[1, 0]",right,0,12,25,f,y,y,2019_Jul_11_1345,2AFC_task,59.932923091979035,
stimuli/rgb_scene000196_render000000.png,stimuli/rgb_scene000196_render000004.png,0,102,102,192,"[0, 1]",right,1,12,25,f,y,y,2019_Jul_11_1345,2AFC_task,59.932923091979035,
stimuli/rgb_scene000169_render000000.png,stimuli/rgb_scene000169_render000002.png,0,103,103,169,"[1, 0]",right,0,12,25,f,y,y,2019_Jul_11_1345,2AFC_task,59.932923091979035,
stimuli/rgb_scene000196_render000002.png,stimuli/rgb_scene000196_render000006.png,0,104,104,203,"[1, 0]",right,0,12,25,f,y,y,2019_Jul_11_1345,2AFC_task,59.932923091979035,
stimuli/rgb_scene000042_render000001.png,stimuli/rgb_scene000042_render000005.png,0,105,105,9,"[0, 1]",right,1,12,25,f,y,y,2019_Jul_11_1345,2AFC_task,59.932923091979035,
stimuli/rgb_scene000047_render000000.png,stimuli/rgb_scene000047_render000003.png,0,106,106,23,"[1, 0]",left,1,12,25,f,y,y,2019_Jul_11_1345,2AFC_task,59.932923091979035,
stimuli/rgb_scene000150_render000000.png,stimuli/rgb_scene000150_render000002.png,0,107,107,106,"[0, 1]",right,1,12,25,f,y,y,2019_Jul_11_1345,2AFC_task,59.932923091979035,
stimuli/rgb_scene000160_render000001.png,stimuli/rgb_scene000160_render000002.png,0,108,108,132,"[1, 0]",left,1,12,25,f,y,y,2019_Jul_11_1345,2AFC_task,59.932923091979035,
stimuli/rgb_scene000169_render000000.png,stimuli/rgb_scene000169_render000003.png,0,109,109,170,"[0, 1]",left,0,12,25,f,y,y,2019_Jul_11_1345,2AFC_task,59.932923091979035,
stimuli/rgb_scene000147_render000000.png,stimuli/rgb_scene000147_render000001.png,0,110,110,84,"[0, 1]",right,1,12,25,f,y,y,2019_Jul_11_1345,2AFC_task,59.932923091979035,
stimuli/rgb_scene000150_render000003.png,stimuli/rgb_scene000150_render000005.png,0,111,111,121,"[1, 0]",left,1,12,25,f,y,y,2019_Jul_11_1345,2AFC_task,59.932923091979035,
stimuli/rgb_scene000169_render000004.png,stimuli/rgb_scene000169_render000006.png,0,112,112,187,"[0, 1]",left,0,12,25,f,y,y,2019_Jul_11_1345,2AFC_task,59.932923091979035,
stimuli/rgb_scene000047_render000000.png,stimuli/rgb_scene000047_render000005.png,0,113,113,25,"[0, 1]",right,1,12,25,f,y,y,2019_Jul_11_1345,2AFC_task,59.932923091979035,
stimuli/rgb_scene000165_render000000.png,stimuli/rgb_scene000165_render000001.png,0,114,114,147,"[0, 1]",right,1,12,25,f,y,y,2019_Jul_11_1345,2AFC_task,59.932923091979035,
stimuli/rgb_scene000047_render000000.png,stimuli/rgb_scene000047_render000002.png,0,115,115,22,"[1, 0]",left,1,12,25,f,y,y,2019_Jul_11_1345,2AFC_task,59.932923091979035,
stimuli/rgb_scene000160_render000000.png,stimuli/rgb_scene000160_render000006.png,0,116,116,131,"[1, 0]",left,1,12,25,f,y,y,2019_Jul_11_1345,2AFC_task,59.932923091979035,
stimuli/rgb_scene000160_render000001.png,stimuli/rgb_scene000160_render000005.png,0,117,117,135,"[1, 0]",left,1,12,25,f,y,y,2019_Jul_11_1345,2AFC_task,59.932923091979035,
stimuli/rgb_scene000150_render000003.png,stimuli/rgb_scene000150_render000006.png,0,118,118,122,"[0, 1]",right,1,12,25,f,y,y,2019_Jul_11_1345,2AFC_task,59.932923091979035,
stimuli/rgb_scene000150_render000000.png,stimuli/rgb_scene000150_render000003.png,0,119,119,107,"[1, 0]",left,1,12,25,f,y,y,2019_Jul_11_1345,2AFC_task,59.932923091979035,
stimuli/rgb_scene000165_render000000.png,stimuli/rgb_scene000165_render000002.png,0,120,120,148,"[0, 1]",right,1,12,25,f,y,y,2019_Jul_11_1345,2AFC_task,59.932923091979035,
stimuli/rgb_scene000066_render000000.png,stimuli/rgb_scene000066_render000002.png,0,121,121,64,"[1, 0]",left,1,12,25,f,y,y,2019_Jul_11_1345,2AFC_task,59.932923091979035,
stimuli/rgb_scene000042_render000003.png,stimuli/rgb_scene000042_render000004.png,0,122,122,15,"[1, 0]",left,1,12,25,f,y,y,2019_Jul_11_1345,2AFC_task,59.932923091979035,
stimuli/rgb_scene000165_render000000.png,stimuli/rgb_scene000165_render000004.png,0,123,123,150,"[0, 1]",right,1,12,25,f,y,y,2019_Jul_11_1345,2AFC_task,59.932923091979035,
stimuli/rgb_scene000169_render000000.png,stimuli/rgb_scene000169_render000005.png,0,124,124,172,"[1, 0]",right,0,12,25,f,y,y,2019_Jul_11_1345,2AFC_task,59.932923091979035,
stimuli/rgb_scene000042_render000002.png,stimuli/rgb_scene000042_render000006.png,0,125,125,14,"[1, 0]",left,1,12,25,f,y,y,2019_Jul_11_1345,2AFC_task,59.932923091979035,
stimuli/rgb_scene000196_render000001.png,stimuli/rgb_scene000196_render000004.png,0,126,126,197,"[0, 1]",right,1,12,25,f,y,y,2019_Jul_11_1345,2AFC_task,59.932923091979035,
stimuli/rgb_scene000042_render000005.png,stimuli/rgb_scene000042_render000006.png,0,127,127,20,"[0, 1]",right,1,12,25,f,y,y,2019_Jul_11_1345,2AFC_task,59.932923091979035,
stimuli/rgb_scene000150_render000001.png,stimuli/rgb_scene000150_render000006.png,0,128,128,115,"[0, 1]",right,1,12,25,f,y,y,2019_Jul_11_1345,2AFC_task,59.932923091979035,
stimuli/rgb_scene000160_render000000.png,stimuli/rgb_scene000160_render000004.png,0,129,129,129,"[1, 0]",left,1,12,25,f,y,y,2019_Jul_11_1345,2AFC_task,59.932923091979035,
stimuli/rgb_scene000066_render000003.png,stimuli/rgb_scene000066_render000006.png,0,130,130,80,"[1, 0]",left,1,12,25,f,y,y,2019_Jul_11_1345,2AFC_task,59.932923091979035,
stimuli/rgb_scene000160_render000002.png,stimuli/rgb_scene000160_render000006.png,0,131,131,140,"[0, 1]",right,1,12,25,f,y,y,2019_Jul_11_1345,2AFC_task,59.932923091979035,
stimuli/rgb_scene000056_render000002.png,stimuli/rgb_scene000056_render000003.png,0,132,132,53,"[1, 0]",left,1,12,25,f,y,y,2019_Jul_11_1345,2AFC_task,59.932923091979035,
stimuli/rgb_scene000196_render000003.png,stimuli/rgb_scene000196_render000004.png,0,133,133,204,"[0, 1]",left,0,12,25,f,y,y,2019_Jul_11_1345,2AFC_task,59.932923091979035,
stimuli/rgb_scene000056_render000000.png,stimuli/rgb_scene000056_render000002.png,0,134,134,43,"[1, 0]",left,1,12,25,f,y,y,2019_Jul_11_1345,2AFC_task,59.932923091979035,
stimuli/rgb_scene000066_render000000.png,stimuli/rgb_scene000066_render000001.png,0,135,135,63,"[0, 1]",left,0,12,25,f,y,y,2019_Jul_11_1345,2AFC_task,59.932923091979035,
stimuli/rgb_scene000042_render000000.png,stimuli/rgb_scene000042_render000002.png,0,136,136,1,"[0, 1]",right,1,12,25,f,y,y,2019_Jul_11_1345,2AFC_task,59.932923091979035,
stimuli/rgb_scene000047_render000000.png,stimuli/rgb_scene000047_render000001.png,0,137,137,21,"[0, 1]",right,1,12,25,f,y,y,2019_Jul_11_1345,2AFC_task,59.932923091979035,
stimuli/rgb_scene000169_render000003.png,stimuli/rgb_scene000169_render000006.png,0,138,138,185,"[1, 0]",left,1,12,25,f,y,y,2019_Jul_11_1345,2AFC_task,59.932923091979035,
stimuli/rgb_scene000047_render000000.png,stimuli/rgb_scene000047_render000006.png,0,139,139,26,"[1, 0]",left,1,12,25,f,y,y,2019_Jul_11_1345,2AFC_task,59.932923091979035,
stimuli/rgb_scene000147_render000003.png,stimuli/rgb_scene000147_render000006.png,0,140,140,101,"[1, 0]",left,1,12,25,f,y,y,2019_Jul_11_1345,2AFC_task,59.932923091979035,
stimuli/rgb_scene000042_render000000.png,stimuli/rgb_scene000042_render000005.png,0,141,141,4,"[1, 0]",left,1,12,25,f,y,y,2019_Jul_11_1345,2AFC_task,59.932923091979035,
stimuli/rgb_scene000169_render000002.png,stimuli/rgb_scene000169_render000005.png,0,142,142,181,"[0, 1]",right,1,12,25,f,y,y,2019_Jul_11_1345,2AFC_task,59.932923091979035,
stimuli/rgb_scene000047_render000001.png,stimuli/rgb_scene000047_render000002.png,0,143,143,27,"[0, 1]",right,1,12,25,f,y,y,2019_Jul_11_1345,2AFC_task,59.932923091979035,
stimuli/rgb_scene000165_render000002.png,stimuli/rgb_scene000165_render000005.png,0,144,144,160,"[1, 0]",left,1,12,25,f,y,y,2019_Jul_11_1345,2AFC_task,59.932923091979035,
stimuli/rgb_scene000150_render000000.png,stimuli/rgb_scene000150_render000004.png,0,145,145,108,"[0, 1]",right,1,12,25,f,y,y,2019_Jul_11_1345,2AFC_task,59.932923091979035,
stimuli/rgb_scene000169_render000001.png,stimuli/rgb_scene000169_render000005.png,0,146,146,177,"[1, 0]",right,0,12,25,f,y,y,2019_Jul_11_1345,2AFC_task,59.932923091979035,
stimuli/rgb_scene000042_render000001.png,stimuli/rgb_scene000042_render000006.png,0,147,147,10,"[1, 0]",left,1,12,25,f,y,y,2019_Jul_11_1345,2AFC_task,59.932923091979035,
stimuli/rgb_scene000056_render000002.png,stimuli/rgb_scene000056_render000004.png,0,148,148,54,"[1, 0]",left,1,12,25,f,y,y,2019_Jul_11_1345,2AFC_task,59.932923091979035,
stimuli/rgb_scene000160_render000003.png,stimuli/rgb_scene000160_render000005.png,0,149,149,142,"[1, 0]",left,1,12,25,f,y,y,2019_Jul_11_1345,2AFC_task,59.932923091979035,
stimuli/rgb_scene000160_render000000.png,stimuli/rgb_scene000160_render000003.png,0,150,150,128,"[0, 1]",right,1,12,25,f,y,y,2019_Jul_11_1345,2AFC_task,59.932923091979035,
stimuli/rgb_scene000196_render000001.png,stimuli/rgb_scene000196_render000003.png,0,151,151,196,"[0, 1]",left,0,12,25,f,y,y,2019_Jul_11_1345,2AFC_task,59.932923091979035,
stimuli/rgb_scene000066_render000001.png,stimuli/rgb_scene000066_render000004.png,0,152,152,71,"[1, 0]",left,1,12,25,f,y,y,2019_Jul_11_1345,2AFC_task,59.932923091979035,
stimuli/rgb_scene000150_render000003.png,stimuli/rgb_scene000150_render000004.png,0,153,153,120,"[1, 0]",left,1,12,25,f,y,y,2019_Jul_11_1345,2AFC_task,59.932923091979035,
stimuli/rgb_scene000047_render000001.png,stimuli/rgb_scene000047_render000005.png,0,154,154,30,"[1, 0]",left,1,12,25,f,y,y,2019_Jul_11_1345,2AFC_task,59.932923091979035,
stimuli/rgb_scene000042_render000000.png,stimuli/rgb_scene000042_render000003.png,0,155,155,2,"[0, 1]",right,1,12,25,f,y,y,2019_Jul_11_1345,2AFC_task,59.932923091979035,
stimuli/rgb_scene000066_render000000.png,stimuli/rgb_scene000066_render000006.png,0,156,156,68,"[1, 0]",left,1,12,25,f,y,y,2019_Jul_11_1345,2AFC_task,59.932923091979035,
stimuli/rgb_scene000150_render000004.png,stimuli/rgb_scene000150_render000006.png,0,157,157,124,"[0, 1]",right,1,12,25,f,y,y,2019_Jul_11_1345,2AFC_task,59.932923091979035,
stimuli/rgb_scene000042_render000003.png,stimuli/rgb_scene000042_render000006.png,0,158,158,17,"[1, 0]",left,1,12,25,f,y,y,2019_Jul_11_1345,2AFC_task,59.932923091979035,
stimuli/rgb_scene000165_render000000.png,stimuli/rgb_scene000165_render000003.png,0,159,159,149,"[0, 1]",right,1,12,25,f,y,y,2019_Jul_11_1345,2AFC_task,59.932923091979035,
stimuli/rgb_scene000047_render000002.png,stimuli/rgb_scene000047_render000004.png,0,160,160,33,"[1, 0]",left,1,12,25,f,y,y,2019_Jul_11_1345,2AFC_task,59.932923091979035,
stimuli/rgb_scene000056_render000001.png,stimuli/rgb_scene000056_render000004.png,0,161,161,50,"[0, 1]",left,0,12,25,f,y,y,2019_Jul_11_1345,2AFC_task,59.932923091979035,
stimuli/rgb_scene000066_render000002.png,stimuli/rgb_scene000066_render000004.png,0,162,162,75,"[1, 0]",left,1,12,25,f,y,y,2019_Jul_11_1345,2AFC_task,59.932923091979035,
stimuli/rgb_scene000047_render000004.png,stimuli/rgb_scene000047_render000006.png,0,163,163,40,"[1, 0]",right,0,12,25,f,y,y,2019_Jul_11_1345,2AFC_task,59.932923091979035,
stimuli/rgb_scene000196_render000004.png,stimuli/rgb_scene000196_render000006.png,0,164,164,208,"[1, 0]",right,0,12,25,f,y,y,2019_Jul_11_1345,2AFC_task,59.932923091979035,
stimuli/rgb_scene000066_render000003.png,stimuli/rgb_scene000066_render000005.png,0,165,165,79,"[0, 1]",right,1,12,25,f,y,y,2019_Jul_11_1345,2AFC_task,59.932923091979035,
stimuli/rgb_scene000056_render000001.png,stimuli/rgb_scene000056_render000002.png,0,166,166,48,"[0, 1]",left,0,12,25,f,y,y,2019_Jul_11_1345,2AFC_task,59.932923091979035,
stimuli/rgb_scene000147_render000001.png,stimuli/rgb_scene000147_render000003.png,0,167,167,91,"[1, 0]",left,1,12,25,f,y,y,2019_Jul_11_1345,2AFC_task,59.932923091979035,
stimuli/rgb_scene000047_render000001.png,stimuli/rgb_scene000047_render000003.png,0,168,168,28,"[0, 1]",right,1,12,25,f,y,y,2019_Jul_11_1345,2AFC_task,59.932923091979035,
stimuli/rgb_scene000066_render000002.png,stimuli/rgb_scene000066_render000003.png,0,169,169,74,"[0, 1]",right,1,12,25,f,y,y,2019_Jul_11_1345,2AFC_task,59.932923091979035,
stimuli/rgb_scene000165_render000003.png,stimuli/rgb_scene000165_render000004.png,0,170,170,162,"[1, 0]",left,1,12,25,f,y,y,2019_Jul_11_1345,2AFC_task,59.932923091979035,
stimuli/rgb_scene000160_render000001.png,stimuli/rgb_scene000160_render000004.png,0,171,171,134,"[0, 1]",right,1,12,25,f,y,y,2019_Jul_11_1345,2AFC_task,59.932923091979035,
stimuli/rgb_scene000169_render000001.png,stimuli/rgb_scene000169_render000003.png,0,172,172,175,"[0, 1]",right,1,12,25,f,y,y,2019_Jul_11_1345,2AFC_task,59.932923091979035,
stimuli/rgb_scene000196_render000000.png,stimuli/rgb_scene000196_render000002.png,0,173,173,190,"[1, 0]",right,0,12,25,f,y,y,2019_Jul_11_1345,2AFC_task,59.932923091979035,
stimuli/rgb_scene000147_render000005.png,stimuli/rgb_scene000147_render000006.png,0,174,174,104,"[0, 1]",right,1,12,25,f,y,y,2019_Jul_11_1345,2AFC_task,59.932923091979035,
stimuli/rgb_scene000169_render000000.png,stimuli/rgb_scene000169_render000001.png,0,175,175,168,"[0, 1]",right,1,12,25,f,y,y,2019_Jul_11_1345,2AFC_task,59.932923091979035,
stimuli/rgb_scene000066_render000001.png,stimuli/rgb_scene000066_render000003.png,0,176,176,70,"[0, 1]",right,1,12,25,f,y,y,2019_Jul_11_1345,2AFC_task,59.932923091979035,
stimuli/rgb_scene000056_render000002.png,stimuli/rgb_scene000056_render000005.png,0,177,177,55,"[0, 1]",right,1,12,25,f,y,y,2019_Jul_11_1345,2AFC_task,59.932923091979035,
stimuli/rgb_scene000169_render000003.png,stimuli/rgb_scene000169_render000004.png,0,178,178,183,"[0, 1]",right,1,12,25,f,y,y,2019_Jul_11_1345,2AFC_task,59.932923091979035,
stimuli/rgb_scene000047_render000001.png,stimuli/rgb_scene000047_render000004.png,0,179,179,29,"[0, 1]",right,1,12,25,f,y,y,2019_Jul_11_1345,2AFC_task,59.932923091979035,
stimuli/rgb_scene000160_render000004.png,stimuli/rgb_scene000160_render000006.png,0,180,180,145,"[1, 0]",left,1,12,25,f,y,y,2019_Jul_11_1345,2AFC_task,59.932923091979035,
stimuli/rgb_scene000056_render000001.png,stimuli/rgb_scene000056_render000003.png,0,181,181,49,"[1, 0]",left,1,12,25,f,y,y,2019_Jul_11_1345,2AFC_task,59.932923091979035,
stimuli/rgb_scene000066_render000000.png,stimuli/rgb_scene000066_render000003.png,0,182,182,65,"[1, 0]",left,1,12,25,f,y,y,2019_Jul_11_1345,2AFC_task,59.932923091979035,
stimuli/rgb_scene000056_render000003.png,stimuli/rgb_scene000056_render000005.png,0,183,183,58,"[0, 1]",right,1,12,25,f,y,y,2019_Jul_11_1345,2AFC_task,59.932923091979035,
stimuli/rgb_scene000165_render000002.png,stimuli/rgb_scene000165_render000003.png,0,184,184,158,"[1, 0]",left,1,12,25,f,y,y,2019_Jul_11_1345,2AFC_task,59.932923091979035,
stimuli/rgb_scene000042_render000002.png,stimuli/rgb_scene000042_render000003.png,0,185,185,11,"[1, 0]",left,1,12,25,f,y,y,2019_Jul_11_1345,2AFC_task,59.932923091979035,
stimuli/rgb_scene000169_render000000.png,stimuli/rgb_scene000169_render000004.png,0,186,186,171,"[1, 0]",right,0,12,25,f,y,y,2019_Jul_11_1345,2AFC_task,59.932923091979035,
stimuli/rgb_scene000169_render000005.png,stimuli/rgb_scene000169_render000006.png,0,187,187,188,"[1, 0]",left,1,12,25,f,y,y,2019_Jul_11_1345,2AFC_task,59.932923091979035,
stimuli/rgb_scene000147_render000000.png,stimuli/rgb_scene000147_render000003.png,0,188,188,86,"[1, 0]",left,1,12,25,f,y,y,2019_Jul_11_1345,2AFC_task,59.932923091979035,
stimuli/rgb_scene000160_render000004.png,stimuli/rgb_scene000160_render000005.png,0,189,189,144,"[0, 1]",right,1,12,25,f,y,y,2019_Jul_11_1345,2AFC_task,59.932923091979035,
stimuli/rgb_scene000047_render000002.png,stimuli/rgb_scene000047_render000003.png,0,190,190,32,"[0, 1]",right,1,12,25,f,y,y,2019_Jul_11_1345,2AFC_task,59.932923091979035,
stimuli/rgb_scene000165_render000003.png,stimuli/rgb_scene000165_render000006.png,0,191,191,164,"[1, 0]",left,1,12,25,f,y,y,2019_Jul_11_1345,2AFC_task,59.932923091979035,
stimuli/rgb_scene000056_render000002.png,stimuli/rgb_scene000056_render000006.png,0,192,192,56,"[1, 0]",left,1,12,25,f,y,y,2019_Jul_11_1345,2AFC_task,59.932923091979035,
stimuli/rgb_scene000165_render000003.png,stimuli/rgb_scene000165_render000005.png,0,193,193,163,"[0, 1]",right,1,12,25,f,y,y,2019_Jul_11_1345,2AFC_task,59.932923091979035,
stimuli/rgb_scene000169_render000001.png,stimuli/rgb_scene000169_render000004.png,0,194,194,176,"[0, 1]",right,1,12,25,f,y,y,2019_Jul_11_1345,2AFC_task,59.932923091979035,
stimuli/rgb_scene000160_render000000.png,stimuli/rgb_scene000160_render000005.png,0,195,195,130,"[0, 1]",right,1,12,25,f,y,y,2019_Jul_11_1345,2AFC_task,59.932923091979035,
stimuli/rgb_scene000047_render000001.png,stimuli/rgb_scene000047_render000006.png,0,196,196,31,"[0, 1]",right,1,12,25,f,y,y,2019_Jul_11_1345,2AFC_task,59.932923091979035,
stimuli/rgb_scene000042_render000000.png,stimuli/rgb_scene000042_render000006.png,0,197,197,5,"[1, 0]",left,1,12,25,f,y,y,2019_Jul_11_1345,2AFC_task,59.932923091979035,
stimuli/rgb_scene000047_render000000.png,stimuli/rgb_scene000047_render000004.png,0,198,198,24,"[1, 0]",left,1,12,25,f,y,y,2019_Jul_11_1345,2AFC_task,59.932923091979035,
stimuli/rgb_scene000169_render000003.png,stimuli/rgb_scene000169_render000005.png,0,199,199,184,"[0, 1]",right,1,12,25,f,y,y,2019_Jul_11_1345,2AFC_task,59.932923091979035,
stimuli/rgb_scene000160_render000000.png,stimuli/rgb_scene000160_render000001.png,0,200,200,126,"[1, 0]",left,1,12,25,f,y,y,2019_Jul_11_1345,2AFC_task,59.932923091979035,
stimuli/rgb_scene000056_render000004.png,stimuli/rgb_scene000056_render000005.png,0,201,201,60,"[1, 0]",left,1,12,25,f,y,y,2019_Jul_11_1345,2AFC_task,59.932923091979035,
stimuli/rgb_scene000056_render000003.png,stimuli/rgb_scene000056_render000004.png,0,202,202,57,"[1, 0]",left,1,12,25,f,y,y,2019_Jul_11_1345,2AFC_task,59.932923091979035,
stimuli/rgb_scene000147_render000001.png,stimuli/rgb_scene000147_render000006.png,0,203,203,94,"[0, 1]",right,1,12,25,f,y,y,2019_Jul_11_1345,2AFC_task,59.932923091979035,
stimuli/rgb_scene000160_render000001.png,stimuli/rgb_scene000160_render000006.png,0,204,204,136,"[0, 1]",right,1,12,25,f,y,y,2019_Jul_11_1345,2AFC_task,59.932923091979035,
stimuli/rgb_scene000196_render000000.png,stimuli/rgb_scene000196_render000006.png,0,205,205,194,"[0, 1]",left,0,12,25,f,y,y,2019_Jul_11_1345,2AFC_task,59.932923091979035,
stimuli/rgb_scene000056_render000001.png,stimuli/rgb_scene000056_render000006.png,0,206,206,52,"[0, 1]",right,1,12,25,f,y,y,2019_Jul_11_1345,2AFC_task,59.932923091979035,
stimuli/rgb_scene000066_render000000.png,stimuli/rgb_scene000066_render000004.png,0,207,207,66,"[1, 0]",left,1,12,25,f,y,y,2019_Jul_11_1345,2AFC_task,59.932923091979035,
stimuli/rgb_scene000056_render000000.png,stimuli/rgb_scene000056_render000006.png,0,208,208,47,"[0, 1]",right,1,12,25,f,y,y,2019_Jul_11_1345,2AFC_task,59.932923091979035,
stimuli/rgb_scene000042_render000001.png,stimuli/rgb_scene000042_render000002.png,0,209,209,6,"[1, 0]",left,1,12,25,f,y,y,2019_Jul_11_1345,2AFC_task,59.932923091979035,
stimuli/rgb_scene000165_render000000.png,stimuli/rgb_scene000165_render000003.png,1,0,210,149,"[1, 0]",left,1,12,25,f,y,y,2019_Jul_11_1345,2AFC_task,59.932923091979035,
stimuli/rgb_scene000047_render000000.png,stimuli/rgb_scene000047_render000005.png,1,1,211,25,"[1, 0]",right,0,12,25,f,y,y,2019_Jul_11_1345,2AFC_task,59.932923091979035,
stimuli/rgb_scene000042_render000003.png,stimuli/rgb_scene000042_render000005.png,1,2,212,16,"[0, 1]",right,1,12,25,f,y,y,2019_Jul_11_1345,2AFC_task,59.932923091979035,
stimuli/rgb_scene000165_render000002.png,stimuli/rgb_scene000165_render000003.png,1,3,213,158,"[1, 0]",left,1,12,25,f,y,y,2019_Jul_11_1345,2AFC_task,59.932923091979035,
stimuli/rgb_scene000147_render000000.png,stimuli/rgb_scene000147_render000003.png,1,4,214,86,"[1, 0]",left,1,12,25,f,y,y,2019_Jul_11_1345,2AFC_task,59.932923091979035,
stimuli/rgb_scene000066_render000001.png,stimuli/rgb_scene000066_render000004.png,1,5,215,71,"[0, 1]",right,1,12,25,f,y,y,2019_Jul_11_1345,2AFC_task,59.932923091979035,
stimuli/rgb_scene000066_render000000.png,stimuli/rgb_scene000066_render000004.png,1,6,216,66,"[1, 0]",left,1,12,25,f,y,y,2019_Jul_11_1345,2AFC_task,59.932923091979035,
stimuli/rgb_scene000047_render000002.png,stimuli/rgb_scene000047_render000006.png,1,7,217,35,"[0, 1]",left,0,12,25,f,y,y,2019_Jul_11_1345,2AFC_task,59.932923091979035,
stimuli/rgb_scene000169_render000000.png,stimuli/rgb_scene000169_render000004.png,1,8,218,171,"[0, 1]",right,1,12,25,f,y,y,2019_Jul_11_1345,2AFC_task,59.932923091979035,
stimuli/rgb_scene000165_render000002.png,stimuli/rgb_scene000165_render000005.png,1,9,219,160,"[1, 0]",left,1,12,25,f,y,y,2019_Jul_11_1345,2AFC_task,59.932923091979035,
stimuli/rgb_scene000042_render000000.png,stimuli/rgb_scene000042_render000001.png,1,10,220,0,"[0, 1]",right,1,12,25,f,y,y,2019_Jul_11_1345,2AFC_task,59.932923091979035,
stimuli/rgb_scene000066_render000003.png,stimuli/rgb_scene000066_render000006.png,1,11,221,80,"[1, 0]",left,1,12,25,f,y,y,2019_Jul_11_1345,2AFC_task,59.932923091979035,
stimuli/rgb_scene000147_render000003.png,stimuli/rgb_scene000147_render000004.png,1,12,222,99,"[1, 0]",left,1,12,25,f,y,y,2019_Jul_11_1345,2AFC_task,59.932923091979035,
stimuli/rgb_scene000165_render000000.png,stimuli/rgb_scene000165_render000001.png,1,13,223,147,"[0, 1]",right,1,12,25,f,y,y,2019_Jul_11_1345,2AFC_task,59.932923091979035,
stimuli/rgb_scene000165_render000005.png,stimuli/rgb_scene000165_render000006.png,1,14,224,167,"[1, 0]",left,1,12,25,f,y,y,2019_Jul_11_1345,2AFC_task,59.932923091979035,
stimuli/rgb_scene000047_render000000.png,stimuli/rgb_scene000047_render000001.png,1,15,225,21,"[1, 0]",left,1,12,25,f,y,y,2019_Jul_11_1345,2AFC_task,59.932923091979035,
stimuli/rgb_scene000147_render000003.png,stimuli/rgb_scene000147_render000005.png,1,16,226,100,"[1, 0]",left,1,12,25,f,y,y,2019_Jul_11_1345,2AFC_task,59.932923091979035,
stimuli/rgb_scene000147_render000001.png,stimuli/rgb_scene000147_render000002.png,1,17,227,90,"[0, 1]",right,1,12,25,f,y,y,2019_Jul_11_1345,2AFC_task,59.932923091979035,
stimuli/rgb_scene000042_render000002.png,stimuli/rgb_scene000042_render000004.png,1,18,228,12,"[0, 1]",right,1,12,25,f,y,y,2019_Jul_11_1345,2AFC_task,59.932923091979035,
stimuli/rgb_scene000056_render000002.png,stimuli/rgb_scene000056_render000004.png,1,19,229,54,"[1, 0]",left,1,12,25,f,y,y,2019_Jul_11_1345,2AFC_task,59.932923091979035,
stimuli/rgb_scene000150_render000000.png,stimuli/rgb_scene000150_render000006.png,1,20,230,110,"[0, 1]",right,1,12,25,f,y,y,2019_Jul_11_1345,2AFC_task,59.932923091979035,
stimuli/rgb_scene000196_render000000.png,stimuli/rgb_scene000196_render000002.png,1,21,231,190,"[0, 1]",right,1,12,25,f,y,y,2019_Jul_11_1345,2AFC_task,59.932923091979035,
stimuli/rgb_scene000047_render000002.png,stimuli/rgb_scene000047_render000003.png,1,22,232,32,"[1, 0]",right,0,12,25,f,y,y,2019_Jul_11_1345,2AFC_task,59.932923091979035,
stimuli/rgb_scene000056_render000001.png,stimuli/rgb_scene000056_render000003.png,1,23,233,49,"[1, 0]",left,1,12,25,f,y,y,2019_Jul_11_1345,2AFC_task,59.932923091979035,
stimuli/rgb_scene000169_render000000.png,stimuli/rgb_scene000169_render000003.png,1,24,234,170,"[0, 1]",right,1,12,25,f,y,y,2019_Jul_11_1345,2AFC_task,59.932923091979035,
stimuli/rgb_scene000056_render000004.png,stimuli/rgb_scene000056_render000005.png,1,25,235,60,"[1, 0]",left,1,12,25,f,y,y,2019_Jul_11_1345,2AFC_task,59.932923091979035,
stimuli/rgb_scene000165_render000000.png,stimuli/rgb_scene000165_render000002.png,1,26,236,148,"[1, 0]",left,1,12,25,f,y,y,2019_Jul_11_1345,2AFC_task,59.932923091979035,
stimuli/rgb_scene000066_render000000.png,stimuli/rgb_scene000066_render000006.png,1,27,237,68,"[0, 1]",right,1,12,25,f,y,y,2019_Jul_11_1345,2AFC_task,59.932923091979035,
stimuli/rgb_scene000196_render000002.png,stimuli/rgb_scene000196_render000005.png,1,28,238,202,"[0, 1]",left,0,12,25,f,y,y,2019_Jul_11_1345,2AFC_task,59.932923091979035,
stimuli/rgb_scene000042_render000000.png,stimuli/rgb_scene000042_render000006.png,1,29,239,5,"[0, 1]",right,1,12,25,f,y,y,2019_Jul_11_1345,2AFC_task,59.932923091979035,
stimuli/rgb_scene000056_render000001.png,stimuli/rgb_scene000056_render000002.png,1,30,240,48,"[0, 1]",left,0,12,25,f,y,y,2019_Jul_11_1345,2AFC_task,59.932923091979035,
stimuli/rgb_scene000165_render000003.png,stimuli/rgb_scene000165_render000006.png,1,31,241,164,"[0, 1]",right,1,12,25,f,y,y,2019_Jul_11_1345,2AFC_task,59.932923091979035,
stimuli/rgb_scene000160_render000002.png,stimuli/rgb_scene000160_render000004.png,1,32,242,138,"[1, 0]",left,1,12,25,f,y,y,2019_Jul_11_1345,2AFC_task,59.932923091979035,
stimuli/rgb_scene000047_render000000.png,stimuli/rgb_scene000047_render000002.png,1,33,243,22,"[0, 1]",right,1,12,25,f,y,y,2019_Jul_11_1345,2AFC_task,59.932923091979035,
stimuli/rgb_scene000147_render000001.png,stimuli/rgb_scene000147_render000003.png,1,34,244,91,"[1, 0]",left,1,12,25,f,y,y,2019_Jul_11_1345,2AFC_task,59.932923091979035,
stimuli/rgb_scene000196_render000001.png,stimuli/rgb_scene000196_render000002.png,1,35,245,195,"[1, 0]",left,1,12,25,f,y,y,2019_Jul_11_1345,2AFC_task,59.932923091979035,
stimuli/rgb_scene000056_render000002.png,stimuli/rgb_scene000056_render000003.png,1,36,246,53,"[0, 1]",right,1,12,25,f,y,y,2019_Jul_11_1345,2AFC_task,59.932923091979035,
stimuli/rgb_scene000165_render000002.png,stimuli/rgb_scene000165_render000006.png,1,37,247,161,"[0, 1]",right,1,12,25,f,y,y,2019_Jul_11_1345,2AFC_task,59.932923091979035,
stimuli/rgb_scene000150_render000005.png,stimuli/rgb_scene000150_render000006.png,1,38,248,125,"[0, 1]",left,0,12,25,f,y,y,2019_Jul_11_1345,2AFC_task,59.932923091979035,
stimuli/rgb_scene000160_render000005.png,stimuli/rgb_scene000160_render000006.png,1,39,249,146,"[0, 1]",right,1,12,25,f,y,y,2019_Jul_11_1345,2AFC_task,59.932923091979035,
stimuli/rgb_scene000047_render000004.png,stimuli/rgb_scene000047_render000006.png,1,40,250,40,"[0, 1]",left,0,12,25,f,y,y,2019_Jul_11_1345,2AFC_task,59.932923091979035,
stimuli/rgb_scene000056_render000000.png,stimuli/rgb_scene000056_render000001.png,1,41,251,42,"[1, 0]",left,1,12,25,f,y,y,2019_Jul_11_1345,2AFC_task,59.932923091979035,
stimuli/rgb_scene000165_render000001.png,stimuli/rgb_scene000165_render000006.png,1,42,252,157,"[0, 1]",right,1,12,25,f,y,y,2019_Jul_11_1345,2AFC_task,59.932923091979035,
stimuli/rgb_scene000165_render000000.png,stimuli/rgb_scene000165_render000005.png,1,43,253,151,"[1, 0]",left,1,12,25,f,y,y,2019_Jul_11_1345,2AFC_task,59.932923091979035,
stimuli/rgb_scene000066_render000000.png,stimuli/rgb_scene000066_render000003.png,1,44,254,65,"[1, 0]",left,1,12,25,f,y,y,2019_Jul_11_1345,2AFC_task,59.932923091979035,
stimuli/rgb_scene000196_render000001.png,stimuli/rgb_scene000196_render000005.png,1,45,255,198,"[1, 0]",right,0,12,25,f,y,y,2019_Jul_11_1345,2AFC_task,59.932923091979035,
stimuli/rgb_scene000056_render000001.png,stimuli/rgb_scene000056_render000005.png,1,46,256,51,"[1, 0]",left,1,12,25,f,y,y,2019_Jul_11_1345,2AFC_task,59.932923091979035,
stimuli/rgb_scene000047_render000004.png,stimuli/rgb_scene000047_render000005.png,1,47,257,39,"[0, 1]",left,0,12,25,f,y,y,2019_Jul_11_1345,2AFC_task,59.932923091979035,
stimuli/rgb_scene000196_render000000.png,stimuli/rgb_scene000196_render000001.png,1,48,258,189,"[1, 0]",right,0,12,25,f,y,y,2019_Jul_11_1345,2AFC_task,59.932923091979035,
stimuli/rgb_scene000169_render000005.png,stimuli/rgb_scene000169_render000006.png,1,49,259,188,"[0, 1]",right,1,12,25,f,y,y,2019_Jul_11_1345,2AFC_task,59.932923091979035,
stimuli/rgb_scene000196_render000002.png,stimuli/rgb_scene000196_render000006.png,1,50,260,203,"[0, 1]",left,0,12,25,f,y,y,2019_Jul_11_1345,2AFC_task,59.932923091979035,
stimuli/rgb_scene000150_render000001.png,stimuli/rgb_scene000150_render000005.png,1,51,261,114,"[0, 1]",right,1,12,25,f,y,y,2019_Jul_11_1345,2AFC_task,59.932923091979035,
stimuli/rgb_scene000066_render000000.png,stimuli/rgb_scene000066_render000001.png,1,52,262,63,"[1, 0]",left,1,12,25,f,y,y,2019_Jul_11_1345,2AFC_task,59.932923091979035,
stimuli/rgb_scene000047_render000002.png,stimuli/rgb_scene000047_render000005.png,1,53,263,34,"[1, 0]",right,0,12,25,f,y,y,2019_Jul_11_1345,2AFC_task,59.932923091979035,
stimuli/rgb_scene000165_render000003.png,stimuli/rgb_scene000165_render000005.png,1,54,264,163,"[0, 1]",right,1,12,25,f,y,y,2019_Jul_11_1345,2AFC_task,59.932923091979035,
stimuli/rgb_scene000066_render000002.png,stimuli/rgb_scene000066_render000006.png,1,55,265,77,"[1, 0]",left,1,12,25,f,y,y,2019_Jul_11_1345,2AFC_task,59.932923091979035,
stimuli/rgb_scene000169_render000000.png,stimuli/rgb_scene000169_render000001.png,1,56,266,168,"[1, 0]",right,0,12,25,f,y,y,2019_Jul_11_1345,2AFC_task,59.932923091979035,
stimuli/rgb_scene000056_render000001.png,stimuli/rgb_scene000056_render000006.png,1,57,267,52,"[0, 1]",right,1,12,25,f,y,y,2019_Jul_11_1345,2AFC_task,59.932923091979035,
stimuli/rgb_scene000160_render000003.png,stimuli/rgb_scene000160_render000004.png,1,58,268,141,"[0, 1]",left,0,12,25,f,y,y,2019_Jul_11_1345,2AFC_task,59.932923091979035,
stimuli/rgb_scene000150_render000001.png,stimuli/rgb_scene000150_render000006.png,1,59,269,115,"[1, 0]",left,1,12,25,f,y,y,2019_Jul_11_1345,2AFC_task,59.932923091979035,
stimuli/rgb_scene000169_render000003.png,stimuli/rgb_scene000169_render000006.png,1,60,270,185,"[0, 1]",right,1,12,25,f,y,y,2019_Jul_11_1345,2AFC_task,59.932923091979035,
stimuli/rgb_scene000147_render000002.png,stimuli/rgb_scene000147_render000004.png,1,61,271,96,"[0, 1]",right,1,12,25,f,y,y,2019_Jul_11_1345,2AFC_task,59.932923091979035,
stimuli/rgb_scene000042_render000004.png,stimuli/rgb_scene000042_render000006.png,1,62,272,19,"[1, 0]",left,1,12,25,f,y,y,2019_Jul_11_1345,2AFC_task,59.932923091979035,
stimuli/rgb_scene000196_render000004.png,stimuli/rgb_scene000196_render000006.png,1,63,273,208,"[0, 1]",left,0,12,25,f,y,y,2019_Jul_11_1345,2AFC_task,59.932923091979035,
stimuli/rgb_scene000165_render000001.png,stimuli/rgb_scene000165_render000003.png,1,64,274,154,"[1, 0]",left,1,12,25,f,y,y,2019_Jul_11_1345,2AFC_task,59.932923091979035,
stimuli/rgb_scene000047_render000003.png,stimuli/rgb_scene000047_render000005.png,1,65,275,37,"[1, 0]",right,0,12,25,f,y,y,2019_Jul_11_1345,2AFC_task,59.932923091979035,
stimuli/rgb_scene000056_render000000.png,stimuli/rgb_scene000056_render000006.png,1,66,276,47,"[1, 0]",left,1,12,25,f,y,y,2019_Jul_11_1345,2AFC_task,59.932923091979035,
stimuli/rgb_scene000047_render000001.png,stimuli/rgb_scene000047_render000004.png,1,67,277,29,"[0, 1]",right,1,12,25,f,y,y,2019_Jul_11_1345,2AFC_task,59.932923091979035,
stimuli/rgb_scene000169_render000000.png,stimuli/rgb_scene000169_render000002.png,1,68,278,169,"[1, 0]",right,0,12,25,f,y,y,2019_Jul_11_1345,2AFC_task,59.932923091979035,
stimuli/rgb_scene000196_render000005.png,stimuli/rgb_scene000196_render000006.png,1,69,279,209,"[0, 1]",left,0,12,25,f,y,y,2019_Jul_11_1345,2AFC_task,59.932923091979035,
stimuli/rgb_scene000150_render000000.png,stimuli/rgb_scene000150_render000001.png,1,70,280,105,"[0, 1]",right,1,12,25,f,y,y,2019_Jul_11_1345,2AFC_task,59.932923091979035,
stimuli/rgb_scene000147_render000000.png,stimuli/rgb_scene000147_render000004.png,1,71,281,87,"[1, 0]",left,1,12,25,f,y,y,2019_Jul_11_1345,2AFC_task,59.932923091979035,
stimuli/rgb_scene000196_render000002.png,stimuli/rgb_scene000196_render000004.png,1,72,282,201,"[1, 0]",right,0,12,25,f,y,y,2019_Jul_11_1345,2AFC_task,59.932923091979035,
stimuli/rgb_scene000196_render000000.png,stimuli/rgb_scene000196_render000003.png,1,73,283,191,"[0, 1]",left,0,12,25,f,y,y,2019_Jul_11_1345,2AFC_task,59.932923091979035,
stimuli/rgb_scene000042_render000002.png,stimuli/rgb_scene000042_render000005.png,1,74,284,13,"[0, 1]",right,1,12,25,f,y,y,2019_Jul_11_1345,2AFC_task,59.932923091979035,
stimuli/rgb_scene000165_render000002.png,stimuli/rgb_scene000165_render000004.png,1,75,285,159,"[0, 1]",right,1,12,25,f,y,y,2019_Jul_11_1345,2AFC_task,59.932923091979035,
stimuli/rgb_scene000042_render000001.png,stimuli/rgb_scene000042_render000002.png,1,76,286,6,"[1, 0]",left,1,12,25,f,y,y,2019_Jul_11_1345,2AFC_task,59.932923091979035,
stimuli/rgb_scene000160_render000000.png,stimuli/rgb_scene000160_render000003.png,1,77,287,128,"[1, 0]",left,1,12,25,f,y,y,2019_Jul_11_1345,2AFC_task,59.932923091979035,
stimuli/rgb_scene000042_render000003.png,stimuli/rgb_scene000042_render000006.png,1,78,288,17,"[1, 0]",left,1,12,25,f,y,y,2019_Jul_11_1345,2AFC_task,59.932923091979035,
stimuli/rgb_scene000066_render000004.png,stimuli/rgb_scene000066_render000005.png,1,79,289,81,"[1, 0]",left,1,12,25,f,y,y,2019_Jul_11_1345,2AFC_task,59.932923091979035,
stimuli/rgb_scene000169_render000004.png,stimuli/rgb_scene000169_render000005.png,1,80,290,186,"[0, 1]",right,1,12,25,f,y,y,2019_Jul_11_1345,2AFC_task,59.932923091979035,
stimuli/rgb_scene000042_render000004.png,stimuli/rgb_scene000042_render000005.png,1,81,291,18,"[1, 0]",left,1,12,25,f,y,y,2019_Jul_11_1345,2AFC_task,59.932923091979035,
stimuli/rgb_scene000150_render000003.png,stimuli/rgb_scene000150_render000005.png,1,82,292,121,"[0, 1]",right,1,12,25,f,y,y,2019_Jul_11_1345,2AFC_task,59.932923091979035,
stimuli/rgb_scene000066_render000001.png,stimuli/rgb_scene000066_render000003.png,1,83,293,70,"[1, 0]",left,1,12,25,f,y,y,2019_Jul_11_1345,2AFC_task,59.932923091979035,
stimuli/rgb_scene000066_render000001.png,stimuli/rgb_scene000066_render000006.png,1,84,294,73,"[0, 1]",right,1,12,25,f,y,y,2019_Jul_11_1345,2AFC_task,59.932923091979035,
stimuli/rgb_scene000160_render000003.png,stimuli/rgb_scene000160_render000005.png,1,85,295,142,"[1, 0]",left,1,12,25,f,y,y,2019_Jul_11_1345,2AFC_task,59.932923091979035,
stimuli/rgb_scene000150_render000004.png,stimuli/rgb_scene000150_render000006.png,1,86,296,124,"[0, 1]",right,1,12,25,f,y,y,2019_Jul_11_1345,2AFC_task,59.932923091979035,
stimuli/rgb_scene000042_render000000.png,stimuli/rgb_scene000042_render000003.png,1,87,297,2,"[1, 0]",left,1,12,25,f,y,y,2019_Jul_11_1345,2AFC_task,59.932923091979035,
stimuli/rgb_scene000047_render000000.png,stimuli/rgb_scene000047_render000006.png,1,88,298,26,"[1, 0]",left,1,12,25,f,y,y,2019_Jul_11_1345,2AFC_task,59.932923091979035,
stimuli/rgb_scene000056_render000002.png,stimuli/rgb_scene000056_render000005.png,1,89,299,55,"[1, 0]",left,1,12,25,f,y,y,2019_Jul_11_1345,2AFC_task,59.932923091979035,
stimuli/rgb_scene000056_render000000.png,stimuli/rgb_scene000056_render000002.png,1,90,300,43,"[0, 1]",right,1,12,25,f,y,y,2019_Jul_11_1345,2AFC_task,59.932923091979035,
stimuli/rgb_scene000160_render000002.png,stimuli/rgb_scene000160_render000005.png,1,91,301,139,"[0, 1]",right,1,12,25,f,y,y,2019_Jul_11_1345,2AFC_task,59.932923091979035,
stimuli/rgb_scene000150_render000002.png,stimuli/rgb_scene000150_render000006.png,1,92,302,119,"[1, 0]",left,1,12,25,f,y,y,2019_Jul_11_1345,2AFC_task,59.932923091979035,
stimuli/rgb_scene000160_render000004.png,stimuli/rgb_scene000160_render000006.png,1,93,303,145,"[1, 0]",left,1,12,25,f,y,y,2019_Jul_11_1345,2AFC_task,59.932923091979035,
stimuli/rgb_scene000066_render000000.png,stimuli/rgb_scene000066_render000002.png,1,94,304,64,"[0, 1]",right,1,12,25,f,y,y,2019_Jul_11_1345,2AFC_task,59.932923091979035,
stimuli/rgb_scene000160_render000001.png,stimuli/rgb_scene000160_render000002.png,1,95,305,132,"[1, 0]",left,1,12,25,f,y,y,2019_Jul_11_1345,2AFC_task,59.932923091979035,
stimuli/rgb_scene000165_render000001.png,stimuli/rgb_scene000165_render000002.png,1,96,306,153,"[1, 0]",left,1,12,25,f,y,y,2019_Jul_11_1345,2AFC_task,59.932923091979035,
stimuli/rgb_scene000150_render000000.png,stimuli/rgb_scene000150_render000002.png,1,97,307,106,"[0, 1]",right,1,12,25,f,y,y,2019_Jul_11_1345,2AFC_task,59.932923091979035,
stimuli/rgb_scene000066_render000004.png,stimuli/rgb_scene000066_render000006.png,1,98,308,82,"[1, 0]",left,1,12,25,f,y,y,2019_Jul_11_1345,2AFC_task,59.932923091979035,
stimuli/rgb_scene000047_render000001.png,stimuli/rgb_scene000047_render000006.png,1,99,309,31,"[0, 1]",right,1,12,25,f,y,y,2019_Jul_11_1345,2AFC_task,59.932923091979035,
stimuli/rgb_scene000150_render000004.png,stimuli/rgb_scene000150_render000005.png,1,100,310,123,"[0, 1]",right,1,12,25,f,y,y,2019_Jul_11_1345,2AFC_task,59.932923091979035,
stimuli/rgb_scene000169_render000002.png,stimuli/rgb_scene000169_render000003.png,1,101,311,179,"[0, 1]",right,1,12,25,f,y,y,2019_Jul_11_1345,2AFC_task,59.932923091979035,
stimuli/rgb_scene000147_render000002.png,stimuli/rgb_scene000147_render000003.png,1,102,312,95,"[1, 0]",left,1,12,25,f,y,y,2019_Jul_11_1345,2AFC_task,59.932923091979035,
stimuli/rgb_scene000169_render000001.png,stimuli/rgb_scene000169_render000006.png,1,103,313,178,"[0, 1]",left,0,12,25,f,y,y,2019_Jul_11_1345,2AFC_task,59.932923091979035,
stimuli/rgb_scene000147_render000005.png,stimuli/rgb_scene000147_render000006.png,1,104,314,104,"[0, 1]",right,1,12,25,f,y,y,2019_Jul_11_1345,2AFC_task,59.932923091979035,
stimuli/rgb_scene000165_render000000.png,stimuli/rgb_scene000165_render000004.png,1,105,315,150,"[1, 0]",left,1,12,25,f,y,y,2019_Jul_11_1345,2AFC_task,59.932923091979035,
stimuli/rgb_scene000056_render000005.png,stimuli/rgb_scene000056_render000006.png,1,106,316,62,"[1, 0]",left,1,12,25,f,y,y,2019_Jul_11_1345,2AFC_task,59.932923091979035,
stimuli/rgb_scene000160_render000000.png,stimuli/rgb_scene000160_render000006.png,1,107,317,131,"[1, 0]",left,1,12,25,f,y,y,2019_Jul_11_1345,2AFC_task,59.932923091979035,
stimuli/rgb_scene000047_render000002.png,stimuli/rgb_scene000047_render000004.png,1,108,318,33,"[1, 0]",left,1,12,25,f,y,y,2019_Jul_11_1345,2AFC_task,59.932923091979035,
stimuli/rgb_scene000196_render000001.png,stimuli/rgb_scene000196_render000004.png,1,109,319,197,"[1, 0]",right,0,12,25,f,y,y,2019_Jul_11_1345,2AFC_task,59.932923091979035,
stimuli/rgb_scene000160_render000000.png,stimuli/rgb_scene000160_render000002.png,1,110,320,127,"[1, 0]",left,1,12,25,f,y,y,2019_Jul_11_1345,2AFC_task,59.932923091979035,
stimuli/rgb_scene000160_render000004.png,stimuli/rgb_scene000160_render000005.png,1,111,321,144,"[1, 0]",left,1,12,25,f,y,y,2019_Jul_11_1345,2AFC_task,59.932923091979035,
stimuli/rgb_scene000169_render000002.png,stimuli/rgb_scene000169_render000005.png,1,112,322,181,"[1, 0]",left,1,12,25,f,y,y,2019_Jul_11_1345,2AFC_task,59.932923091979035,
stimuli/rgb_scene000042_render000003.png,stimuli/rgb_scene000042_render000004.png,1,113,323,15,"[0, 1]",right,1,12,25,f,y,y,2019_Jul_11_1345,2AFC_task,59.932923091979035,
stimuli/rgb_scene000066_render000003.png,stimuli/rgb_scene000066_render000004.png,1,114,324,78,"[0, 1]",right,1,12,25,f,y,y,2019_Jul_11_1345,2AFC_task,59.932923091979035,
stimuli/rgb_scene000165_render000000.png,stimuli/rgb_scene000165_render000006.png,1,115,325,152,"[0, 1]",right,1,12,25,f,y,y,2019_Jul_11_1345,2AFC_task,59.932923091979035,
stimuli/rgb_scene000047_render000000.png,stimuli/rgb_scene000047_render000004.png,1,116,326,24,"[0, 1]",right,1,12,25,f,y,y,2019_Jul_11_1345,2AFC_task,59.932923091979035,
stimuli/rgb_scene000147_render000003.png,stimuli/rgb_scene000147_render000006.png,1,117,327,101,"[1, 0]",left,1,12,25,f,y,y,2019_Jul_11_1345,2AFC_task,59.932923091979035,
stimuli/rgb_scene000047_render000000.png,stimuli/rgb_scene000047_render000003.png,1,118,328,23,"[1, 0]",left,1,12,25,f,y,y,2019_Jul_11_1345,2AFC_task,59.932923091979035,
stimuli/rgb_scene000056_render000003.png,stimuli/rgb_scene000056_render000004.png,1,119,329,57,"[0, 1]",right,1,12,25,f,y,y,2019_Jul_11_1345,2AFC_task,59.932923091979035,
stimuli/rgb_scene000147_render000004.png,stimuli/rgb_scene000147_render000006.png,1,120,330,103,"[0, 1]",right,1,12,25,f,y,y,2019_Jul_11_1345,2AFC_task,59.932923091979035,
stimuli/rgb_scene000147_render000002.png,stimuli/rgb_scene000147_render000006.png,1,121,331,98,"[0, 1]",right,1,12,25,f,y,y,2019_Jul_11_1345,2AFC_task,59.932923091979035,
stimuli/rgb_scene000196_render000003.png,stimuli/rgb_scene000196_render000005.png,1,122,332,205,"[1, 0]",right,0,12,25,f,y,y,2019_Jul_11_1345,2AFC_task,59.932923091979035,
stimuli/rgb_scene000150_render000002.png,stimuli/rgb_scene000150_render000003.png,1,123,333,116,"[1, 0]",left,1,12,25,f,y,y,2019_Jul_11_1345,2AFC_task,59.932923091979035,
stimuli/rgb_scene000042_render000005.png,stimuli/rgb_scene000042_render000006.png,1,124,334,20,"[0, 1]",right,1,12,25,f,y,y,2019_Jul_11_1345,2AFC_task,59.932923091979035,
stimuli/rgb_scene000066_render000003.png,stimuli/rgb_scene000066_render000005.png,1,125,335,79,"[0, 1]",right,1,12,25,f,y,y,2019_Jul_11_1345,2AFC_task,59.932923091979035,
stimuli/rgb_scene000042_render000000.png,stimuli/rgb_scene000042_render000005.png,1,126,336,4,"[1, 0]",left,1,12,25,f,y,y,2019_Jul_11_1345,2AFC_task,59.932923091979035,
stimuli/rgb_scene000042_render000002.png,stimuli/rgb_scene000042_render000003.png,1,127,337,11,"[0, 1]",right,1,12,25,f,y,y,2019_Jul_11_1345,2AFC_task,59.932923091979035,
stimuli/rgb_scene000160_render000001.png,stimuli/rgb_scene000160_render000003.png,1,128,338,133,"[0, 1]",right,1,12,25,f,y,y,2019_Jul_11_1345,2AFC_task,59.932923091979035,
stimuli/rgb_scene000196_render000000.png,stimuli/rgb_scene000196_render000005.png,1,129,339,193,"[0, 1]",left,0,12,25,f,y,y,2019_Jul_11_1345,2AFC_task,59.932923091979035,
stimuli/rgb_scene000150_render000001.png,stimuli/rgb_scene000150_render000002.png,1,130,340,111,"[0, 1]",right,1,12,25,f,y,y,2019_Jul_11_1345,2AFC_task,59.932923091979035,
stimuli/rgb_scene000150_render000000.png,stimuli/rgb_scene000150_render000005.png,1,131,341,109,"[1, 0]",left,1,12,25,f,y,y,2019_Jul_11_1345,2AFC_task,59.932923091979035,
stimuli/rgb_scene000047_render000001.png,stimuli/rgb_scene000047_render000005.png,1,132,342,30,"[1, 0]",right,0,12,25,f,y,y,2019_Jul_11_1345,2AFC_task,59.932923091979035,
stimuli/rgb_scene000056_render000000.png,stimuli/rgb_scene000056_render000003.png,1,133,343,44,"[0, 1]",left,0,12,25,f,y,y,2019_Jul_11_1345,2AFC_task,59.932923091979035,
stimuli/rgb_scene000150_render000001.png,stimuli/rgb_scene000150_render000004.png,1,134,344,113,"[1, 0]",left,1,12,25,f,y,y,2019_Jul_11_1345,2AFC_task,59.932923091979035,
stimuli/rgb_scene000196_render000000.png,stimuli/rgb_scene000196_render000006.png,1,135,345,194,"[0, 1]",left,0,12,25,f,y,y,2019_Jul_11_1345,2AFC_task,59.932923091979035,
stimuli/rgb_scene000169_render000001.png,stimuli/rgb_scene000169_render000003.png,1,136,346,175,"[1, 0]",right,0,12,25,f,y,y,2019_Jul_11_1345,2AFC_task,59.932923091979035,
stimuli/rgb_scene000169_render000003.png,stimuli/rgb_scene000169_render000005.png,1,137,347,184,"[1, 0]",right,0,12,25,f,y,y,2019_Jul_11_1345,2AFC_task,59.932923091979035,
stimuli/rgb_scene000042_render000001.png,stimuli/rgb_scene000042_render000005.png,1,138,348,9,"[1, 0]",left,1,12,25,f,y,y,2019_Jul_11_1345,2AFC_task,59.932923091979035,
stimuli/rgb_scene000150_render000002.png,stimuli/rgb_scene000150_render000004.png,1,139,349,117,"[0, 1]",right,1,12,25,f,y,y,2019_Jul_11_1345,2AFC_task,59.932923091979035,
stimuli/rgb_scene000066_render000001.png,stimuli/rgb_scene000066_render000005.png,1,140,350,72,"[1, 0]",left,1,12,25,f,y,y,2019_Jul_11_1345,2AFC_task,59.932923091979035,
stimuli/rgb_scene000160_render000000.png,stimuli/rgb_scene000160_render000005.png,1,141,351,130,"[1, 0]",left,1,12,25,f,y,y,2019_Jul_11_1345,2AFC_task,59.932923091979035,
stimuli/rgb_scene000196_render000001.png,stimuli/rgb_scene000196_render000003.png,1,142,352,196,"[0, 1]",left,0,12,25,f,y,y,2019_Jul_11_1345,2AFC_task,59.932923091979035,
stimuli/rgb_scene000147_render000000.png,stimuli/rgb_scene000147_render000006.png,1,143,353,89,"[0, 1]",right,1,12,25,f,y,y,2019_Jul_11_1345,2AFC_task,59.932923091979035,
stimuli/rgb_scene000056_render000000.png,stimuli/rgb_scene000056_render000004.png,1,144,354,45,"[0, 1]",right,1,12,25,f,y,y,2019_Jul_11_1345,2AFC_task,59.932923091979035,
stimuli/rgb_scene000160_render000001.png,stimuli/rgb_scene000160_render000006.png,1,145,355,136,"[0, 1]",right,1,12,25,f,y,y,2019_Jul_11_1345,2AFC_task,59.932923091979035,
stimuli/rgb_scene000147_render000002.png,stimuli/rgb_scene000147_render000005.png,1,146,356,97,"[0, 1]",right,1,12,25,f,y,y,2019_Jul_11_1345,2AFC_task,59.932923091979035,
stimuli/rgb_scene000160_render000001.png,stimuli/rgb_scene000160_render000005.png,1,147,357,135,"[1, 0]",left,1,12,25,f,y,y,2019_Jul_11_1345,2AFC_task,59.932923091979035,
stimuli/rgb_scene000169_render000000.png,stimuli/rgb_scene000169_render000005.png,1,148,358,172,"[0, 1]",left,0,12,25,f,y,y,2019_Jul_11_1345,2AFC_task,59.932923091979035,
stimuli/rgb_scene000196_render000001.png,stimuli/rgb_scene000196_render000006.png,1,149,359,199,"[1, 0]",right,0,12,25,f,y,y,2019_Jul_11_1345,2AFC_task,59.932923091979035,
stimuli/rgb_scene000150_render000003.png,stimuli/rgb_scene000150_render000006.png,1,150,360,122,"[0, 1]",right,1,12,25,f,y,y,2019_Jul_11_1345,2AFC_task,59.932923091979035,
stimuli/rgb_scene000196_render000004.png,stimuli/rgb_scene000196_render000005.png,1,151,361,207,"[0, 1]",left,0,12,25,f,y,y,2019_Jul_11_1345,2AFC_task,59.932923091979035,
stimuli/rgb_scene000169_render000004.png,stimuli/rgb_scene000169_render000006.png,1,152,362,187,"[1, 0]",left,1,12,25,f,y,y,2019_Jul_11_1345,2AFC_task,59.932923091979035,
stimuli/rgb_scene000160_render000002.png,stimuli/rgb_scene000160_render000003.png,1,153,363,137,"[0, 1]",right,1,12,25,f,y,y,2019_Jul_11_1345,2AFC_task,59.932923091979035,
stimuli/rgb_scene000160_render000000.png,stimuli/rgb_scene000160_render000004.png,1,154,364,129,"[0, 1]",right,1,12,25,f,y,y,2019_Jul_11_1345,2AFC_task,59.932923091979035,
stimuli/rgb_scene000169_render000003.png,stimuli/rgb_scene000169_render000004.png,1,155,365,183,"[0, 1]",left,0,12,25,f,y,y,2019_Jul_11_1345,2AFC_task,59.932923091979035,
stimuli/rgb_scene000169_render000001.png,stimuli/rgb_scene000169_render000005.png,1,156,366,177,"[0, 1]",left,0,12,25,f,y,y,2019_Jul_11_1345,2AFC_task,59.932923091979035,
stimuli/rgb_scene000147_render000001.png,stimuli/rgb_scene000147_render000004.png,1,157,367,92,"[0, 1]",right,1,12,25,f,y,y,2019_Jul_11_1345,2AFC_task,59.932923091979035,
stimuli/rgb_scene000066_render000001.png,stimuli/rgb_scene000066_render000002.png,1,158,368,69,"[1, 0]",left,1,12,25,f,y,y,2019_Jul_11_1345,2AFC_task,59.932923091979035,
stimuli/rgb_scene000150_render000000.png,stimuli/rgb_scene000150_render000004.png,1,159,369,108,"[1, 0]",left,1,12,25,f,y,y,2019_Jul_11_1345,2AFC_task,59.932923091979035,
stimuli/rgb_scene000042_render000000.png,stimuli/rgb_scene000042_render000004.png,1,160,370,3,"[0, 1]",right,1,12,25,f,y,y,2019_Jul_11_1345,2AFC_task,59.932923091979035,
stimuli/rgb_scene000047_render000001.png,stimuli/rgb_scene000047_render000003.png,1,161,371,28,"[1, 0]",left,1,12,25,f,y,y,2019_Jul_11_1345,2AFC_task,59.932923091979035,
stimuli/rgb_scene000165_render000001.png,stimuli/rgb_scene000165_render000004.png,1,162,372,155,"[0, 1]",right,1,12,25,f,y,y,2019_Jul_11_1345,2AFC_task,59.932923091979035,
stimuli/rgb_scene000147_render000000.png,stimuli/rgb_scene000147_render000005.png,1,163,373,88,"[1, 0]",left,1,12,25,f,y,y,2019_Jul_11_1345,2AFC_task,59.932923091979035,
stimuli/rgb_scene000196_render000003.png,stimuli/rgb_scene000196_render000004.png,1,164,374,204,"[0, 1]",left,0,12,25,f,y,y,2019_Jul_11_1345,2AFC_task,59.932923091979035,
stimuli/rgb_scene000042_render000001.png,stimuli/rgb_scene000042_render000003.png,1,165,375,7,"[0, 1]",right,1,12,25,f,y,y,2019_Jul_11_1345,2AFC_task,59.932923091979035,
stimuli/rgb_scene000042_render000000.png,stimuli/rgb_scene000042_render000002.png,1,166,376,1,"[1, 0]",left,1,12,25,f,y,y,2019_Jul_11_1345,2AFC_task,59.932923091979035,
stimuli/rgb_scene000169_render000002.png,stimuli/rgb_scene000169_render000004.png,1,167,377,180,"[1, 0]",right,0,12,25,f,y,y,2019_Jul_11_1345,2AFC_task,59.932923091979035,
stimuli/rgb_scene000150_render000003.png,stimuli/rgb_scene000150_render000004.png,1,168,378,120,"[0, 1]",right,1,12,25,f,y,y,2019_Jul_11_1345,2AFC_task,59.932923091979035,
stimuli/rgb_scene000056_render000003.png,stimuli/rgb_scene000056_render000006.png,1,169,379,59,"[1, 0]",left,1,12,25,f,y,y,2019_Jul_11_1345,2AFC_task,59.932923091979035,
stimuli/rgb_scene000056_render000000.png,stimuli/rgb_scene000056_render000005.png,1,170,380,46,"[0, 1]",right,1,12,25,f,y,y,2019_Jul_11_1345,2AFC_task,59.932923091979035,
stimuli/rgb_scene000147_render000001.png,stimuli/rgb_scene000147_render000005.png,1,171,381,93,"[0, 1]",right,1,12,25,f,y,y,2019_Jul_11_1345,2AFC_task,59.932923091979035,
stimuli/rgb_scene000150_render000002.png,stimuli/rgb_scene000150_render000005.png,1,172,382,118,"[1, 0]",left,1,12,25,f,y,y,2019_Jul_11_1345,2AFC_task,59.932923091979035,
stimuli/rgb_scene000056_render000002.png,stimuli/rgb_scene000056_render000006.png,1,173,383,56,"[1, 0]",left,1,12,25,f,y,y,2019_Jul_11_1345,2AFC_task,59.932923091979035,
stimuli/rgb_scene000165_render000001.png,stimuli/rgb_scene000165_render000005.png,1,174,384,156,"[0, 1]",right,1,12,25,f,y,y,2019_Jul_11_1345,2AFC_task,59.932923091979035,
stimuli/rgb_scene000056_render000003.png,stimuli/rgb_scene000056_render000005.png,1,175,385,58,"[1, 0]",left,1,12,25,f,y,y,2019_Jul_11_1345,2AFC_task,59.932923091979035,
stimuli/rgb_scene000047_render000003.png,stimuli/rgb_scene000047_render000006.png,1,176,386,38,"[1, 0]",right,0,12,25,f,y,y,2019_Jul_11_1345,2AFC_task,59.932923091979035,
stimuli/rgb_scene000150_render000000.png,stimuli/rgb_scene000150_render000003.png,1,177,387,107,"[1, 0]",left,1,12,25,f,y,y,2019_Jul_11_1345,2AFC_task,59.932923091979035,
stimuli/rgb_scene000169_render000001.png,stimuli/rgb_scene000169_render000004.png,1,178,388,176,"[1, 0]",right,0,12,25,f,y,y,2019_Jul_11_1345,2AFC_task,59.932923091979035,
stimuli/rgb_scene000160_render000002.png,stimuli/rgb_scene000160_render000006.png,1,179,389,140,"[1, 0]",left,1,12,25,f,y,y,2019_Jul_11_1345,2AFC_task,59.932923091979035,
stimuli/rgb_scene000196_render000003.png,stimuli/rgb_scene000196_render000006.png,1,180,390,206,"[1, 0]",right,0,12,25,f,y,y,2019_Jul_11_1345,2AFC_task,59.932923091979035,
stimuli/rgb_scene000150_render000001.png,stimuli/rgb_scene000150_render000003.png,1,181,391,112,"[0, 1]",right,1,12,25,f,y,y,2019_Jul_11_1345,2AFC_task,59.932923091979035,
stimuli/rgb_scene000066_render000005.png,stimuli/rgb_scene000066_render000006.png,1,182,392,83,"[1, 0]",left,1,12,25,f,y,y,2019_Jul_11_1345,2AFC_task,59.932923091979035,
stimuli/rgb_scene000066_render000000.png,stimuli/rgb_scene000066_render000005.png,1,183,393,67,"[0, 1]",right,1,12,25,f,y,y,2019_Jul_11_1345,2AFC_task,59.932923091979035,
stimuli/rgb_scene000147_render000000.png,stimuli/rgb_scene000147_render000002.png,1,184,394,85,"[0, 1]",right,1,12,25,f,y,y,2019_Jul_11_1345,2AFC_task,59.932923091979035,
stimuli/rgb_scene000042_render000001.png,stimuli/rgb_scene000042_render000006.png,1,185,395,10,"[1, 0]",left,1,12,25,f,y,y,2019_Jul_11_1345,2AFC_task,59.932923091979035,
stimuli/rgb_scene000165_render000003.png,stimuli/rgb_scene000165_render000004.png,1,186,396,162,"[1, 0]",left,1,12,25,f,y,y,2019_Jul_11_1345,2AFC_task,59.932923091979035,
stimuli/rgb_scene000066_render000002.png,stimuli/rgb_scene000066_render000003.png,1,187,397,74,"[0, 1]",right,1,12,25,f,y,y,2019_Jul_11_1345,2AFC_task,59.932923091979035,
stimuli/rgb_scene000047_render000001.png,stimuli/rgb_scene000047_render000002.png,1,188,398,27,"[0, 1]",right,1,12,25,f,y,y,2019_Jul_11_1345,2AFC_task,59.932923091979035,
stimuli/rgb_scene000042_render000001.png,stimuli/rgb_scene000042_render000004.png,1,189,399,8,"[0, 1]",right,1,12,25,f,y,y,2019_Jul_11_1345,2AFC_task,59.932923091979035,
stimuli/rgb_scene000147_render000004.png,stimuli/rgb_scene000147_render000005.png,1,190,400,102,"[0, 1]",right,1,12,25,f,y,y,2019_Jul_11_1345,2AFC_task,59.932923091979035,
stimuli/rgb_scene000169_render000002.png,stimuli/rgb_scene000169_render000006.png,1,191,401,182,"[1, 0]",right,0,12,25,f,y,y,2019_Jul_11_1345,2AFC_task,59.932923091979035,
stimuli/rgb_scene000066_render000002.png,stimuli/rgb_scene000066_render000005.png,1,192,402,76,"[1, 0]",left,1,12,25,f,y,y,2019_Jul_11_1345,2AFC_task,59.932923091979035,
stimuli/rgb_scene000165_render000004.png,stimuli/rgb_scene000165_render000006.png,1,193,403,166,"[1, 0]",left,1,12,25,f,y,y,2019_Jul_11_1345,2AFC_task,59.932923091979035,
stimuli/rgb_scene000160_render000000.png,stimuli/rgb_scene000160_render000001.png,1,194,404,126,"[1, 0]",left,1,12,25,f,y,y,2019_Jul_11_1345,2AFC_task,59.932923091979035,
stimuli/rgb_scene000196_render000002.png,stimuli/rgb_scene000196_render000003.png,1,195,405,200,"[1, 0]",right,0,12,25,f,y,y,2019_Jul_11_1345,2AFC_task,59.932923091979035,
stimuli/rgb_scene000147_render000001.png,stimuli/rgb_scene000147_render000006.png,1,196,406,94,"[0, 1]",right,1,12,25,f,y,y,2019_Jul_11_1345,2AFC_task,59.932923091979035,
stimuli/rgb_scene000066_render000002.png,stimuli/rgb_scene000066_render000004.png,1,197,407,75,"[0, 1]",right,1,12,25,f,y,y,2019_Jul_11_1345,2AFC_task,59.932923091979035,
stimuli/rgb_scene000169_render000000.png,stimuli/rgb_scene000169_render000006.png,1,198,408,173,"[0, 1]",left,0,12,25,f,y,y,2019_Jul_11_1345,2AFC_task,59.932923091979035,
stimuli/rgb_scene000165_render000004.png,stimuli/rgb_scene000165_render000005.png,1,199,409,165,"[1, 0]",left,1,12,25,f,y,y,2019_Jul_11_1345,2AFC_task,59.932923091979035,
stimuli/rgb_scene000042_render000002.png,stimuli/rgb_scene000042_render000006.png,1,200,410,14,"[0, 1]",right,1,12,25,f,y,y,2019_Jul_11_1345,2AFC_task,59.932923091979035,
stimuli/rgb_scene000047_render000005.png,stimuli/rgb_scene000047_render000006.png,1,201,411,41,"[0, 1]",left,0,12,25,f,y,y,2019_Jul_11_1345,2AFC_task,59.932923091979035,
stimuli/rgb_scene000196_render000000.png,stimuli/rgb_scene000196_render000004.png,1,202,412,192,"[0, 1]",left,0,12,25,f,y,y,2019_Jul_11_1345,2AFC_task,59.932923091979035,
stimuli/rgb_scene000160_render000003.png,stimuli/rgb_scene000160_render000006.png,1,203,413,143,"[0, 1]",right,1,12,25,f,y,y,2019_Jul_11_1345,2AFC_task,59.932923091979035,
stimuli/rgb_scene000056_render000001.png,stimuli/rgb_scene000056_render000004.png,1,204,414,50,"[0, 1]",right,1,12,25,f,y,y,2019_Jul_11_1345,2AFC_task,59.932923091979035,
stimuli/rgb_scene000056_render000004.png,stimuli/rgb_scene000056_render000006.png,1,205,415,61,"[1, 0]",left,1,12,25,f,y,y,2019_Jul_11_1345,2AFC_task,59.932923091979035,
stimuli/rgb_scene000169_render000001.png,stimuli/rgb_scene000169_render000002.png,1,206,416,174,"[1, 0]",right,0,12,25,f,y,y,2019_Jul_11_1345,2AFC_task,59.932923091979035,
stimuli/rgb_scene000160_render000001.png,stimuli/rgb_scene000160_render000004.png,1,207,417,134,"[1, 0]",left,1,12,25,f,y,y,2019_Jul_11_1345,2AFC_task,59.932923091979035,
stimuli/rgb_scene000047_render000003.png,stimuli/rgb_scene000047_render000004.png,1,208,418,36,"[0, 1]",left,0,12,25,f,y,y,2019_Jul_11_1345,2AFC_task,59.932923091979035,
stimuli/rgb_scene000147_render000000.png,stimuli/rgb_scene000147_render000001.png,1,209,419,84,"[1, 0]",left,1,12,25,f,y,y,2019_Jul_11_1345,2AFC_task,59.932923091979035,
