stimOne,stimTwo,trials_1.thisRepN,trials_1.thisTrialN,trials_1.thisN,trials_1.thisIndex,presentation_positions,resp_key,corresponding_image,participant ID (two digits, e.g. 01),age,gender (m/f/-),normal or corrected-to-normal vision (y/n),normal colour vision (y/n),date,expName,frameRate,
stimuli/rgb_scene000160_render000004.png,stimuli/rgb_scene000160_render000005.png,0,0,0,144,"[0, 1]",right,1,13,23,f,y,y,2019_Jul_11_1115,2AFC_task,59.94743813265616,
stimuli/rgb_scene000042_render000002.png,stimuli/rgb_scene000042_render000004.png,0,1,1,12,"[1, 0]",left,1,13,23,f,y,y,2019_Jul_11_1115,2AFC_task,59.94743813265616,
stimuli/rgb_scene000042_render000003.png,stimuli/rgb_scene000042_render000004.png,0,2,2,15,"[1, 0]",left,1,13,23,f,y,y,2019_Jul_11_1115,2AFC_task,59.94743813265616,
stimuli/rgb_scene000150_render000000.png,stimuli/rgb_scene000150_render000005.png,0,3,3,109,"[1, 0]",left,1,13,23,f,y,y,2019_Jul_11_1115,2AFC_task,59.94743813265616,
stimuli/rgb_scene000066_render000004.png,stimuli/rgb_scene000066_render000006.png,0,4,4,82,"[0, 1]",right,1,13,23,f,y,y,2019_Jul_11_1115,2AFC_task,59.94743813265616,
stimuli/rgb_scene000056_render000002.png,stimuli/rgb_scene000056_render000006.png,0,5,5,56,"[1, 0]",left,1,13,23,f,y,y,2019_Jul_11_1115,2AFC_task,59.94743813265616,
stimuli/rgb_scene000147_render000004.png,stimuli/rgb_scene000147_render000006.png,0,6,6,103,"[1, 0]",left,1,13,23,f,y,y,2019_Jul_11_1115,2AFC_task,59.94743813265616,
stimuli/rgb_scene000066_render000005.png,stimuli/rgb_scene000066_render000006.png,0,7,7,83,"[0, 1]",right,1,13,23,f,y,y,2019_Jul_11_1115,2AFC_task,59.94743813265616,
stimuli/rgb_scene000047_render000003.png,stimuli/rgb_scene000047_render000006.png,0,8,8,38,"[1, 0]",left,1,13,23,f,y,y,2019_Jul_11_1115,2AFC_task,59.94743813265616,
stimuli/rgb_scene000047_render000002.png,stimuli/rgb_scene000047_render000003.png,0,9,9,32,"[0, 1]",right,1,13,23,f,y,y,2019_Jul_11_1115,2AFC_task,59.94743813265616,
stimuli/rgb_scene000042_render000000.png,stimuli/rgb_scene000042_render000004.png,0,10,10,3,"[0, 1]",right,1,13,23,f,y,y,2019_Jul_11_1115,2AFC_task,59.94743813265616,
stimuli/rgb_scene000169_render000000.png,stimuli/rgb_scene000169_render000001.png,0,11,11,168,"[1, 0]",left,1,13,23,f,y,y,2019_Jul_11_1115,2AFC_task,59.94743813265616,
stimuli/rgb_scene000169_render000002.png,stimuli/rgb_scene000169_render000003.png,0,12,12,179,"[1, 0]",left,1,13,23,f,y,y,2019_Jul_11_1115,2AFC_task,59.94743813265616,
stimuli/rgb_scene000056_render000001.png,stimuli/rgb_scene000056_render000006.png,0,13,13,52,"[1, 0]",left,1,13,23,f,y,y,2019_Jul_11_1115,2AFC_task,59.94743813265616,
stimuli/rgb_scene000196_render000002.png,stimuli/rgb_scene000196_render000006.png,0,14,14,203,"[0, 1]",left,0,13,23,f,y,y,2019_Jul_11_1115,2AFC_task,59.94743813265616,
stimuli/rgb_scene000160_render000000.png,stimuli/rgb_scene000160_render000003.png,0,15,15,128,"[1, 0]",left,1,13,23,f,y,y,2019_Jul_11_1115,2AFC_task,59.94743813265616,
stimuli/rgb_scene000196_render000003.png,stimuli/rgb_scene000196_render000004.png,0,16,16,204,"[0, 1]",right,1,13,23,f,y,y,2019_Jul_11_1115,2AFC_task,59.94743813265616,
stimuli/rgb_scene000042_render000001.png,stimuli/rgb_scene000042_render000004.png,0,17,17,8,"[0, 1]",right,1,13,23,f,y,y,2019_Jul_11_1115,2AFC_task,59.94743813265616,
stimuli/rgb_scene000165_render000001.png,stimuli/rgb_scene000165_render000006.png,0,18,18,157,"[1, 0]",left,1,13,23,f,y,y,2019_Jul_11_1115,2AFC_task,59.94743813265616,
stimuli/rgb_scene000042_render000000.png,stimuli/rgb_scene000042_render000006.png,0,19,19,5,"[0, 1]",right,1,13,23,f,y,y,2019_Jul_11_1115,2AFC_task,59.94743813265616,
stimuli/rgb_scene000147_render000001.png,stimuli/rgb_scene000147_render000003.png,0,20,20,91,"[1, 0]",left,1,13,23,f,y,y,2019_Jul_11_1115,2AFC_task,59.94743813265616,
stimuli/rgb_scene000147_render000000.png,stimuli/rgb_scene000147_render000003.png,0,21,21,86,"[1, 0]",left,1,13,23,f,y,y,2019_Jul_11_1115,2AFC_task,59.94743813265616,
stimuli/rgb_scene000196_render000003.png,stimuli/rgb_scene000196_render000006.png,0,22,22,206,"[0, 1]",left,0,13,23,f,y,y,2019_Jul_11_1115,2AFC_task,59.94743813265616,
stimuli/rgb_scene000165_render000000.png,stimuli/rgb_scene000165_render000004.png,0,23,23,150,"[0, 1]",right,1,13,23,f,y,y,2019_Jul_11_1115,2AFC_task,59.94743813265616,
stimuli/rgb_scene000047_render000002.png,stimuli/rgb_scene000047_render000006.png,0,24,24,35,"[0, 1]",right,1,13,23,f,y,y,2019_Jul_11_1115,2AFC_task,59.94743813265616,
stimuli/rgb_scene000066_render000002.png,stimuli/rgb_scene000066_render000004.png,0,25,25,75,"[1, 0]",left,1,13,23,f,y,y,2019_Jul_11_1115,2AFC_task,59.94743813265616,
stimuli/rgb_scene000196_render000000.png,stimuli/rgb_scene000196_render000006.png,0,26,26,194,"[1, 0]",right,0,13,23,f,y,y,2019_Jul_11_1115,2AFC_task,59.94743813265616,
stimuli/rgb_scene000165_render000003.png,stimuli/rgb_scene000165_render000006.png,0,27,27,164,"[1, 0]",left,1,13,23,f,y,y,2019_Jul_11_1115,2AFC_task,59.94743813265616,
stimuli/rgb_scene000066_render000001.png,stimuli/rgb_scene000066_render000002.png,0,28,28,69,"[1, 0]",left,1,13,23,f,y,y,2019_Jul_11_1115,2AFC_task,59.94743813265616,
stimuli/rgb_scene000150_render000002.png,stimuli/rgb_scene000150_render000006.png,0,29,29,119,"[0, 1]",right,1,13,23,f,y,y,2019_Jul_11_1115,2AFC_task,59.94743813265616,
stimuli/rgb_scene000165_render000003.png,stimuli/rgb_scene000165_render000004.png,0,30,30,162,"[1, 0]",left,1,13,23,f,y,y,2019_Jul_11_1115,2AFC_task,59.94743813265616,
stimuli/rgb_scene000196_render000001.png,stimuli/rgb_scene000196_render000006.png,0,31,31,199,"[0, 1]",left,0,13,23,f,y,y,2019_Jul_11_1115,2AFC_task,59.94743813265616,
stimuli/rgb_scene000160_render000001.png,stimuli/rgb_scene000160_render000005.png,0,32,32,135,"[0, 1]",right,1,13,23,f,y,y,2019_Jul_11_1115,2AFC_task,59.94743813265616,
stimuli/rgb_scene000147_render000000.png,stimuli/rgb_scene000147_render000004.png,0,33,33,87,"[0, 1]",right,1,13,23,f,y,y,2019_Jul_11_1115,2AFC_task,59.94743813265616,
stimuli/rgb_scene000147_render000001.png,stimuli/rgb_scene000147_render000004.png,0,34,34,92,"[1, 0]",left,1,13,23,f,y,y,2019_Jul_11_1115,2AFC_task,59.94743813265616,
stimuli/rgb_scene000165_render000001.png,stimuli/rgb_scene000165_render000005.png,0,35,35,156,"[0, 1]",right,1,13,23,f,y,y,2019_Jul_11_1115,2AFC_task,59.94743813265616,
stimuli/rgb_scene000042_render000002.png,stimuli/rgb_scene000042_render000005.png,0,36,36,13,"[0, 1]",right,1,13,23,f,y,y,2019_Jul_11_1115,2AFC_task,59.94743813265616,
stimuli/rgb_scene000056_render000000.png,stimuli/rgb_scene000056_render000005.png,0,37,37,46,"[1, 0]",right,0,13,23,f,y,y,2019_Jul_11_1115,2AFC_task,59.94743813265616,
stimuli/rgb_scene000056_render000001.png,stimuli/rgb_scene000056_render000004.png,0,38,38,50,"[1, 0]",left,1,13,23,f,y,y,2019_Jul_11_1115,2AFC_task,59.94743813265616,
stimuli/rgb_scene000169_render000003.png,stimuli/rgb_scene000169_render000006.png,0,39,39,185,"[0, 1]",right,1,13,23,f,y,y,2019_Jul_11_1115,2AFC_task,59.94743813265616,
stimuli/rgb_scene000147_render000003.png,stimuli/rgb_scene000147_render000005.png,0,40,40,100,"[0, 1]",right,1,13,23,f,y,y,2019_Jul_11_1115,2AFC_task,59.94743813265616,
stimuli/rgb_scene000169_render000001.png,stimuli/rgb_scene000169_render000004.png,0,41,41,176,"[0, 1]",left,0,13,23,f,y,y,2019_Jul_11_1115,2AFC_task,59.94743813265616,
stimuli/rgb_scene000066_render000003.png,stimuli/rgb_scene000066_render000004.png,0,42,42,78,"[1, 0]",left,1,13,23,f,y,y,2019_Jul_11_1115,2AFC_task,59.94743813265616,
stimuli/rgb_scene000047_render000005.png,stimuli/rgb_scene000047_render000006.png,0,43,43,41,"[1, 0]",left,1,13,23,f,y,y,2019_Jul_11_1115,2AFC_task,59.94743813265616,
stimuli/rgb_scene000047_render000001.png,stimuli/rgb_scene000047_render000002.png,0,44,44,27,"[1, 0]",left,1,13,23,f,y,y,2019_Jul_11_1115,2AFC_task,59.94743813265616,
stimuli/rgb_scene000066_render000000.png,stimuli/rgb_scene000066_render000003.png,0,45,45,65,"[1, 0]",left,1,13,23,f,y,y,2019_Jul_11_1115,2AFC_task,59.94743813265616,
stimuli/rgb_scene000165_render000000.png,stimuli/rgb_scene000165_render000006.png,0,46,46,152,"[1, 0]",left,1,13,23,f,y,y,2019_Jul_11_1115,2AFC_task,59.94743813265616,
stimuli/rgb_scene000196_render000004.png,stimuli/rgb_scene000196_render000006.png,0,47,47,208,"[0, 1]",left,0,13,23,f,y,y,2019_Jul_11_1115,2AFC_task,59.94743813265616,
stimuli/rgb_scene000056_render000003.png,stimuli/rgb_scene000056_render000006.png,0,48,48,59,"[0, 1]",right,1,13,23,f,y,y,2019_Jul_11_1115,2AFC_task,59.94743813265616,
stimuli/rgb_scene000047_render000000.png,stimuli/rgb_scene000047_render000004.png,0,49,49,24,"[0, 1]",right,1,13,23,f,y,y,2019_Jul_11_1115,2AFC_task,59.94743813265616,
stimuli/rgb_scene000042_render000000.png,stimuli/rgb_scene000042_render000001.png,0,50,50,0,"[1, 0]",left,1,13,23,f,y,y,2019_Jul_11_1115,2AFC_task,59.94743813265616,
stimuli/rgb_scene000056_render000000.png,stimuli/rgb_scene000056_render000001.png,0,51,51,42,"[0, 1]",right,1,13,23,f,y,y,2019_Jul_11_1115,2AFC_task,59.94743813265616,
stimuli/rgb_scene000056_render000003.png,stimuli/rgb_scene000056_render000004.png,0,52,52,57,"[0, 1]",right,1,13,23,f,y,y,2019_Jul_11_1115,2AFC_task,59.94743813265616,
stimuli/rgb_scene000066_render000001.png,stimuli/rgb_scene000066_render000006.png,0,53,53,73,"[1, 0]",left,1,13,23,f,y,y,2019_Jul_11_1115,2AFC_task,59.94743813265616,
stimuli/rgb_scene000160_render000003.png,stimuli/rgb_scene000160_render000004.png,0,54,54,141,"[1, 0]",left,1,13,23,f,y,y,2019_Jul_11_1115,2AFC_task,59.94743813265616,
stimuli/rgb_scene000150_render000003.png,stimuli/rgb_scene000150_render000005.png,0,55,55,121,"[0, 1]",right,1,13,23,f,y,y,2019_Jul_11_1115,2AFC_task,59.94743813265616,
stimuli/rgb_scene000160_render000001.png,stimuli/rgb_scene000160_render000002.png,0,56,56,132,"[1, 0]",left,1,13,23,f,y,y,2019_Jul_11_1115,2AFC_task,59.94743813265616,
stimuli/rgb_scene000047_render000000.png,stimuli/rgb_scene000047_render000005.png,0,57,57,25,"[0, 1]",right,1,13,23,f,y,y,2019_Jul_11_1115,2AFC_task,59.94743813265616,
stimuli/rgb_scene000042_render000003.png,stimuli/rgb_scene000042_render000006.png,0,58,58,17,"[0, 1]",right,1,13,23,f,y,y,2019_Jul_11_1115,2AFC_task,59.94743813265616,
stimuli/rgb_scene000165_render000005.png,stimuli/rgb_scene000165_render000006.png,0,59,59,167,"[1, 0]",left,1,13,23,f,y,y,2019_Jul_11_1115,2AFC_task,59.94743813265616,
stimuli/rgb_scene000047_render000000.png,stimuli/rgb_scene000047_render000001.png,0,60,60,21,"[1, 0]",left,1,13,23,f,y,y,2019_Jul_11_1115,2AFC_task,59.94743813265616,
stimuli/rgb_scene000147_render000005.png,stimuli/rgb_scene000147_render000006.png,0,61,61,104,"[1, 0]",left,1,13,23,f,y,y,2019_Jul_11_1115,2AFC_task,59.94743813265616,
stimuli/rgb_scene000160_render000001.png,stimuli/rgb_scene000160_render000004.png,0,62,62,134,"[0, 1]",right,1,13,23,f,y,y,2019_Jul_11_1115,2AFC_task,59.94743813265616,
stimuli/rgb_scene000056_render000001.png,stimuli/rgb_scene000056_render000003.png,0,63,63,49,"[0, 1]",right,1,13,23,f,y,y,2019_Jul_11_1115,2AFC_task,59.94743813265616,
stimuli/rgb_scene000160_render000001.png,stimuli/rgb_scene000160_render000006.png,0,64,64,136,"[1, 0]",left,1,13,23,f,y,y,2019_Jul_11_1115,2AFC_task,59.94743813265616,
stimuli/rgb_scene000196_render000001.png,stimuli/rgb_scene000196_render000004.png,0,65,65,197,"[0, 1]",left,0,13,23,f,y,y,2019_Jul_11_1115,2AFC_task,59.94743813265616,
stimuli/rgb_scene000042_render000001.png,stimuli/rgb_scene000042_render000002.png,0,66,66,6,"[1, 0]",left,1,13,23,f,y,y,2019_Jul_11_1115,2AFC_task,59.94743813265616,
stimuli/rgb_scene000147_render000003.png,stimuli/rgb_scene000147_render000006.png,0,67,67,101,"[1, 0]",left,1,13,23,f,y,y,2019_Jul_11_1115,2AFC_task,59.94743813265616,
stimuli/rgb_scene000196_render000000.png,stimuli/rgb_scene000196_render000001.png,0,68,68,189,"[0, 1]",left,0,13,23,f,y,y,2019_Jul_11_1115,2AFC_task,59.94743813265616,
stimuli/rgb_scene000160_render000002.png,stimuli/rgb_scene000160_render000003.png,0,69,69,137,"[0, 1]",right,1,13,23,f,y,y,2019_Jul_11_1115,2AFC_task,59.94743813265616,
stimuli/rgb_scene000169_render000000.png,stimuli/rgb_scene000169_render000003.png,0,70,70,170,"[1, 0]",right,0,13,23,f,y,y,2019_Jul_11_1115,2AFC_task,59.94743813265616,
stimuli/rgb_scene000056_render000002.png,stimuli/rgb_scene000056_render000004.png,0,71,71,54,"[1, 0]",left,1,13,23,f,y,y,2019_Jul_11_1115,2AFC_task,59.94743813265616,
stimuli/rgb_scene000150_render000000.png,stimuli/rgb_scene000150_render000004.png,0,72,72,108,"[0, 1]",right,1,13,23,f,y,y,2019_Jul_11_1115,2AFC_task,59.94743813265616,
stimuli/rgb_scene000056_render000000.png,stimuli/rgb_scene000056_render000002.png,0,73,73,43,"[0, 1]",right,1,13,23,f,y,y,2019_Jul_11_1115,2AFC_task,59.94743813265616,
stimuli/rgb_scene000047_render000001.png,stimuli/rgb_scene000047_render000004.png,0,74,74,29,"[1, 0]",left,1,13,23,f,y,y,2019_Jul_11_1115,2AFC_task,59.94743813265616,
stimuli/rgb_scene000150_render000005.png,stimuli/rgb_scene000150_render000006.png,0,75,75,125,"[1, 0]",right,0,13,23,f,y,y,2019_Jul_11_1115,2AFC_task,59.94743813265616,
stimuli/rgb_scene000160_render000000.png,stimuli/rgb_scene000160_render000005.png,0,76,76,130,"[0, 1]",right,1,13,23,f,y,y,2019_Jul_11_1115,2AFC_task,59.94743813265616,
stimuli/rgb_scene000047_render000003.png,stimuli/rgb_scene000047_render000005.png,0,77,77,37,"[1, 0]",left,1,13,23,f,y,y,2019_Jul_11_1115,2AFC_task,59.94743813265616,
stimuli/rgb_scene000165_render000001.png,stimuli/rgb_scene000165_render000003.png,0,78,78,154,"[0, 1]",right,1,13,23,f,y,y,2019_Jul_11_1115,2AFC_task,59.94743813265616,
stimuli/rgb_scene000160_render000000.png,stimuli/rgb_scene000160_render000001.png,0,79,79,126,"[0, 1]",right,1,13,23,f,y,y,2019_Jul_11_1115,2AFC_task,59.94743813265616,
stimuli/rgb_scene000066_render000000.png,stimuli/rgb_scene000066_render000004.png,0,80,80,66,"[0, 1]",right,1,13,23,f,y,y,2019_Jul_11_1115,2AFC_task,59.94743813265616,
stimuli/rgb_scene000047_render000001.png,stimuli/rgb_scene000047_render000003.png,0,81,81,28,"[1, 0]",left,1,13,23,f,y,y,2019_Jul_11_1115,2AFC_task,59.94743813265616,
stimuli/rgb_scene000056_render000000.png,stimuli/rgb_scene000056_render000003.png,0,82,82,44,"[1, 0]",left,1,13,23,f,y,y,2019_Jul_11_1115,2AFC_task,59.94743813265616,
stimuli/rgb_scene000047_render000003.png,stimuli/rgb_scene000047_render000004.png,0,83,83,36,"[0, 1]",right,1,13,23,f,y,y,2019_Jul_11_1115,2AFC_task,59.94743813265616,
stimuli/rgb_scene000169_render000001.png,stimuli/rgb_scene000169_render000005.png,0,84,84,177,"[0, 1]",right,1,13,23,f,y,y,2019_Jul_11_1115,2AFC_task,59.94743813265616,
stimuli/rgb_scene000169_render000002.png,stimuli/rgb_scene000169_render000006.png,0,85,85,182,"[0, 1]",right,1,13,23,f,y,y,2019_Jul_11_1115,2AFC_task,59.94743813265616,
stimuli/rgb_scene000169_render000000.png,stimuli/rgb_scene000169_render000002.png,0,86,86,169,"[0, 1]",right,1,13,23,f,y,y,2019_Jul_11_1115,2AFC_task,59.94743813265616,
stimuli/rgb_scene000165_render000000.png,stimuli/rgb_scene000165_render000001.png,0,87,87,147,"[1, 0]",left,1,13,23,f,y,y,2019_Jul_11_1115,2AFC_task,59.94743813265616,
stimuli/rgb_scene000047_render000004.png,stimuli/rgb_scene000047_render000005.png,0,88,88,39,"[1, 0]",left,1,13,23,f,y,y,2019_Jul_11_1115,2AFC_task,59.94743813265616,
stimuli/rgb_scene000160_render000000.png,stimuli/rgb_scene000160_render000002.png,0,89,89,127,"[1, 0]",left,1,13,23,f,y,y,2019_Jul_11_1115,2AFC_task,59.94743813265616,
stimuli/rgb_scene000150_render000002.png,stimuli/rgb_scene000150_render000005.png,0,90,90,118,"[0, 1]",right,1,13,23,f,y,y,2019_Jul_11_1115,2AFC_task,59.94743813265616,
stimuli/rgb_scene000165_render000002.png,stimuli/rgb_scene000165_render000006.png,0,91,91,161,"[1, 0]",left,1,13,23,f,y,y,2019_Jul_11_1115,2AFC_task,59.94743813265616,
stimuli/rgb_scene000150_render000001.png,stimuli/rgb_scene000150_render000003.png,0,92,92,112,"[0, 1]",right,1,13,23,f,y,y,2019_Jul_11_1115,2AFC_task,59.94743813265616,
stimuli/rgb_scene000169_render000001.png,stimuli/rgb_scene000169_render000006.png,0,93,93,178,"[1, 0]",left,1,13,23,f,y,y,2019_Jul_11_1115,2AFC_task,59.94743813265616,
stimuli/rgb_scene000042_render000005.png,stimuli/rgb_scene000042_render000006.png,0,94,94,20,"[0, 1]",right,1,13,23,f,y,y,2019_Jul_11_1115,2AFC_task,59.94743813265616,
stimuli/rgb_scene000196_render000002.png,stimuli/rgb_scene000196_render000005.png,0,95,95,202,"[0, 1]",left,0,13,23,f,y,y,2019_Jul_11_1115,2AFC_task,59.94743813265616,
stimuli/rgb_scene000147_render000000.png,stimuli/rgb_scene000147_render000005.png,0,96,96,88,"[1, 0]",left,1,13,23,f,y,y,2019_Jul_11_1115,2AFC_task,59.94743813265616,
stimuli/rgb_scene000169_render000000.png,stimuli/rgb_scene000169_render000006.png,0,97,97,173,"[1, 0]",right,0,13,23,f,y,y,2019_Jul_11_1115,2AFC_task,59.94743813265616,
stimuli/rgb_scene000150_render000000.png,stimuli/rgb_scene000150_render000002.png,0,98,98,106,"[1, 0]",left,1,13,23,f,y,y,2019_Jul_11_1115,2AFC_task,59.94743813265616,
stimuli/rgb_scene000165_render000004.png,stimuli/rgb_scene000165_render000005.png,0,99,99,165,"[1, 0]",left,1,13,23,f,y,y,2019_Jul_11_1115,2AFC_task,59.94743813265616,
stimuli/rgb_scene000165_render000004.png,stimuli/rgb_scene000165_render000006.png,0,100,100,166,"[1, 0]",left,1,13,23,f,y,y,2019_Jul_11_1115,2AFC_task,59.94743813265616,
stimuli/rgb_scene000147_render000000.png,stimuli/rgb_scene000147_render000001.png,0,101,101,84,"[0, 1]",right,1,13,23,f,y,y,2019_Jul_11_1115,2AFC_task,59.94743813265616,
stimuli/rgb_scene000042_render000003.png,stimuli/rgb_scene000042_render000005.png,0,102,102,16,"[1, 0]",left,1,13,23,f,y,y,2019_Jul_11_1115,2AFC_task,59.94743813265616,
stimuli/rgb_scene000169_render000003.png,stimuli/rgb_scene000169_render000004.png,0,103,103,183,"[0, 1]",right,1,13,23,f,y,y,2019_Jul_11_1115,2AFC_task,59.94743813265616,
stimuli/rgb_scene000160_render000000.png,stimuli/rgb_scene000160_render000004.png,0,104,104,129,"[0, 1]",right,1,13,23,f,y,y,2019_Jul_11_1115,2AFC_task,59.94743813265616,
stimuli/rgb_scene000066_render000002.png,stimuli/rgb_scene000066_render000003.png,0,105,105,74,"[1, 0]",left,1,13,23,f,y,y,2019_Jul_11_1115,2AFC_task,59.94743813265616,
stimuli/rgb_scene000169_render000001.png,stimuli/rgb_scene000169_render000003.png,0,106,106,175,"[1, 0]",right,0,13,23,f,y,y,2019_Jul_11_1115,2AFC_task,59.94743813265616,
stimuli/rgb_scene000066_render000004.png,stimuli/rgb_scene000066_render000005.png,0,107,107,81,"[0, 1]",right,1,13,23,f,y,y,2019_Jul_11_1115,2AFC_task,59.94743813265616,
stimuli/rgb_scene000150_render000002.png,stimuli/rgb_scene000150_render000003.png,0,108,108,116,"[0, 1]",right,1,13,23,f,y,y,2019_Jul_11_1115,2AFC_task,59.94743813265616,
stimuli/rgb_scene000169_render000003.png,stimuli/rgb_scene000169_render000005.png,0,109,109,184,"[0, 1]",right,1,13,23,f,y,y,2019_Jul_11_1115,2AFC_task,59.94743813265616,
stimuli/rgb_scene000160_render000003.png,stimuli/rgb_scene000160_render000006.png,0,110,110,143,"[1, 0]",left,1,13,23,f,y,y,2019_Jul_11_1115,2AFC_task,59.94743813265616,
stimuli/rgb_scene000169_render000005.png,stimuli/rgb_scene000169_render000006.png,0,111,111,188,"[0, 1]",right,1,13,23,f,y,y,2019_Jul_11_1115,2AFC_task,59.94743813265616,
stimuli/rgb_scene000042_render000002.png,stimuli/rgb_scene000042_render000003.png,0,112,112,11,"[1, 0]",left,1,13,23,f,y,y,2019_Jul_11_1115,2AFC_task,59.94743813265616,
stimuli/rgb_scene000165_render000002.png,stimuli/rgb_scene000165_render000005.png,0,113,113,160,"[0, 1]",right,1,13,23,f,y,y,2019_Jul_11_1115,2AFC_task,59.94743813265616,
stimuli/rgb_scene000150_render000000.png,stimuli/rgb_scene000150_render000003.png,0,114,114,107,"[1, 0]",left,1,13,23,f,y,y,2019_Jul_11_1115,2AFC_task,59.94743813265616,
stimuli/rgb_scene000165_render000000.png,stimuli/rgb_scene000165_render000003.png,0,115,115,149,"[1, 0]",left,1,13,23,f,y,y,2019_Jul_11_1115,2AFC_task,59.94743813265616,
stimuli/rgb_scene000160_render000000.png,stimuli/rgb_scene000160_render000006.png,0,116,116,131,"[0, 1]",right,1,13,23,f,y,y,2019_Jul_11_1115,2AFC_task,59.94743813265616,
stimuli/rgb_scene000042_render000000.png,stimuli/rgb_scene000042_render000005.png,0,117,117,4,"[1, 0]",left,1,13,23,f,y,y,2019_Jul_11_1115,2AFC_task,59.94743813265616,
stimuli/rgb_scene000147_render000001.png,stimuli/rgb_scene000147_render000005.png,0,118,118,93,"[1, 0]",left,1,13,23,f,y,y,2019_Jul_11_1115,2AFC_task,59.94743813265616,
stimuli/rgb_scene000169_render000001.png,stimuli/rgb_scene000169_render000002.png,0,119,119,174,"[1, 0]",right,0,13,23,f,y,y,2019_Jul_11_1115,2AFC_task,59.94743813265616,
stimuli/rgb_scene000047_render000000.png,stimuli/rgb_scene000047_render000003.png,0,120,120,23,"[1, 0]",left,1,13,23,f,y,y,2019_Jul_11_1115,2AFC_task,59.94743813265616,
stimuli/rgb_scene000165_render000000.png,stimuli/rgb_scene000165_render000002.png,0,121,121,148,"[0, 1]",right,1,13,23,f,y,y,2019_Jul_11_1115,2AFC_task,59.94743813265616,
stimuli/rgb_scene000196_render000001.png,stimuli/rgb_scene000196_render000005.png,0,122,122,198,"[1, 0]",right,0,13,23,f,y,y,2019_Jul_11_1115,2AFC_task,59.94743813265616,
stimuli/rgb_scene000150_render000003.png,stimuli/rgb_scene000150_render000004.png,0,123,123,120,"[1, 0]",left,1,13,23,f,y,y,2019_Jul_11_1115,2AFC_task,59.94743813265616,
stimuli/rgb_scene000169_render000000.png,stimuli/rgb_scene000169_render000005.png,0,124,124,172,"[0, 1]",left,0,13,23,f,y,y,2019_Jul_11_1115,2AFC_task,59.94743813265616,
stimuli/rgb_scene000147_render000002.png,stimuli/rgb_scene000147_render000005.png,0,125,125,97,"[1, 0]",left,1,13,23,f,y,y,2019_Jul_11_1115,2AFC_task,59.94743813265616,
stimuli/rgb_scene000147_render000001.png,stimuli/rgb_scene000147_render000002.png,0,126,126,90,"[1, 0]",left,1,13,23,f,y,y,2019_Jul_11_1115,2AFC_task,59.94743813265616,
stimuli/rgb_scene000150_render000000.png,stimuli/rgb_scene000150_render000006.png,0,127,127,110,"[1, 0]",left,1,13,23,f,y,y,2019_Jul_11_1115,2AFC_task,59.94743813265616,
stimuli/rgb_scene000147_render000001.png,stimuli/rgb_scene000147_render000006.png,0,128,128,94,"[0, 1]",right,1,13,23,f,y,y,2019_Jul_11_1115,2AFC_task,59.94743813265616,
stimuli/rgb_scene000066_render000000.png,stimuli/rgb_scene000066_render000005.png,0,129,129,67,"[0, 1]",right,1,13,23,f,y,y,2019_Jul_11_1115,2AFC_task,59.94743813265616,
stimuli/rgb_scene000196_render000001.png,stimuli/rgb_scene000196_render000003.png,0,130,130,196,"[1, 0]",left,1,13,23,f,y,y,2019_Jul_11_1115,2AFC_task,59.94743813265616,
stimuli/rgb_scene000160_render000001.png,stimuli/rgb_scene000160_render000003.png,0,131,131,133,"[1, 0]",left,1,13,23,f,y,y,2019_Jul_11_1115,2AFC_task,59.94743813265616,
stimuli/rgb_scene000056_render000001.png,stimuli/rgb_scene000056_render000005.png,0,132,132,51,"[1, 0]",left,1,13,23,f,y,y,2019_Jul_11_1115,2AFC_task,59.94743813265616,
stimuli/rgb_scene000165_render000001.png,stimuli/rgb_scene000165_render000002.png,0,133,133,153,"[1, 0]",left,1,13,23,f,y,y,2019_Jul_11_1115,2AFC_task,59.94743813265616,
stimuli/rgb_scene000196_render000000.png,stimuli/rgb_scene000196_render000002.png,0,134,134,190,"[1, 0]",right,0,13,23,f,y,y,2019_Jul_11_1115,2AFC_task,59.94743813265616,
stimuli/rgb_scene000196_render000000.png,stimuli/rgb_scene000196_render000004.png,0,135,135,192,"[0, 1]",left,0,13,23,f,y,y,2019_Jul_11_1115,2AFC_task,59.94743813265616,
stimuli/rgb_scene000056_render000002.png,stimuli/rgb_scene000056_render000005.png,0,136,136,55,"[0, 1]",right,1,13,23,f,y,y,2019_Jul_11_1115,2AFC_task,59.94743813265616,
stimuli/rgb_scene000047_render000001.png,stimuli/rgb_scene000047_render000005.png,0,137,137,30,"[1, 0]",left,1,13,23,f,y,y,2019_Jul_11_1115,2AFC_task,59.94743813265616,
stimuli/rgb_scene000160_render000003.png,stimuli/rgb_scene000160_render000005.png,0,138,138,142,"[1, 0]",left,1,13,23,f,y,y,2019_Jul_11_1115,2AFC_task,59.94743813265616,
stimuli/rgb_scene000150_render000001.png,stimuli/rgb_scene000150_render000005.png,0,139,139,114,"[0, 1]",right,1,13,23,f,y,y,2019_Jul_11_1115,2AFC_task,59.94743813265616,
stimuli/rgb_scene000047_render000002.png,stimuli/rgb_scene000047_render000004.png,0,140,140,33,"[1, 0]",left,1,13,23,f,y,y,2019_Jul_11_1115,2AFC_task,59.94743813265616,
stimuli/rgb_scene000196_render000003.png,stimuli/rgb_scene000196_render000005.png,0,141,141,205,"[1, 0]",right,0,13,23,f,y,y,2019_Jul_11_1115,2AFC_task,59.94743813265616,
stimuli/rgb_scene000042_render000001.png,stimuli/rgb_scene000042_render000005.png,0,142,142,9,"[1, 0]",left,1,13,23,f,y,y,2019_Jul_11_1115,2AFC_task,59.94743813265616,
stimuli/rgb_scene000150_render000002.png,stimuli/rgb_scene000150_render000004.png,0,143,143,117,"[0, 1]",right,1,13,23,f,y,y,2019_Jul_11_1115,2AFC_task,59.94743813265616,
stimuli/rgb_scene000196_render000002.png,stimuli/rgb_scene000196_render000003.png,0,144,144,200,"[1, 0]",right,0,13,23,f,y,y,2019_Jul_11_1115,2AFC_task,59.94743813265616,
stimuli/rgb_scene000147_render000003.png,stimuli/rgb_scene000147_render000004.png,0,145,145,99,"[1, 0]",left,1,13,23,f,y,y,2019_Jul_11_1115,2AFC_task,59.94743813265616,
stimuli/rgb_scene000196_render000000.png,stimuli/rgb_scene000196_render000003.png,0,146,146,191,"[0, 1]",left,0,13,23,f,y,y,2019_Jul_11_1115,2AFC_task,59.94743813265616,
stimuli/rgb_scene000047_render000004.png,stimuli/rgb_scene000047_render000006.png,0,147,147,40,"[1, 0]",left,1,13,23,f,y,y,2019_Jul_11_1115,2AFC_task,59.94743813265616,
stimuli/rgb_scene000042_render000001.png,stimuli/rgb_scene000042_render000003.png,0,148,148,7,"[1, 0]",left,1,13,23,f,y,y,2019_Jul_11_1115,2AFC_task,59.94743813265616,
stimuli/rgb_scene000150_render000001.png,stimuli/rgb_scene000150_render000004.png,0,149,149,113,"[0, 1]",right,1,13,23,f,y,y,2019_Jul_11_1115,2AFC_task,59.94743813265616,
stimuli/rgb_scene000196_render000000.png,stimuli/rgb_scene000196_render000005.png,0,150,150,193,"[1, 0]",left,1,13,23,f,y,y,2019_Jul_11_1115,2AFC_task,59.94743813265616,
stimuli/rgb_scene000056_render000004.png,stimuli/rgb_scene000056_render000005.png,0,151,151,60,"[1, 0]",left,1,13,23,f,y,y,2019_Jul_11_1115,2AFC_task,59.94743813265616,
stimuli/rgb_scene000147_render000002.png,stimuli/rgb_scene000147_render000004.png,0,152,152,96,"[1, 0]",left,1,13,23,f,y,y,2019_Jul_11_1115,2AFC_task,59.94743813265616,
stimuli/rgb_scene000169_render000000.png,stimuli/rgb_scene000169_render000004.png,0,153,153,171,"[1, 0]",left,1,13,23,f,y,y,2019_Jul_11_1115,2AFC_task,59.94743813265616,
stimuli/rgb_scene000047_render000002.png,stimuli/rgb_scene000047_render000005.png,0,154,154,34,"[1, 0]",left,1,13,23,f,y,y,2019_Jul_11_1115,2AFC_task,59.94743813265616,
stimuli/rgb_scene000160_render000002.png,stimuli/rgb_scene000160_render000005.png,0,155,155,139,"[0, 1]",right,1,13,23,f,y,y,2019_Jul_11_1115,2AFC_task,59.94743813265616,
stimuli/rgb_scene000066_render000002.png,stimuli/rgb_scene000066_render000005.png,0,156,156,76,"[0, 1]",right,1,13,23,f,y,y,2019_Jul_11_1115,2AFC_task,59.94743813265616,
stimuli/rgb_scene000147_render000000.png,stimuli/rgb_scene000147_render000002.png,0,157,157,85,"[1, 0]",left,1,13,23,f,y,y,2019_Jul_11_1115,2AFC_task,59.94743813265616,
stimuli/rgb_scene000056_render000002.png,stimuli/rgb_scene000056_render000003.png,0,158,158,53,"[0, 1]",right,1,13,23,f,y,y,2019_Jul_11_1115,2AFC_task,59.94743813265616,
stimuli/rgb_scene000047_render000000.png,stimuli/rgb_scene000047_render000002.png,0,159,159,22,"[0, 1]",right,1,13,23,f,y,y,2019_Jul_11_1115,2AFC_task,59.94743813265616,
stimuli/rgb_scene000066_render000001.png,stimuli/rgb_scene000066_render000005.png,0,160,160,72,"[1, 0]",left,1,13,23,f,y,y,2019_Jul_11_1115,2AFC_task,59.94743813265616,
stimuli/rgb_scene000042_render000001.png,stimuli/rgb_scene000042_render000006.png,0,161,161,10,"[1, 0]",left,1,13,23,f,y,y,2019_Jul_11_1115,2AFC_task,59.94743813265616,
stimuli/rgb_scene000066_render000000.png,stimuli/rgb_scene000066_render000001.png,0,162,162,63,"[1, 0]",left,1,13,23,f,y,y,2019_Jul_11_1115,2AFC_task,59.94743813265616,
stimuli/rgb_scene000147_render000004.png,stimuli/rgb_scene000147_render000005.png,0,163,163,102,"[0, 1]",right,1,13,23,f,y,y,2019_Jul_11_1115,2AFC_task,59.94743813265616,
stimuli/rgb_scene000056_render000004.png,stimuli/rgb_scene000056_render000006.png,0,164,164,61,"[0, 1]",right,1,13,23,f,y,y,2019_Jul_11_1115,2AFC_task,59.94743813265616,
stimuli/rgb_scene000042_render000004.png,stimuli/rgb_scene000042_render000005.png,0,165,165,18,"[1, 0]",left,1,13,23,f,y,y,2019_Jul_11_1115,2AFC_task,59.94743813265616,
stimuli/rgb_scene000147_render000002.png,stimuli/rgb_scene000147_render000003.png,0,166,166,95,"[0, 1]",right,1,13,23,f,y,y,2019_Jul_11_1115,2AFC_task,59.94743813265616,
stimuli/rgb_scene000160_render000002.png,stimuli/rgb_scene000160_render000004.png,0,167,167,138,"[0, 1]",right,1,13,23,f,y,y,2019_Jul_11_1115,2AFC_task,59.94743813265616,
stimuli/rgb_scene000196_render000005.png,stimuli/rgb_scene000196_render000006.png,0,168,168,209,"[1, 0]",left,1,13,23,f,y,y,2019_Jul_11_1115,2AFC_task,59.94743813265616,
stimuli/rgb_scene000160_render000005.png,stimuli/rgb_scene000160_render000006.png,0,169,169,146,"[1, 0]",left,1,13,23,f,y,y,2019_Jul_11_1115,2AFC_task,59.94743813265616,
stimuli/rgb_scene000147_render000000.png,stimuli/rgb_scene000147_render000006.png,0,170,170,89,"[0, 1]",right,1,13,23,f,y,y,2019_Jul_11_1115,2AFC_task,59.94743813265616,
stimuli/rgb_scene000169_render000004.png,stimuli/rgb_scene000169_render000006.png,0,171,171,187,"[1, 0]",left,1,13,23,f,y,y,2019_Jul_11_1115,2AFC_task,59.94743813265616,
stimuli/rgb_scene000056_render000005.png,stimuli/rgb_scene000056_render000006.png,0,172,172,62,"[1, 0]",left,1,13,23,f,y,y,2019_Jul_11_1115,2AFC_task,59.94743813265616,
stimuli/rgb_scene000169_render000004.png,stimuli/rgb_scene000169_render000005.png,0,173,173,186,"[0, 1]",right,1,13,23,f,y,y,2019_Jul_11_1115,2AFC_task,59.94743813265616,
stimuli/rgb_scene000165_render000001.png,stimuli/rgb_scene000165_render000004.png,0,174,174,155,"[1, 0]",left,1,13,23,f,y,y,2019_Jul_11_1115,2AFC_task,59.94743813265616,
stimuli/rgb_scene000047_render000000.png,stimuli/rgb_scene000047_render000006.png,0,175,175,26,"[0, 1]",right,1,13,23,f,y,y,2019_Jul_11_1115,2AFC_task,59.94743813265616,
stimuli/rgb_scene000165_render000003.png,stimuli/rgb_scene000165_render000005.png,0,176,176,163,"[1, 0]",left,1,13,23,f,y,y,2019_Jul_11_1115,2AFC_task,59.94743813265616,
stimuli/rgb_scene000150_render000004.png,stimuli/rgb_scene000150_render000006.png,0,177,177,124,"[0, 1]",right,1,13,23,f,y,y,2019_Jul_11_1115,2AFC_task,59.94743813265616,
stimuli/rgb_scene000150_render000001.png,stimuli/rgb_scene000150_render000002.png,0,178,178,111,"[0, 1]",right,1,13,23,f,y,y,2019_Jul_11_1115,2AFC_task,59.94743813265616,
stimuli/rgb_scene000066_render000003.png,stimuli/rgb_scene000066_render000006.png,0,179,179,80,"[0, 1]",right,1,13,23,f,y,y,2019_Jul_11_1115,2AFC_task,59.94743813265616,
stimuli/rgb_scene000056_render000001.png,stimuli/rgb_scene000056_render000002.png,0,180,180,48,"[1, 0]",left,1,13,23,f,y,y,2019_Jul_11_1115,2AFC_task,59.94743813265616,
stimuli/rgb_scene000150_render000003.png,stimuli/rgb_scene000150_render000006.png,0,181,181,122,"[1, 0]",left,1,13,23,f,y,y,2019_Jul_11_1115,2AFC_task,59.94743813265616,
stimuli/rgb_scene000150_render000000.png,stimuli/rgb_scene000150_render000001.png,0,182,182,105,"[1, 0]",left,1,13,23,f,y,y,2019_Jul_11_1115,2AFC_task,59.94743813265616,
stimuli/rgb_scene000147_render000002.png,stimuli/rgb_scene000147_render000006.png,0,183,183,98,"[0, 1]",right,1,13,23,f,y,y,2019_Jul_11_1115,2AFC_task,59.94743813265616,
stimuli/rgb_scene000066_render000003.png,stimuli/rgb_scene000066_render000005.png,0,184,184,79,"[1, 0]",left,1,13,23,f,y,y,2019_Jul_11_1115,2AFC_task,59.94743813265616,
stimuli/rgb_scene000160_render000004.png,stimuli/rgb_scene000160_render000006.png,0,185,185,145,"[0, 1]",right,1,13,23,f,y,y,2019_Jul_11_1115,2AFC_task,59.94743813265616,
stimuli/rgb_scene000047_render000001.png,stimuli/rgb_scene000047_render000006.png,0,186,186,31,"[1, 0]",left,1,13,23,f,y,y,2019_Jul_11_1115,2AFC_task,59.94743813265616,
stimuli/rgb_scene000066_render000002.png,stimuli/rgb_scene000066_render000006.png,0,187,187,77,"[0, 1]",right,1,13,23,f,y,y,2019_Jul_11_1115,2AFC_task,59.94743813265616,
stimuli/rgb_scene000150_render000001.png,stimuli/rgb_scene000150_render000006.png,0,188,188,115,"[0, 1]",right,1,13,23,f,y,y,2019_Jul_11_1115,2AFC_task,59.94743813265616,
stimuli/rgb_scene000042_render000002.png,stimuli/rgb_scene000042_render000006.png,0,189,189,14,"[1, 0]",left,1,13,23,f,y,y,2019_Jul_11_1115,2AFC_task,59.94743813265616,
stimuli/rgb_scene000042_render000000.png,stimuli/rgb_scene000042_render000002.png,0,190,190,1,"[1, 0]",left,1,13,23,f,y,y,2019_Jul_11_1115,2AFC_task,59.94743813265616,
stimuli/rgb_scene000066_render000000.png,stimuli/rgb_scene000066_render000002.png,0,191,191,64,"[0, 1]",right,1,13,23,f,y,y,2019_Jul_11_1115,2AFC_task,59.94743813265616,
stimuli/rgb_scene000196_render000004.png,stimuli/rgb_scene000196_render000005.png,0,192,192,207,"[1, 0]",left,1,13,23,f,y,y,2019_Jul_11_1115,2AFC_task,59.94743813265616,
stimuli/rgb_scene000056_render000003.png,stimuli/rgb_scene000056_render000005.png,0,193,193,58,"[1, 0]",left,1,13,23,f,y,y,2019_Jul_11_1115,2AFC_task,59.94743813265616,
stimuli/rgb_scene000160_render000002.png,stimuli/rgb_scene000160_render000006.png,0,194,194,140,"[1, 0]",left,1,13,23,f,y,y,2019_Jul_11_1115,2AFC_task,59.94743813265616,
stimuli/rgb_scene000196_render000002.png,stimuli/rgb_scene000196_render000004.png,0,195,195,201,"[1, 0]",right,0,13,23,f,y,y,2019_Jul_11_1115,2AFC_task,59.94743813265616,
stimuli/rgb_scene000066_render000001.png,stimuli/rgb_scene000066_render000003.png,0,196,196,70,"[1, 0]",left,1,13,23,f,y,y,2019_Jul_11_1115,2AFC_task,59.94743813265616,
stimuli/rgb_scene000169_render000002.png,stimuli/rgb_scene000169_render000005.png,0,197,197,181,"[0, 1]",right,1,13,23,f,y,y,2019_Jul_11_1115,2AFC_task,59.94743813265616,
stimuli/rgb_scene000165_render000002.png,stimuli/rgb_scene000165_render000004.png,0,198,198,159,"[1, 0]",left,1,13,23,f,y,y,2019_Jul_11_1115,2AFC_task,59.94743813265616,
stimuli/rgb_scene000150_render000004.png,stimuli/rgb_scene000150_render000005.png,0,199,199,123,"[0, 1]",left,0,13,23,f,y,y,2019_Jul_11_1115,2AFC_task,59.94743813265616,
stimuli/rgb_scene000056_render000000.png,stimuli/rgb_scene000056_render000006.png,0,200,200,47,"[1, 0]",left,1,13,23,f,y,y,2019_Jul_11_1115,2AFC_task,59.94743813265616,
stimuli/rgb_scene000196_render000001.png,stimuli/rgb_scene000196_render000002.png,0,201,201,195,"[1, 0]",right,0,13,23,f,y,y,2019_Jul_11_1115,2AFC_task,59.94743813265616,
stimuli/rgb_scene000066_render000001.png,stimuli/rgb_scene000066_render000004.png,0,202,202,71,"[1, 0]",left,1,13,23,f,y,y,2019_Jul_11_1115,2AFC_task,59.94743813265616,
stimuli/rgb_scene000042_render000000.png,stimuli/rgb_scene000042_render000003.png,0,203,203,2,"[1, 0]",left,1,13,23,f,y,y,2019_Jul_11_1115,2AFC_task,59.94743813265616,
stimuli/rgb_scene000165_render000000.png,stimuli/rgb_scene000165_render000005.png,0,204,204,151,"[1, 0]",left,1,13,23,f,y,y,2019_Jul_11_1115,2AFC_task,59.94743813265616,
stimuli/rgb_scene000042_render000004.png,stimuli/rgb_scene000042_render000006.png,0,205,205,19,"[1, 0]",left,1,13,23,f,y,y,2019_Jul_11_1115,2AFC_task,59.94743813265616,
stimuli/rgb_scene000056_render000000.png,stimuli/rgb_scene000056_render000004.png,0,206,206,45,"[0, 1]",right,1,13,23,f,y,y,2019_Jul_11_1115,2AFC_task,59.94743813265616,
stimuli/rgb_scene000165_render000002.png,stimuli/rgb_scene000165_render000003.png,0,207,207,158,"[1, 0]",left,1,13,23,f,y,y,2019_Jul_11_1115,2AFC_task,59.94743813265616,
stimuli/rgb_scene000066_render000000.png,stimuli/rgb_scene000066_render000006.png,0,208,208,68,"[0, 1]",right,1,13,23,f,y,y,2019_Jul_11_1115,2AFC_task,59.94743813265616,
stimuli/rgb_scene000169_render000002.png,stimuli/rgb_scene000169_render000004.png,0,209,209,180,"[1, 0]",left,1,13,23,f,y,y,2019_Jul_11_1115,2AFC_task,59.94743813265616,
stimuli/rgb_scene000196_render000003.png,stimuli/rgb_scene000196_render000005.png,1,0,210,205,"[1, 0]",right,0,13,23,f,y,y,2019_Jul_11_1115,2AFC_task,59.94743813265616,
stimuli/rgb_scene000160_render000000.png,stimuli/rgb_scene000160_render000005.png,1,1,211,130,"[0, 1]",right,1,13,23,f,y,y,2019_Jul_11_1115,2AFC_task,59.94743813265616,
stimuli/rgb_scene000056_render000002.png,stimuli/rgb_scene000056_render000003.png,1,2,212,53,"[1, 0]",left,1,13,23,f,y,y,2019_Jul_11_1115,2AFC_task,59.94743813265616,
stimuli/rgb_scene000056_render000001.png,stimuli/rgb_scene000056_render000004.png,1,3,213,50,"[1, 0]",left,1,13,23,f,y,y,2019_Jul_11_1115,2AFC_task,59.94743813265616,
stimuli/rgb_scene000196_render000005.png,stimuli/rgb_scene000196_render000006.png,1,4,214,209,"[0, 1]",right,1,13,23,f,y,y,2019_Jul_11_1115,2AFC_task,59.94743813265616,
stimuli/rgb_scene000150_render000000.png,stimuli/rgb_scene000150_render000004.png,1,5,215,108,"[1, 0]",left,1,13,23,f,y,y,2019_Jul_11_1115,2AFC_task,59.94743813265616,
stimuli/rgb_scene000042_render000001.png,stimuli/rgb_scene000042_render000002.png,1,6,216,6,"[0, 1]",right,1,13,23,f,y,y,2019_Jul_11_1115,2AFC_task,59.94743813265616,
stimuli/rgb_scene000042_render000000.png,stimuli/rgb_scene000042_render000001.png,1,7,217,0,"[0, 1]",right,1,13,23,f,y,y,2019_Jul_11_1115,2AFC_task,59.94743813265616,
stimuli/rgb_scene000056_render000001.png,stimuli/rgb_scene000056_render000003.png,1,8,218,49,"[0, 1]",right,1,13,23,f,y,y,2019_Jul_11_1115,2AFC_task,59.94743813265616,
stimuli/rgb_scene000169_render000001.png,stimuli/rgb_scene000169_render000002.png,1,9,219,174,"[1, 0]",right,0,13,23,f,y,y,2019_Jul_11_1115,2AFC_task,59.94743813265616,
stimuli/rgb_scene000196_render000002.png,stimuli/rgb_scene000196_render000006.png,1,10,220,203,"[1, 0]",right,0,13,23,f,y,y,2019_Jul_11_1115,2AFC_task,59.94743813265616,
stimuli/rgb_scene000165_render000005.png,stimuli/rgb_scene000165_render000006.png,1,11,221,167,"[1, 0]",left,1,13,23,f,y,y,2019_Jul_11_1115,2AFC_task,59.94743813265616,
stimuli/rgb_scene000047_render000000.png,stimuli/rgb_scene000047_render000006.png,1,12,222,26,"[0, 1]",right,1,13,23,f,y,y,2019_Jul_11_1115,2AFC_task,59.94743813265616,
stimuli/rgb_scene000160_render000003.png,stimuli/rgb_scene000160_render000004.png,1,13,223,141,"[0, 1]",left,0,13,23,f,y,y,2019_Jul_11_1115,2AFC_task,59.94743813265616,
stimuli/rgb_scene000160_render000000.png,stimuli/rgb_scene000160_render000002.png,1,14,224,127,"[0, 1]",right,1,13,23,f,y,y,2019_Jul_11_1115,2AFC_task,59.94743813265616,
stimuli/rgb_scene000066_render000003.png,stimuli/rgb_scene000066_render000004.png,1,15,225,78,"[1, 0]",left,1,13,23,f,y,y,2019_Jul_11_1115,2AFC_task,59.94743813265616,
stimuli/rgb_scene000169_render000001.png,stimuli/rgb_scene000169_render000005.png,1,16,226,177,"[0, 1]",right,1,13,23,f,y,y,2019_Jul_11_1115,2AFC_task,59.94743813265616,
stimuli/rgb_scene000042_render000003.png,stimuli/rgb_scene000042_render000005.png,1,17,227,16,"[1, 0]",left,1,13,23,f,y,y,2019_Jul_11_1115,2AFC_task,59.94743813265616,
stimuli/rgb_scene000056_render000005.png,stimuli/rgb_scene000056_render000006.png,1,18,228,62,"[1, 0]",left,1,13,23,f,y,y,2019_Jul_11_1115,2AFC_task,59.94743813265616,
stimuli/rgb_scene000056_render000000.png,stimuli/rgb_scene000056_render000005.png,1,19,229,46,"[1, 0]",left,1,13,23,f,y,y,2019_Jul_11_1115,2AFC_task,59.94743813265616,
stimuli/rgb_scene000165_render000001.png,stimuli/rgb_scene000165_render000005.png,1,20,230,156,"[1, 0]",left,1,13,23,f,y,y,2019_Jul_11_1115,2AFC_task,59.94743813265616,
stimuli/rgb_scene000047_render000000.png,stimuli/rgb_scene000047_render000002.png,1,21,231,22,"[1, 0]",left,1,13,23,f,y,y,2019_Jul_11_1115,2AFC_task,59.94743813265616,
stimuli/rgb_scene000047_render000004.png,stimuli/rgb_scene000047_render000006.png,1,22,232,40,"[0, 1]",right,1,13,23,f,y,y,2019_Jul_11_1115,2AFC_task,59.94743813265616,
stimuli/rgb_scene000047_render000003.png,stimuli/rgb_scene000047_render000006.png,1,23,233,38,"[1, 0]",left,1,13,23,f,y,y,2019_Jul_11_1115,2AFC_task,59.94743813265616,
stimuli/rgb_scene000066_render000002.png,stimuli/rgb_scene000066_render000004.png,1,24,234,75,"[0, 1]",right,1,13,23,f,y,y,2019_Jul_11_1115,2AFC_task,59.94743813265616,
stimuli/rgb_scene000147_render000000.png,stimuli/rgb_scene000147_render000005.png,1,25,235,88,"[0, 1]",right,1,13,23,f,y,y,2019_Jul_11_1115,2AFC_task,59.94743813265616,
stimuli/rgb_scene000150_render000003.png,stimuli/rgb_scene000150_render000004.png,1,26,236,120,"[1, 0]",left,1,13,23,f,y,y,2019_Jul_11_1115,2AFC_task,59.94743813265616,
stimuli/rgb_scene000147_render000003.png,stimuli/rgb_scene000147_render000006.png,1,27,237,101,"[0, 1]",right,1,13,23,f,y,y,2019_Jul_11_1115,2AFC_task,59.94743813265616,
stimuli/rgb_scene000196_render000001.png,stimuli/rgb_scene000196_render000002.png,1,28,238,195,"[1, 0]",right,0,13,23,f,y,y,2019_Jul_11_1115,2AFC_task,59.94743813265616,
stimuli/rgb_scene000047_render000000.png,stimuli/rgb_scene000047_render000003.png,1,29,239,23,"[1, 0]",left,1,13,23,f,y,y,2019_Jul_11_1115,2AFC_task,59.94743813265616,
stimuli/rgb_scene000165_render000003.png,stimuli/rgb_scene000165_render000006.png,1,30,240,164,"[0, 1]",right,1,13,23,f,y,y,2019_Jul_11_1115,2AFC_task,59.94743813265616,
stimuli/rgb_scene000160_render000002.png,stimuli/rgb_scene000160_render000005.png,1,31,241,139,"[0, 1]",right,1,13,23,f,y,y,2019_Jul_11_1115,2AFC_task,59.94743813265616,
stimuli/rgb_scene000150_render000003.png,stimuli/rgb_scene000150_render000006.png,1,32,242,122,"[0, 1]",right,1,13,23,f,y,y,2019_Jul_11_1115,2AFC_task,59.94743813265616,
stimuli/rgb_scene000056_render000003.png,stimuli/rgb_scene000056_render000005.png,1,33,243,58,"[0, 1]",right,1,13,23,f,y,y,2019_Jul_11_1115,2AFC_task,59.94743813265616,
stimuli/rgb_scene000066_render000000.png,stimuli/rgb_scene000066_render000004.png,1,34,244,66,"[1, 0]",left,1,13,23,f,y,y,2019_Jul_11_1115,2AFC_task,59.94743813265616,
stimuli/rgb_scene000165_render000001.png,stimuli/rgb_scene000165_render000004.png,1,35,245,155,"[1, 0]",left,1,13,23,f,y,y,2019_Jul_11_1115,2AFC_task,59.94743813265616,
stimuli/rgb_scene000150_render000001.png,stimuli/rgb_scene000150_render000006.png,1,36,246,115,"[1, 0]",left,1,13,23,f,y,y,2019_Jul_11_1115,2AFC_task,59.94743813265616,
stimuli/rgb_scene000150_render000000.png,stimuli/rgb_scene000150_render000002.png,1,37,247,106,"[1, 0]",left,1,13,23,f,y,y,2019_Jul_11_1115,2AFC_task,59.94743813265616,
stimuli/rgb_scene000147_render000002.png,stimuli/rgb_scene000147_render000003.png,1,38,248,95,"[0, 1]",right,1,13,23,f,y,y,2019_Jul_11_1115,2AFC_task,59.94743813265616,
stimuli/rgb_scene000150_render000002.png,stimuli/rgb_scene000150_render000004.png,1,39,249,117,"[0, 1]",right,1,13,23,f,y,y,2019_Jul_11_1115,2AFC_task,59.94743813265616,
stimuli/rgb_scene000047_render000005.png,stimuli/rgb_scene000047_render000006.png,1,40,250,41,"[0, 1]",right,1,13,23,f,y,y,2019_Jul_11_1115,2AFC_task,59.94743813265616,
stimuli/rgb_scene000169_render000001.png,stimuli/rgb_scene000169_render000006.png,1,41,251,178,"[1, 0]",left,1,13,23,f,y,y,2019_Jul_11_1115,2AFC_task,59.94743813265616,
stimuli/rgb_scene000042_render000001.png,stimuli/rgb_scene000042_render000003.png,1,42,252,7,"[1, 0]",left,1,13,23,f,y,y,2019_Jul_11_1115,2AFC_task,59.94743813265616,
stimuli/rgb_scene000066_render000001.png,stimuli/rgb_scene000066_render000003.png,1,43,253,70,"[0, 1]",right,1,13,23,f,y,y,2019_Jul_11_1115,2AFC_task,59.94743813265616,
stimuli/rgb_scene000165_render000000.png,stimuli/rgb_scene000165_render000004.png,1,44,254,150,"[0, 1]",right,1,13,23,f,y,y,2019_Jul_11_1115,2AFC_task,59.94743813265616,
stimuli/rgb_scene000196_render000003.png,stimuli/rgb_scene000196_render000004.png,1,45,255,204,"[0, 1]",right,1,13,23,f,y,y,2019_Jul_11_1115,2AFC_task,59.94743813265616,
stimuli/rgb_scene000165_render000004.png,stimuli/rgb_scene000165_render000006.png,1,46,256,166,"[1, 0]",left,1,13,23,f,y,y,2019_Jul_11_1115,2AFC_task,59.94743813265616,
stimuli/rgb_scene000165_render000000.png,stimuli/rgb_scene000165_render000006.png,1,47,257,152,"[0, 1]",right,1,13,23,f,y,y,2019_Jul_11_1115,2AFC_task,59.94743813265616,
stimuli/rgb_scene000165_render000002.png,stimuli/rgb_scene000165_render000004.png,1,48,258,159,"[1, 0]",left,1,13,23,f,y,y,2019_Jul_11_1115,2AFC_task,59.94743813265616,
stimuli/rgb_scene000047_render000004.png,stimuli/rgb_scene000047_render000005.png,1,49,259,39,"[0, 1]",right,1,13,23,f,y,y,2019_Jul_11_1115,2AFC_task,59.94743813265616,
stimuli/rgb_scene000196_render000002.png,stimuli/rgb_scene000196_render000005.png,1,50,260,202,"[1, 0]",right,0,13,23,f,y,y,2019_Jul_11_1115,2AFC_task,59.94743813265616,
stimuli/rgb_scene000047_render000001.png,stimuli/rgb_scene000047_render000003.png,1,51,261,28,"[0, 1]",right,1,13,23,f,y,y,2019_Jul_11_1115,2AFC_task,59.94743813265616,
stimuli/rgb_scene000165_render000001.png,stimuli/rgb_scene000165_render000003.png,1,52,262,154,"[1, 0]",left,1,13,23,f,y,y,2019_Jul_11_1115,2AFC_task,59.94743813265616,
stimuli/rgb_scene000196_render000002.png,stimuli/rgb_scene000196_render000004.png,1,53,263,201,"[0, 1]",right,1,13,23,f,y,y,2019_Jul_11_1115,2AFC_task,59.94743813265616,
stimuli/rgb_scene000042_render000004.png,stimuli/rgb_scene000042_render000006.png,1,54,264,19,"[0, 1]",right,1,13,23,f,y,y,2019_Jul_11_1115,2AFC_task,59.94743813265616,
stimuli/rgb_scene000169_render000000.png,stimuli/rgb_scene000169_render000005.png,1,55,265,172,"[0, 1]",right,1,13,23,f,y,y,2019_Jul_11_1115,2AFC_task,59.94743813265616,
stimuli/rgb_scene000196_render000000.png,stimuli/rgb_scene000196_render000005.png,1,56,266,193,"[0, 1]",left,0,13,23,f,y,y,2019_Jul_11_1115,2AFC_task,59.94743813265616,
stimuli/rgb_scene000150_render000000.png,stimuli/rgb_scene000150_render000003.png,1,57,267,107,"[1, 0]",left,1,13,23,f,y,y,2019_Jul_11_1115,2AFC_task,59.94743813265616,
stimuli/rgb_scene000056_render000002.png,stimuli/rgb_scene000056_render000005.png,1,58,268,55,"[0, 1]",right,1,13,23,f,y,y,2019_Jul_11_1115,2AFC_task,59.94743813265616,
stimuli/rgb_scene000066_render000002.png,stimuli/rgb_scene000066_render000005.png,1,59,269,76,"[1, 0]",left,1,13,23,f,y,y,2019_Jul_11_1115,2AFC_task,59.94743813265616,
stimuli/rgb_scene000165_render000004.png,stimuli/rgb_scene000165_render000005.png,1,60,270,165,"[1, 0]",left,1,13,23,f,y,y,2019_Jul_11_1115,2AFC_task,59.94743813265616,
stimuli/rgb_scene000042_render000001.png,stimuli/rgb_scene000042_render000005.png,1,61,271,9,"[1, 0]",left,1,13,23,f,y,y,2019_Jul_11_1115,2AFC_task,59.94743813265616,
stimuli/rgb_scene000169_render000000.png,stimuli/rgb_scene000169_render000001.png,1,62,272,168,"[1, 0]",left,1,13,23,f,y,y,2019_Jul_11_1115,2AFC_task,59.94743813265616,
stimuli/rgb_scene000066_render000003.png,stimuli/rgb_scene000066_render000005.png,1,63,273,79,"[0, 1]",right,1,13,23,f,y,y,2019_Jul_11_1115,2AFC_task,59.94743813265616,
stimuli/rgb_scene000147_render000001.png,stimuli/rgb_scene000147_render000002.png,1,64,274,90,"[1, 0]",left,1,13,23,f,y,y,2019_Jul_11_1115,2AFC_task,59.94743813265616,
stimuli/rgb_scene000066_render000001.png,stimuli/rgb_scene000066_render000005.png,1,65,275,72,"[0, 1]",right,1,13,23,f,y,y,2019_Jul_11_1115,2AFC_task,59.94743813265616,
stimuli/rgb_scene000150_render000004.png,stimuli/rgb_scene000150_render000005.png,1,66,276,123,"[1, 0]",left,1,13,23,f,y,y,2019_Jul_11_1115,2AFC_task,59.94743813265616,
stimuli/rgb_scene000160_render000003.png,stimuli/rgb_scene000160_render000006.png,1,67,277,143,"[0, 1]",right,1,13,23,f,y,y,2019_Jul_11_1115,2AFC_task,59.94743813265616,
stimuli/rgb_scene000160_render000003.png,stimuli/rgb_scene000160_render000005.png,1,68,278,142,"[0, 1]",right,1,13,23,f,y,y,2019_Jul_11_1115,2AFC_task,59.94743813265616,
stimuli/rgb_scene000066_render000000.png,stimuli/rgb_scene000066_render000002.png,1,69,279,64,"[0, 1]",right,1,13,23,f,y,y,2019_Jul_11_1115,2AFC_task,59.94743813265616,
stimuli/rgb_scene000169_render000003.png,stimuli/rgb_scene000169_render000004.png,1,70,280,183,"[0, 1]",right,1,13,23,f,y,y,2019_Jul_11_1115,2AFC_task,59.94743813265616,
stimuli/rgb_scene000066_render000000.png,stimuli/rgb_scene000066_render000003.png,1,71,281,65,"[1, 0]",left,1,13,23,f,y,y,2019_Jul_11_1115,2AFC_task,59.94743813265616,
stimuli/rgb_scene000047_render000001.png,stimuli/rgb_scene000047_render000005.png,1,72,282,30,"[0, 1]",right,1,13,23,f,y,y,2019_Jul_11_1115,2AFC_task,59.94743813265616,
stimuli/rgb_scene000066_render000004.png,stimuli/rgb_scene000066_render000005.png,1,73,283,81,"[1, 0]",left,1,13,23,f,y,y,2019_Jul_11_1115,2AFC_task,59.94743813265616,
stimuli/rgb_scene000042_render000005.png,stimuli/rgb_scene000042_render000006.png,1,74,284,20,"[0, 1]",right,1,13,23,f,y,y,2019_Jul_11_1115,2AFC_task,59.94743813265616,
stimuli/rgb_scene000066_render000001.png,stimuli/rgb_scene000066_render000004.png,1,75,285,71,"[1, 0]",left,1,13,23,f,y,y,2019_Jul_11_1115,2AFC_task,59.94743813265616,
stimuli/rgb_scene000165_render000000.png,stimuli/rgb_scene000165_render000001.png,1,76,286,147,"[0, 1]",right,1,13,23,f,y,y,2019_Jul_11_1115,2AFC_task,59.94743813265616,
stimuli/rgb_scene000169_render000000.png,stimuli/rgb_scene000169_render000006.png,1,77,287,173,"[1, 0]",left,1,13,23,f,y,y,2019_Jul_11_1115,2AFC_task,59.94743813265616,
stimuli/rgb_scene000047_render000001.png,stimuli/rgb_scene000047_render000002.png,1,78,288,27,"[0, 1]",right,1,13,23,f,y,y,2019_Jul_11_1115,2AFC_task,59.94743813265616,
stimuli/rgb_scene000150_render000002.png,stimuli/rgb_scene000150_render000006.png,1,79,289,119,"[1, 0]",left,1,13,23,f,y,y,2019_Jul_11_1115,2AFC_task,59.94743813265616,
stimuli/rgb_scene000042_render000002.png,stimuli/rgb_scene000042_render000003.png,1,80,290,11,"[0, 1]",right,1,13,23,f,y,y,2019_Jul_11_1115,2AFC_task,59.94743813265616,
stimuli/rgb_scene000147_render000004.png,stimuli/rgb_scene000147_render000005.png,1,81,291,102,"[1, 0]",left,1,13,23,f,y,y,2019_Jul_11_1115,2AFC_task,59.94743813265616,
stimuli/rgb_scene000147_render000001.png,stimuli/rgb_scene000147_render000004.png,1,82,292,92,"[0, 1]",right,1,13,23,f,y,y,2019_Jul_11_1115,2AFC_task,59.94743813265616,
stimuli/rgb_scene000165_render000001.png,stimuli/rgb_scene000165_render000006.png,1,83,293,157,"[0, 1]",right,1,13,23,f,y,y,2019_Jul_11_1115,2AFC_task,59.94743813265616,
stimuli/rgb_scene000169_render000003.png,stimuli/rgb_scene000169_render000006.png,1,84,294,185,"[0, 1]",right,1,13,23,f,y,y,2019_Jul_11_1115,2AFC_task,59.94743813265616,
stimuli/rgb_scene000169_render000001.png,stimuli/rgb_scene000169_render000003.png,1,85,295,175,"[1, 0]",right,0,13,23,f,y,y,2019_Jul_11_1115,2AFC_task,59.94743813265616,
stimuli/rgb_scene000147_render000002.png,stimuli/rgb_scene000147_render000006.png,1,86,296,98,"[0, 1]",right,1,13,23,f,y,y,2019_Jul_11_1115,2AFC_task,59.94743813265616,
stimuli/rgb_scene000147_render000005.png,stimuli/rgb_scene000147_render000006.png,1,87,297,104,"[0, 1]",right,1,13,23,f,y,y,2019_Jul_11_1115,2AFC_task,59.94743813265616,
stimuli/rgb_scene000150_render000000.png,stimuli/rgb_scene000150_render000005.png,1,88,298,109,"[1, 0]",left,1,13,23,f,y,y,2019_Jul_11_1115,2AFC_task,59.94743813265616,
stimuli/rgb_scene000150_render000005.png,stimuli/rgb_scene000150_render000006.png,1,89,299,125,"[1, 0]",right,0,13,23,f,y,y,2019_Jul_11_1115,2AFC_task,59.94743813265616,
stimuli/rgb_scene000169_render000000.png,stimuli/rgb_scene000169_render000003.png,1,90,300,170,"[1, 0]",left,1,13,23,f,y,y,2019_Jul_11_1115,2AFC_task,59.94743813265616,
stimuli/rgb_scene000047_render000000.png,stimuli/rgb_scene000047_render000004.png,1,91,301,24,"[1, 0]",left,1,13,23,f,y,y,2019_Jul_11_1115,2AFC_task,59.94743813265616,
stimuli/rgb_scene000056_render000002.png,stimuli/rgb_scene000056_render000006.png,1,92,302,56,"[0, 1]",right,1,13,23,f,y,y,2019_Jul_11_1115,2AFC_task,59.94743813265616,
stimuli/rgb_scene000147_render000003.png,stimuli/rgb_scene000147_render000005.png,1,93,303,100,"[1, 0]",left,1,13,23,f,y,y,2019_Jul_11_1115,2AFC_task,59.94743813265616,
stimuli/rgb_scene000042_render000002.png,stimuli/rgb_scene000042_render000006.png,1,94,304,14,"[0, 1]",right,1,13,23,f,y,y,2019_Jul_11_1115,2AFC_task,59.94743813265616,
stimuli/rgb_scene000056_render000000.png,stimuli/rgb_scene000056_render000002.png,1,95,305,43,"[1, 0]",left,1,13,23,f,y,y,2019_Jul_11_1115,2AFC_task,59.94743813265616,
stimuli/rgb_scene000160_render000001.png,stimuli/rgb_scene000160_render000005.png,1,96,306,135,"[0, 1]",right,1,13,23,f,y,y,2019_Jul_11_1115,2AFC_task,59.94743813265616,
stimuli/rgb_scene000042_render000001.png,stimuli/rgb_scene000042_render000006.png,1,97,307,10,"[0, 1]",right,1,13,23,f,y,y,2019_Jul_11_1115,2AFC_task,59.94743813265616,
stimuli/rgb_scene000066_render000001.png,stimuli/rgb_scene000066_render000006.png,1,98,308,73,"[1, 0]",left,1,13,23,f,y,y,2019_Jul_11_1115,2AFC_task,59.94743813265616,
stimuli/rgb_scene000165_render000002.png,stimuli/rgb_scene000165_render000006.png,1,99,309,161,"[0, 1]",right,1,13,23,f,y,y,2019_Jul_11_1115,2AFC_task,59.94743813265616,
stimuli/rgb_scene000066_render000001.png,stimuli/rgb_scene000066_render000002.png,1,100,310,69,"[0, 1]",right,1,13,23,f,y,y,2019_Jul_11_1115,2AFC_task,59.94743813265616,
stimuli/rgb_scene000147_render000000.png,stimuli/rgb_scene000147_render000003.png,1,101,311,86,"[1, 0]",left,1,13,23,f,y,y,2019_Jul_11_1115,2AFC_task,59.94743813265616,
stimuli/rgb_scene000147_render000000.png,stimuli/rgb_scene000147_render000004.png,1,102,312,87,"[1, 0]",left,1,13,23,f,y,y,2019_Jul_11_1115,2AFC_task,59.94743813265616,
stimuli/rgb_scene000066_render000000.png,stimuli/rgb_scene000066_render000005.png,1,103,313,67,"[0, 1]",right,1,13,23,f,y,y,2019_Jul_11_1115,2AFC_task,59.94743813265616,
stimuli/rgb_scene000160_render000000.png,stimuli/rgb_scene000160_render000006.png,1,104,314,131,"[0, 1]",right,1,13,23,f,y,y,2019_Jul_11_1115,2AFC_task,59.94743813265616,
stimuli/rgb_scene000165_render000003.png,stimuli/rgb_scene000165_render000004.png,1,105,315,162,"[1, 0]",left,1,13,23,f,y,y,2019_Jul_11_1115,2AFC_task,59.94743813265616,
stimuli/rgb_scene000150_render000000.png,stimuli/rgb_scene000150_render000006.png,1,106,316,110,"[0, 1]",right,1,13,23,f,y,y,2019_Jul_11_1115,2AFC_task,59.94743813265616,
stimuli/rgb_scene000056_render000000.png,stimuli/rgb_scene000056_render000003.png,1,107,317,44,"[1, 0]",left,1,13,23,f,y,y,2019_Jul_11_1115,2AFC_task,59.94743813265616,
stimuli/rgb_scene000196_render000000.png,stimuli/rgb_scene000196_render000003.png,1,108,318,191,"[0, 1]",left,0,13,23,f,y,y,2019_Jul_11_1115,2AFC_task,59.94743813265616,
stimuli/rgb_scene000165_render000002.png,stimuli/rgb_scene000165_render000003.png,1,109,319,158,"[0, 1]",right,1,13,23,f,y,y,2019_Jul_11_1115,2AFC_task,59.94743813265616,
stimuli/rgb_scene000042_render000000.png,stimuli/rgb_scene000042_render000005.png,1,110,320,4,"[1, 0]",left,1,13,23,f,y,y,2019_Jul_11_1115,2AFC_task,59.94743813265616,
stimuli/rgb_scene000196_render000000.png,stimuli/rgb_scene000196_render000006.png,1,111,321,194,"[0, 1]",left,0,13,23,f,y,y,2019_Jul_11_1115,2AFC_task,59.94743813265616,
stimuli/rgb_scene000150_render000003.png,stimuli/rgb_scene000150_render000005.png,1,112,322,121,"[1, 0]",left,1,13,23,f,y,y,2019_Jul_11_1115,2AFC_task,59.94743813265616,
stimuli/rgb_scene000147_render000000.png,stimuli/rgb_scene000147_render000002.png,1,113,323,85,"[0, 1]",right,1,13,23,f,y,y,2019_Jul_11_1115,2AFC_task,59.94743813265616,
stimuli/rgb_scene000160_render000002.png,stimuli/rgb_scene000160_render000004.png,1,114,324,138,"[0, 1]",right,1,13,23,f,y,y,2019_Jul_11_1115,2AFC_task,59.94743813265616,
stimuli/rgb_scene000066_render000005.png,stimuli/rgb_scene000066_render000006.png,1,115,325,83,"[1, 0]",left,1,13,23,f,y,y,2019_Jul_11_1115,2AFC_task,59.94743813265616,
stimuli/rgb_scene000147_render000002.png,stimuli/rgb_scene000147_render000004.png,1,116,326,96,"[1, 0]",left,1,13,23,f,y,y,2019_Jul_11_1115,2AFC_task,59.94743813265616,
stimuli/rgb_scene000042_render000003.png,stimuli/rgb_scene000042_render000004.png,1,117,327,15,"[0, 1]",right,1,13,23,f,y,y,2019_Jul_11_1115,2AFC_task,59.94743813265616,
stimuli/rgb_scene000169_render000001.png,stimuli/rgb_scene000169_render000004.png,1,118,328,176,"[1, 0]",right,0,13,23,f,y,y,2019_Jul_11_1115,2AFC_task,59.94743813265616,
stimuli/rgb_scene000056_render000001.png,stimuli/rgb_scene000056_render000002.png,1,119,329,48,"[1, 0]",left,1,13,23,f,y,y,2019_Jul_11_1115,2AFC_task,59.94743813265616,
stimuli/rgb_scene000196_render000003.png,stimuli/rgb_scene000196_render000006.png,1,120,330,206,"[0, 1]",left,0,13,23,f,y,y,2019_Jul_11_1115,2AFC_task,59.94743813265616,
stimuli/rgb_scene000165_render000000.png,stimuli/rgb_scene000165_render000005.png,1,121,331,151,"[0, 1]",right,1,13,23,f,y,y,2019_Jul_11_1115,2AFC_task,59.94743813265616,
stimuli/rgb_scene000047_render000002.png,stimuli/rgb_scene000047_render000006.png,1,122,332,35,"[0, 1]",right,1,13,23,f,y,y,2019_Jul_11_1115,2AFC_task,59.94743813265616,
stimuli/rgb_scene000042_render000001.png,stimuli/rgb_scene000042_render000004.png,1,123,333,8,"[0, 1]",right,1,13,23,f,y,y,2019_Jul_11_1115,2AFC_task,59.94743813265616,
stimuli/rgb_scene000169_render000002.png,stimuli/rgb_scene000169_render000005.png,1,124,334,181,"[1, 0]",right,0,13,23,f,y,y,2019_Jul_11_1115,2AFC_task,59.94743813265616,
stimuli/rgb_scene000047_render000000.png,stimuli/rgb_scene000047_render000001.png,1,125,335,21,"[1, 0]",left,1,13,23,f,y,y,2019_Jul_11_1115,2AFC_task,59.94743813265616,
stimuli/rgb_scene000169_render000002.png,stimuli/rgb_scene000169_render000003.png,1,126,336,179,"[1, 0]",right,0,13,23,f,y,y,2019_Jul_11_1115,2AFC_task,59.94743813265616,
stimuli/rgb_scene000150_render000000.png,stimuli/rgb_scene000150_render000001.png,1,127,337,105,"[1, 0]",left,1,13,23,f,y,y,2019_Jul_11_1115,2AFC_task,59.94743813265616,
stimuli/rgb_scene000196_render000002.png,stimuli/rgb_scene000196_render000003.png,1,128,338,200,"[0, 1]",right,1,13,23,f,y,y,2019_Jul_11_1115,2AFC_task,59.94743813265616,
stimuli/rgb_scene000066_render000000.png,stimuli/rgb_scene000066_render000001.png,1,129,339,63,"[0, 1]",right,1,13,23,f,y,y,2019_Jul_11_1115,2AFC_task,59.94743813265616,
stimuli/rgb_scene000150_render000002.png,stimuli/rgb_scene000150_render000005.png,1,130,340,118,"[1, 0]",left,1,13,23,f,y,y,2019_Jul_11_1115,2AFC_task,59.94743813265616,
stimuli/rgb_scene000196_render000000.png,stimuli/rgb_scene000196_render000002.png,1,131,341,190,"[1, 0]",right,0,13,23,f,y,y,2019_Jul_11_1115,2AFC_task,59.94743813265616,
stimuli/rgb_scene000147_render000002.png,stimuli/rgb_scene000147_render000005.png,1,132,342,97,"[1, 0]",left,1,13,23,f,y,y,2019_Jul_11_1115,2AFC_task,59.94743813265616,
stimuli/rgb_scene000147_render000000.png,stimuli/rgb_scene000147_render000001.png,1,133,343,84,"[1, 0]",left,1,13,23,f,y,y,2019_Jul_11_1115,2AFC_task,59.94743813265616,
stimuli/rgb_scene000150_render000002.png,stimuli/rgb_scene000150_render000003.png,1,134,344,116,"[1, 0]",left,1,13,23,f,y,y,2019_Jul_11_1115,2AFC_task,59.94743813265616,
stimuli/rgb_scene000165_render000001.png,stimuli/rgb_scene000165_render000002.png,1,135,345,153,"[0, 1]",right,1,13,23,f,y,y,2019_Jul_11_1115,2AFC_task,59.94743813265616,
stimuli/rgb_scene000056_render000000.png,stimuli/rgb_scene000056_render000006.png,1,136,346,47,"[1, 0]",left,1,13,23,f,y,y,2019_Jul_11_1115,2AFC_task,59.94743813265616,
stimuli/rgb_scene000196_render000000.png,stimuli/rgb_scene000196_render000001.png,1,137,347,189,"[0, 1]",left,0,13,23,f,y,y,2019_Jul_11_1115,2AFC_task,59.94743813265616,
stimuli/rgb_scene000150_render000001.png,stimuli/rgb_scene000150_render000002.png,1,138,348,111,"[1, 0]",left,1,13,23,f,y,y,2019_Jul_11_1115,2AFC_task,59.94743813265616,
stimuli/rgb_scene000196_render000001.png,stimuli/rgb_scene000196_render000005.png,1,139,349,198,"[1, 0]",right,0,13,23,f,y,y,2019_Jul_11_1115,2AFC_task,59.94743813265616,
stimuli/rgb_scene000047_render000003.png,stimuli/rgb_scene000047_render000004.png,1,140,350,36,"[0, 1]",right,1,13,23,f,y,y,2019_Jul_11_1115,2AFC_task,59.94743813265616,
stimuli/rgb_scene000196_render000000.png,stimuli/rgb_scene000196_render000004.png,1,141,351,192,"[1, 0]",right,0,13,23,f,y,y,2019_Jul_11_1115,2AFC_task,59.94743813265616,
stimuli/rgb_scene000066_render000003.png,stimuli/rgb_scene000066_render000006.png,1,142,352,80,"[0, 1]",right,1,13,23,f,y,y,2019_Jul_11_1115,2AFC_task,59.94743813265616,
stimuli/rgb_scene000160_render000001.png,stimuli/rgb_scene000160_render000003.png,1,143,353,133,"[0, 1]",right,1,13,23,f,y,y,2019_Jul_11_1115,2AFC_task,59.94743813265616,
stimuli/rgb_scene000160_render000000.png,stimuli/rgb_scene000160_render000004.png,1,144,354,129,"[0, 1]",right,1,13,23,f,y,y,2019_Jul_11_1115,2AFC_task,59.94743813265616,
stimuli/rgb_scene000147_render000000.png,stimuli/rgb_scene000147_render000006.png,1,145,355,89,"[0, 1]",right,1,13,23,f,y,y,2019_Jul_11_1115,2AFC_task,59.94743813265616,
stimuli/rgb_scene000042_render000000.png,stimuli/rgb_scene000042_render000004.png,1,146,356,3,"[0, 1]",right,1,13,23,f,y,y,2019_Jul_11_1115,2AFC_task,59.94743813265616,
stimuli/rgb_scene000056_render000001.png,stimuli/rgb_scene000056_render000005.png,1,147,357,51,"[1, 0]",left,1,13,23,f,y,y,2019_Jul_11_1115,2AFC_task,59.94743813265616,
stimuli/rgb_scene000160_render000000.png,stimuli/rgb_scene000160_render000003.png,1,148,358,128,"[1, 0]",left,1,13,23,f,y,y,2019_Jul_11_1115,2AFC_task,59.94743813265616,
stimuli/rgb_scene000196_render000004.png,stimuli/rgb_scene000196_render000006.png,1,149,359,208,"[1, 0]",right,0,13,23,f,y,y,2019_Jul_11_1115,2AFC_task,59.94743813265616,
stimuli/rgb_scene000042_render000002.png,stimuli/rgb_scene000042_render000005.png,1,150,360,13,"[1, 0]",left,1,13,23,f,y,y,2019_Jul_11_1115,2AFC_task,59.94743813265616,
stimuli/rgb_scene000150_render000001.png,stimuli/rgb_scene000150_render000005.png,1,151,361,114,"[0, 1]",right,1,13,23,f,y,y,2019_Jul_11_1115,2AFC_task,59.94743813265616,
stimuli/rgb_scene000169_render000004.png,stimuli/rgb_scene000169_render000005.png,1,152,362,186,"[0, 1]",right,1,13,23,f,y,y,2019_Jul_11_1115,2AFC_task,59.94743813265616,
stimuli/rgb_scene000160_render000002.png,stimuli/rgb_scene000160_render000003.png,1,153,363,137,"[0, 1]",right,1,13,23,f,y,y,2019_Jul_11_1115,2AFC_task,59.94743813265616,
stimuli/rgb_scene000150_render000004.png,stimuli/rgb_scene000150_render000006.png,1,154,364,124,"[1, 0]",right,0,13,23,f,y,y,2019_Jul_11_1115,2AFC_task,59.94743813265616,
stimuli/rgb_scene000147_render000003.png,stimuli/rgb_scene000147_render000004.png,1,155,365,99,"[0, 1]",right,1,13,23,f,y,y,2019_Jul_11_1115,2AFC_task,59.94743813265616,
stimuli/rgb_scene000047_render000000.png,stimuli/rgb_scene000047_render000005.png,1,156,366,25,"[1, 0]",left,1,13,23,f,y,y,2019_Jul_11_1115,2AFC_task,59.94743813265616,
stimuli/rgb_scene000165_render000000.png,stimuli/rgb_scene000165_render000002.png,1,157,367,148,"[0, 1]",right,1,13,23,f,y,y,2019_Jul_11_1115,2AFC_task,59.94743813265616,
stimuli/rgb_scene000196_render000004.png,stimuli/rgb_scene000196_render000005.png,1,158,368,207,"[1, 0]",right,0,13,23,f,y,y,2019_Jul_11_1115,2AFC_task,59.94743813265616,
stimuli/rgb_scene000165_render000000.png,stimuli/rgb_scene000165_render000003.png,1,159,369,149,"[0, 1]",right,1,13,23,f,y,y,2019_Jul_11_1115,2AFC_task,59.94743813265616,
stimuli/rgb_scene000147_render000001.png,stimuli/rgb_scene000147_render000003.png,1,160,370,91,"[1, 0]",left,1,13,23,f,y,y,2019_Jul_11_1115,2AFC_task,59.94743813265616,
stimuli/rgb_scene000056_render000004.png,stimuli/rgb_scene000056_render000005.png,1,161,371,60,"[1, 0]",left,1,13,23,f,y,y,2019_Jul_11_1115,2AFC_task,59.94743813265616,
stimuli/rgb_scene000169_render000000.png,stimuli/rgb_scene000169_render000004.png,1,162,372,171,"[0, 1]",left,0,13,23,f,y,y,2019_Jul_11_1115,2AFC_task,59.94743813265616,
stimuli/rgb_scene000160_render000001.png,stimuli/rgb_scene000160_render000006.png,1,163,373,136,"[1, 0]",left,1,13,23,f,y,y,2019_Jul_11_1115,2AFC_task,59.94743813265616,
stimuli/rgb_scene000169_render000002.png,stimuli/rgb_scene000169_render000006.png,1,164,374,182,"[0, 1]",left,0,13,23,f,y,y,2019_Jul_11_1115,2AFC_task,59.94743813265616,
stimuli/rgb_scene000056_render000000.png,stimuli/rgb_scene000056_render000004.png,1,165,375,45,"[0, 1]",right,1,13,23,f,y,y,2019_Jul_11_1115,2AFC_task,59.94743813265616,
stimuli/rgb_scene000150_render000001.png,stimuli/rgb_scene000150_render000004.png,1,166,376,113,"[1, 0]",left,1,13,23,f,y,y,2019_Jul_11_1115,2AFC_task,59.94743813265616,
stimuli/rgb_scene000165_render000002.png,stimuli/rgb_scene000165_render000005.png,1,167,377,160,"[1, 0]",left,1,13,23,f,y,y,2019_Jul_11_1115,2AFC_task,59.94743813265616,
stimuli/rgb_scene000047_render000001.png,stimuli/rgb_scene000047_render000004.png,1,168,378,29,"[1, 0]",left,1,13,23,f,y,y,2019_Jul_11_1115,2AFC_task,59.94743813265616,
stimuli/rgb_scene000066_render000000.png,stimuli/rgb_scene000066_render000006.png,1,169,379,68,"[0, 1]",right,1,13,23,f,y,y,2019_Jul_11_1115,2AFC_task,59.94743813265616,
stimuli/rgb_scene000066_render000004.png,stimuli/rgb_scene000066_render000006.png,1,170,380,82,"[1, 0]",left,1,13,23,f,y,y,2019_Jul_11_1115,2AFC_task,59.94743813265616,
stimuli/rgb_scene000169_render000003.png,stimuli/rgb_scene000169_render000005.png,1,171,381,184,"[1, 0]",right,0,13,23,f,y,y,2019_Jul_11_1115,2AFC_task,59.94743813265616,
stimuli/rgb_scene000042_render000000.png,stimuli/rgb_scene000042_render000006.png,1,172,382,5,"[0, 1]",right,1,13,23,f,y,y,2019_Jul_11_1115,2AFC_task,59.94743813265616,
stimuli/rgb_scene000196_render000001.png,stimuli/rgb_scene000196_render000004.png,1,173,383,197,"[0, 1]",left,0,13,23,f,y,y,2019_Jul_11_1115,2AFC_task,59.94743813265616,
stimuli/rgb_scene000147_render000004.png,stimuli/rgb_scene000147_render000006.png,1,174,384,103,"[0, 1]",right,1,13,23,f,y,y,2019_Jul_11_1115,2AFC_task,59.94743813265616,
stimuli/rgb_scene000169_render000005.png,stimuli/rgb_scene000169_render000006.png,1,175,385,188,"[1, 0]",left,1,13,23,f,y,y,2019_Jul_11_1115,2AFC_task,59.94743813265616,
stimuli/rgb_scene000042_render000000.png,stimuli/rgb_scene000042_render000003.png,1,176,386,2,"[0, 1]",right,1,13,23,f,y,y,2019_Jul_11_1115,2AFC_task,59.94743813265616,
stimuli/rgb_scene000047_render000003.png,stimuli/rgb_scene000047_render000005.png,1,177,387,37,"[0, 1]",right,1,13,23,f,y,y,2019_Jul_11_1115,2AFC_task,59.94743813265616,
stimuli/rgb_scene000165_render000003.png,stimuli/rgb_scene000165_render000005.png,1,178,388,163,"[0, 1]",right,1,13,23,f,y,y,2019_Jul_11_1115,2AFC_task,59.94743813265616,
stimuli/rgb_scene000056_render000003.png,stimuli/rgb_scene000056_render000004.png,1,179,389,57,"[0, 1]",right,1,13,23,f,y,y,2019_Jul_11_1115,2AFC_task,59.94743813265616,
stimuli/rgb_scene000169_render000000.png,stimuli/rgb_scene000169_render000002.png,1,180,390,169,"[1, 0]",left,1,13,23,f,y,y,2019_Jul_11_1115,2AFC_task,59.94743813265616,
stimuli/rgb_scene000169_render000004.png,stimuli/rgb_scene000169_render000006.png,1,181,391,187,"[0, 1]",right,1,13,23,f,y,y,2019_Jul_11_1115,2AFC_task,59.94743813265616,
stimuli/rgb_scene000147_render000001.png,stimuli/rgb_scene000147_render000006.png,1,182,392,94,"[0, 1]",right,1,13,23,f,y,y,2019_Jul_11_1115,2AFC_task,59.94743813265616,
stimuli/rgb_scene000042_render000000.png,stimuli/rgb_scene000042_render000002.png,1,183,393,1,"[0, 1]",right,1,13,23,f,y,y,2019_Jul_11_1115,2AFC_task,59.94743813265616,
stimuli/rgb_scene000196_render000001.png,stimuli/rgb_scene000196_render000006.png,1,184,394,199,"[1, 0]",right,0,13,23,f,y,y,2019_Jul_11_1115,2AFC_task,59.94743813265616,
stimuli/rgb_scene000160_render000000.png,stimuli/rgb_scene000160_render000001.png,1,185,395,126,"[0, 1]",right,1,13,23,f,y,y,2019_Jul_11_1115,2AFC_task,59.94743813265616,
stimuli/rgb_scene000047_render000001.png,stimuli/rgb_scene000047_render000006.png,1,186,396,31,"[1, 0]",left,1,13,23,f,y,y,2019_Jul_11_1115,2AFC_task,59.94743813265616,
stimuli/rgb_scene000150_render000001.png,stimuli/rgb_scene000150_render000003.png,1,187,397,112,"[0, 1]",right,1,13,23,f,y,y,2019_Jul_11_1115,2AFC_task,59.94743813265616,
stimuli/rgb_scene000160_render000004.png,stimuli/rgb_scene000160_render000006.png,1,188,398,145,"[0, 1]",right,1,13,23,f,y,y,2019_Jul_11_1115,2AFC_task,59.94743813265616,
stimuli/rgb_scene000047_render000002.png,stimuli/rgb_scene000047_render000004.png,1,189,399,33,"[1, 0]",left,1,13,23,f,y,y,2019_Jul_11_1115,2AFC_task,59.94743813265616,
stimuli/rgb_scene000160_render000001.png,stimuli/rgb_scene000160_render000004.png,1,190,400,134,"[1, 0]",left,1,13,23,f,y,y,2019_Jul_11_1115,2AFC_task,59.94743813265616,
stimuli/rgb_scene000042_render000002.png,stimuli/rgb_scene000042_render000004.png,1,191,401,12,"[0, 1]",right,1,13,23,f,y,y,2019_Jul_11_1115,2AFC_task,59.94743813265616,
stimuli/rgb_scene000160_render000001.png,stimuli/rgb_scene000160_render000002.png,1,192,402,132,"[0, 1]",right,1,13,23,f,y,y,2019_Jul_11_1115,2AFC_task,59.94743813265616,
stimuli/rgb_scene000066_render000002.png,stimuli/rgb_scene000066_render000003.png,1,193,403,74,"[1, 0]",left,1,13,23,f,y,y,2019_Jul_11_1115,2AFC_task,59.94743813265616,
stimuli/rgb_scene000160_render000004.png,stimuli/rgb_scene000160_render000005.png,1,194,404,144,"[0, 1]",right,1,13,23,f,y,y,2019_Jul_11_1115,2AFC_task,59.94743813265616,
stimuli/rgb_scene000056_render000000.png,stimuli/rgb_scene000056_render000001.png,1,195,405,42,"[0, 1]",right,1,13,23,f,y,y,2019_Jul_11_1115,2AFC_task,59.94743813265616,
stimuli/rgb_scene000042_render000003.png,stimuli/rgb_scene000042_render000006.png,1,196,406,17,"[1, 0]",left,1,13,23,f,y,y,2019_Jul_11_1115,2AFC_task,59.94743813265616,
stimuli/rgb_scene000047_render000002.png,stimuli/rgb_scene000047_render000003.png,1,197,407,32,"[0, 1]",right,1,13,23,f,y,y,2019_Jul_11_1115,2AFC_task,59.94743813265616,
stimuli/rgb_scene000042_render000004.png,stimuli/rgb_scene000042_render000005.png,1,198,408,18,"[1, 0]",left,1,13,23,f,y,y,2019_Jul_11_1115,2AFC_task,59.94743813265616,
stimuli/rgb_scene000066_render000002.png,stimuli/rgb_scene000066_render000006.png,1,199,409,77,"[1, 0]",left,1,13,23,f,y,y,2019_Jul_11_1115,2AFC_task,59.94743813265616,
stimuli/rgb_scene000056_render000002.png,stimuli/rgb_scene000056_render000004.png,1,200,410,54,"[1, 0]",left,1,13,23,f,y,y,2019_Jul_11_1115,2AFC_task,59.94743813265616,
stimuli/rgb_scene000160_render000005.png,stimuli/rgb_scene000160_render000006.png,1,201,411,146,"[0, 1]",right,1,13,23,f,y,y,2019_Jul_11_1115,2AFC_task,59.94743813265616,
stimuli/rgb_scene000056_render000004.png,stimuli/rgb_scene000056_render000006.png,1,202,412,61,"[1, 0]",left,1,13,23,f,y,y,2019_Jul_11_1115,2AFC_task,59.94743813265616,
stimuli/rgb_scene000169_render000002.png,stimuli/rgb_scene000169_render000004.png,1,203,413,180,"[0, 1]",left,0,13,23,f,y,y,2019_Jul_11_1115,2AFC_task,59.94743813265616,
stimuli/rgb_scene000196_render000001.png,stimuli/rgb_scene000196_render000003.png,1,204,414,196,"[0, 1]",left,0,13,23,f,y,y,2019_Jul_11_1115,2AFC_task,59.94743813265616,
stimuli/rgb_scene000056_render000003.png,stimuli/rgb_scene000056_render000006.png,1,205,415,59,"[0, 1]",right,1,13,23,f,y,y,2019_Jul_11_1115,2AFC_task,59.94743813265616,
stimuli/rgb_scene000147_render000001.png,stimuli/rgb_scene000147_render000005.png,1,206,416,93,"[0, 1]",right,1,13,23,f,y,y,2019_Jul_11_1115,2AFC_task,59.94743813265616,
stimuli/rgb_scene000160_render000002.png,stimuli/rgb_scene000160_render000006.png,1,207,417,140,"[1, 0]",left,1,13,23,f,y,y,2019_Jul_11_1115,2AFC_task,59.94743813265616,
stimuli/rgb_scene000047_render000002.png,stimuli/rgb_scene000047_render000005.png,1,208,418,34,"[0, 1]",right,1,13,23,f,y,y,2019_Jul_11_1115,2AFC_task,59.94743813265616,
stimuli/rgb_scene000056_render000001.png,stimuli/rgb_scene000056_render000006.png,1,209,419,52,"[1, 0]",left,1,13,23,f,y,y,2019_Jul_11_1115,2AFC_task,59.94743813265616,
