stimOne,stimTwo,trials_1.thisRepN,trials_1.thisTrialN,trials_1.thisN,trials_1.thisIndex,presentation_positions,resp_key,corresponding_image,participant ID (two digits, e.g. 01),age,gender (m/f/-),normal or corrected-to-normal vision (y/n),normal colour vision (y/n),date,expName,frameRate,
stimuli/rgb_scene000165_render000003.png,stimuli/rgb_scene000165_render000006.png,0,0,0,164,"[0, 1]",right,1,15,21,f,y,y,2019_Jul_12_1102,2AFC_task,59.94247919511154,
stimuli/rgb_scene000147_render000003.png,stimuli/rgb_scene000147_render000005.png,0,1,1,100,"[0, 1]",right,1,15,21,f,y,y,2019_Jul_12_1102,2AFC_task,59.94247919511154,
stimuli/rgb_scene000160_render000004.png,stimuli/rgb_scene000160_render000005.png,0,2,2,144,"[0, 1]",right,1,15,21,f,y,y,2019_Jul_12_1102,2AFC_task,59.94247919511154,
stimuli/rgb_scene000165_render000001.png,stimuli/rgb_scene000165_render000004.png,0,3,3,155,"[1, 0]",left,1,15,21,f,y,y,2019_Jul_12_1102,2AFC_task,59.94247919511154,
stimuli/rgb_scene000169_render000002.png,stimuli/rgb_scene000169_render000005.png,0,4,4,181,"[1, 0]",left,1,15,21,f,y,y,2019_Jul_12_1102,2AFC_task,59.94247919511154,
stimuli/rgb_scene000150_render000002.png,stimuli/rgb_scene000150_render000003.png,0,5,5,116,"[1, 0]",left,1,15,21,f,y,y,2019_Jul_12_1102,2AFC_task,59.94247919511154,
stimuli/rgb_scene000042_render000001.png,stimuli/rgb_scene000042_render000002.png,0,6,6,6,"[1, 0]",left,1,15,21,f,y,y,2019_Jul_12_1102,2AFC_task,59.94247919511154,
stimuli/rgb_scene000066_render000003.png,stimuli/rgb_scene000066_render000004.png,0,7,7,78,"[1, 0]",left,1,15,21,f,y,y,2019_Jul_12_1102,2AFC_task,59.94247919511154,
stimuli/rgb_scene000042_render000002.png,stimuli/rgb_scene000042_render000004.png,0,8,8,12,"[1, 0]",left,1,15,21,f,y,y,2019_Jul_12_1102,2AFC_task,59.94247919511154,
stimuli/rgb_scene000147_render000004.png,stimuli/rgb_scene000147_render000005.png,0,9,9,102,"[0, 1]",right,1,15,21,f,y,y,2019_Jul_12_1102,2AFC_task,59.94247919511154,
stimuli/rgb_scene000169_render000001.png,stimuli/rgb_scene000169_render000003.png,0,10,10,175,"[1, 0]",right,0,15,21,f,y,y,2019_Jul_12_1102,2AFC_task,59.94247919511154,
stimuli/rgb_scene000047_render000003.png,stimuli/rgb_scene000047_render000006.png,0,11,11,38,"[1, 0]",left,1,15,21,f,y,y,2019_Jul_12_1102,2AFC_task,59.94247919511154,
stimuli/rgb_scene000056_render000001.png,stimuli/rgb_scene000056_render000002.png,0,12,12,48,"[1, 0]",left,1,15,21,f,y,y,2019_Jul_12_1102,2AFC_task,59.94247919511154,
stimuli/rgb_scene000147_render000000.png,stimuli/rgb_scene000147_render000002.png,0,13,13,85,"[1, 0]",left,1,15,21,f,y,y,2019_Jul_12_1102,2AFC_task,59.94247919511154,
stimuli/rgb_scene000147_render000001.png,stimuli/rgb_scene000147_render000002.png,0,14,14,90,"[0, 1]",right,1,15,21,f,y,y,2019_Jul_12_1102,2AFC_task,59.94247919511154,
stimuli/rgb_scene000042_render000005.png,stimuli/rgb_scene000042_render000006.png,0,15,15,20,"[1, 0]",left,1,15,21,f,y,y,2019_Jul_12_1102,2AFC_task,59.94247919511154,
stimuli/rgb_scene000150_render000001.png,stimuli/rgb_scene000150_render000002.png,0,16,16,111,"[1, 0]",left,1,15,21,f,y,y,2019_Jul_12_1102,2AFC_task,59.94247919511154,
stimuli/rgb_scene000196_render000003.png,stimuli/rgb_scene000196_render000005.png,0,17,17,205,"[1, 0]",right,0,15,21,f,y,y,2019_Jul_12_1102,2AFC_task,59.94247919511154,
stimuli/rgb_scene000196_render000000.png,stimuli/rgb_scene000196_render000006.png,0,18,18,194,"[1, 0]",right,0,15,21,f,y,y,2019_Jul_12_1102,2AFC_task,59.94247919511154,
stimuli/rgb_scene000160_render000001.png,stimuli/rgb_scene000160_render000006.png,0,19,19,136,"[1, 0]",left,1,15,21,f,y,y,2019_Jul_12_1102,2AFC_task,59.94247919511154,
stimuli/rgb_scene000147_render000003.png,stimuli/rgb_scene000147_render000004.png,0,20,20,99,"[0, 1]",right,1,15,21,f,y,y,2019_Jul_12_1102,2AFC_task,59.94247919511154,
stimuli/rgb_scene000165_render000001.png,stimuli/rgb_scene000165_render000003.png,0,21,21,154,"[1, 0]",left,1,15,21,f,y,y,2019_Jul_12_1102,2AFC_task,59.94247919511154,
stimuli/rgb_scene000047_render000001.png,stimuli/rgb_scene000047_render000005.png,0,22,22,30,"[1, 0]",left,1,15,21,f,y,y,2019_Jul_12_1102,2AFC_task,59.94247919511154,
stimuli/rgb_scene000056_render000003.png,stimuli/rgb_scene000056_render000006.png,0,23,23,59,"[0, 1]",right,1,15,21,f,y,y,2019_Jul_12_1102,2AFC_task,59.94247919511154,
stimuli/rgb_scene000169_render000002.png,stimuli/rgb_scene000169_render000003.png,0,24,24,179,"[0, 1]",right,1,15,21,f,y,y,2019_Jul_12_1102,2AFC_task,59.94247919511154,
stimuli/rgb_scene000160_render000000.png,stimuli/rgb_scene000160_render000001.png,0,25,25,126,"[1, 0]",left,1,15,21,f,y,y,2019_Jul_12_1102,2AFC_task,59.94247919511154,
stimuli/rgb_scene000196_render000004.png,stimuli/rgb_scene000196_render000006.png,0,26,26,208,"[0, 1]",left,0,15,21,f,y,y,2019_Jul_12_1102,2AFC_task,59.94247919511154,
stimuli/rgb_scene000150_render000002.png,stimuli/rgb_scene000150_render000005.png,0,27,27,118,"[1, 0]",left,1,15,21,f,y,y,2019_Jul_12_1102,2AFC_task,59.94247919511154,
stimuli/rgb_scene000160_render000000.png,stimuli/rgb_scene000160_render000006.png,0,28,28,131,"[1, 0]",left,1,15,21,f,y,y,2019_Jul_12_1102,2AFC_task,59.94247919511154,
stimuli/rgb_scene000056_render000000.png,stimuli/rgb_scene000056_render000006.png,0,29,29,47,"[0, 1]",right,1,15,21,f,y,y,2019_Jul_12_1102,2AFC_task,59.94247919511154,
stimuli/rgb_scene000042_render000002.png,stimuli/rgb_scene000042_render000005.png,0,30,30,13,"[1, 0]",left,1,15,21,f,y,y,2019_Jul_12_1102,2AFC_task,59.94247919511154,
stimuli/rgb_scene000169_render000004.png,stimuli/rgb_scene000169_render000005.png,0,31,31,186,"[0, 1]",right,1,15,21,f,y,y,2019_Jul_12_1102,2AFC_task,59.94247919511154,
stimuli/rgb_scene000160_render000001.png,stimuli/rgb_scene000160_render000002.png,0,32,32,132,"[0, 1]",right,1,15,21,f,y,y,2019_Jul_12_1102,2AFC_task,59.94247919511154,
stimuli/rgb_scene000147_render000003.png,stimuli/rgb_scene000147_render000006.png,0,33,33,101,"[0, 1]",right,1,15,21,f,y,y,2019_Jul_12_1102,2AFC_task,59.94247919511154,
stimuli/rgb_scene000056_render000005.png,stimuli/rgb_scene000056_render000006.png,0,34,34,62,"[1, 0]",left,1,15,21,f,y,y,2019_Jul_12_1102,2AFC_task,59.94247919511154,
stimuli/rgb_scene000066_render000002.png,stimuli/rgb_scene000066_render000003.png,0,35,35,74,"[0, 1]",right,1,15,21,f,y,y,2019_Jul_12_1102,2AFC_task,59.94247919511154,
stimuli/rgb_scene000165_render000002.png,stimuli/rgb_scene000165_render000005.png,0,36,36,160,"[1, 0]",left,1,15,21,f,y,y,2019_Jul_12_1102,2AFC_task,59.94247919511154,
stimuli/rgb_scene000165_render000002.png,stimuli/rgb_scene000165_render000004.png,0,37,37,159,"[1, 0]",left,1,15,21,f,y,y,2019_Jul_12_1102,2AFC_task,59.94247919511154,
stimuli/rgb_scene000147_render000002.png,stimuli/rgb_scene000147_render000006.png,0,38,38,98,"[0, 1]",right,1,15,21,f,y,y,2019_Jul_12_1102,2AFC_task,59.94247919511154,
stimuli/rgb_scene000066_render000001.png,stimuli/rgb_scene000066_render000005.png,0,39,39,72,"[1, 0]",left,1,15,21,f,y,y,2019_Jul_12_1102,2AFC_task,59.94247919511154,
stimuli/rgb_scene000160_render000002.png,stimuli/rgb_scene000160_render000004.png,0,40,40,138,"[0, 1]",right,1,15,21,f,y,y,2019_Jul_12_1102,2AFC_task,59.94247919511154,
stimuli/rgb_scene000056_render000000.png,stimuli/rgb_scene000056_render000001.png,0,41,41,42,"[1, 0]",left,1,15,21,f,y,y,2019_Jul_12_1102,2AFC_task,59.94247919511154,
stimuli/rgb_scene000165_render000000.png,stimuli/rgb_scene000165_render000002.png,0,42,42,148,"[1, 0]",left,1,15,21,f,y,y,2019_Jul_12_1102,2AFC_task,59.94247919511154,
stimuli/rgb_scene000196_render000000.png,stimuli/rgb_scene000196_render000004.png,0,43,43,192,"[1, 0]",left,1,15,21,f,y,y,2019_Jul_12_1102,2AFC_task,59.94247919511154,
stimuli/rgb_scene000160_render000003.png,stimuli/rgb_scene000160_render000004.png,0,44,44,141,"[1, 0]",left,1,15,21,f,y,y,2019_Jul_12_1102,2AFC_task,59.94247919511154,
stimuli/rgb_scene000042_render000000.png,stimuli/rgb_scene000042_render000002.png,0,45,45,1,"[1, 0]",left,1,15,21,f,y,y,2019_Jul_12_1102,2AFC_task,59.94247919511154,
stimuli/rgb_scene000066_render000001.png,stimuli/rgb_scene000066_render000002.png,0,46,46,69,"[0, 1]",right,1,15,21,f,y,y,2019_Jul_12_1102,2AFC_task,59.94247919511154,
stimuli/rgb_scene000056_render000001.png,stimuli/rgb_scene000056_render000005.png,0,47,47,51,"[1, 0]",left,1,15,21,f,y,y,2019_Jul_12_1102,2AFC_task,59.94247919511154,
stimuli/rgb_scene000196_render000002.png,stimuli/rgb_scene000196_render000003.png,0,48,48,200,"[0, 1]",right,1,15,21,f,y,y,2019_Jul_12_1102,2AFC_task,59.94247919511154,
stimuli/rgb_scene000056_render000002.png,stimuli/rgb_scene000056_render000005.png,0,49,49,55,"[1, 0]",left,1,15,21,f,y,y,2019_Jul_12_1102,2AFC_task,59.94247919511154,
stimuli/rgb_scene000150_render000004.png,stimuli/rgb_scene000150_render000006.png,0,50,50,124,"[0, 1]",right,1,15,21,f,y,y,2019_Jul_12_1102,2AFC_task,59.94247919511154,
stimuli/rgb_scene000147_render000002.png,stimuli/rgb_scene000147_render000005.png,0,51,51,97,"[0, 1]",right,1,15,21,f,y,y,2019_Jul_12_1102,2AFC_task,59.94247919511154,
stimuli/rgb_scene000169_render000000.png,stimuli/rgb_scene000169_render000004.png,0,52,52,171,"[0, 1]",right,1,15,21,f,y,y,2019_Jul_12_1102,2AFC_task,59.94247919511154,
stimuli/rgb_scene000147_render000000.png,stimuli/rgb_scene000147_render000005.png,0,53,53,88,"[0, 1]",right,1,15,21,f,y,y,2019_Jul_12_1102,2AFC_task,59.94247919511154,
stimuli/rgb_scene000047_render000003.png,stimuli/rgb_scene000047_render000005.png,0,54,54,37,"[1, 0]",left,1,15,21,f,y,y,2019_Jul_12_1102,2AFC_task,59.94247919511154,
stimuli/rgb_scene000150_render000002.png,stimuli/rgb_scene000150_render000004.png,0,55,55,117,"[0, 1]",right,1,15,21,f,y,y,2019_Jul_12_1102,2AFC_task,59.94247919511154,
stimuli/rgb_scene000147_render000000.png,stimuli/rgb_scene000147_render000001.png,0,56,56,84,"[1, 0]",left,1,15,21,f,y,y,2019_Jul_12_1102,2AFC_task,59.94247919511154,
stimuli/rgb_scene000042_render000001.png,stimuli/rgb_scene000042_render000004.png,0,57,57,8,"[0, 1]",right,1,15,21,f,y,y,2019_Jul_12_1102,2AFC_task,59.94247919511154,
stimuli/rgb_scene000056_render000000.png,stimuli/rgb_scene000056_render000005.png,0,58,58,46,"[0, 1]",right,1,15,21,f,y,y,2019_Jul_12_1102,2AFC_task,59.94247919511154,
stimuli/rgb_scene000042_render000001.png,stimuli/rgb_scene000042_render000005.png,0,59,59,9,"[0, 1]",right,1,15,21,f,y,y,2019_Jul_12_1102,2AFC_task,59.94247919511154,
stimuli/rgb_scene000056_render000004.png,stimuli/rgb_scene000056_render000006.png,0,60,60,61,"[1, 0]",left,1,15,21,f,y,y,2019_Jul_12_1102,2AFC_task,59.94247919511154,
stimuli/rgb_scene000147_render000000.png,stimuli/rgb_scene000147_render000003.png,0,61,61,86,"[0, 1]",right,1,15,21,f,y,y,2019_Jul_12_1102,2AFC_task,59.94247919511154,
stimuli/rgb_scene000042_render000000.png,stimuli/rgb_scene000042_render000003.png,0,62,62,2,"[0, 1]",right,1,15,21,f,y,y,2019_Jul_12_1102,2AFC_task,59.94247919511154,
stimuli/rgb_scene000066_render000000.png,stimuli/rgb_scene000066_render000003.png,0,63,63,65,"[1, 0]",left,1,15,21,f,y,y,2019_Jul_12_1102,2AFC_task,59.94247919511154,
stimuli/rgb_scene000169_render000000.png,stimuli/rgb_scene000169_render000003.png,0,64,64,170,"[1, 0]",right,0,15,21,f,y,y,2019_Jul_12_1102,2AFC_task,59.94247919511154,
stimuli/rgb_scene000169_render000003.png,stimuli/rgb_scene000169_render000005.png,0,65,65,184,"[1, 0]",right,0,15,21,f,y,y,2019_Jul_12_1102,2AFC_task,59.94247919511154,
stimuli/rgb_scene000042_render000004.png,stimuli/rgb_scene000042_render000005.png,0,66,66,18,"[1, 0]",left,1,15,21,f,y,y,2019_Jul_12_1102,2AFC_task,59.94247919511154,
stimuli/rgb_scene000169_render000000.png,stimuli/rgb_scene000169_render000002.png,0,67,67,169,"[1, 0]",right,0,15,21,f,y,y,2019_Jul_12_1102,2AFC_task,59.94247919511154,
stimuli/rgb_scene000196_render000004.png,stimuli/rgb_scene000196_render000005.png,0,68,68,207,"[1, 0]",right,0,15,21,f,y,y,2019_Jul_12_1102,2AFC_task,59.94247919511154,
stimuli/rgb_scene000150_render000003.png,stimuli/rgb_scene000150_render000004.png,0,69,69,120,"[0, 1]",right,1,15,21,f,y,y,2019_Jul_12_1102,2AFC_task,59.94247919511154,
stimuli/rgb_scene000047_render000000.png,stimuli/rgb_scene000047_render000003.png,0,70,70,23,"[1, 0]",left,1,15,21,f,y,y,2019_Jul_12_1102,2AFC_task,59.94247919511154,
stimuli/rgb_scene000165_render000000.png,stimuli/rgb_scene000165_render000001.png,0,71,71,147,"[0, 1]",right,1,15,21,f,y,y,2019_Jul_12_1102,2AFC_task,59.94247919511154,
stimuli/rgb_scene000169_render000004.png,stimuli/rgb_scene000169_render000006.png,0,72,72,187,"[1, 0]",right,0,15,21,f,y,y,2019_Jul_12_1102,2AFC_task,59.94247919511154,
stimuli/rgb_scene000169_render000000.png,stimuli/rgb_scene000169_render000005.png,0,73,73,172,"[0, 1]",right,1,15,21,f,y,y,2019_Jul_12_1102,2AFC_task,59.94247919511154,
stimuli/rgb_scene000169_render000001.png,stimuli/rgb_scene000169_render000005.png,0,74,74,177,"[0, 1]",right,1,15,21,f,y,y,2019_Jul_12_1102,2AFC_task,59.94247919511154,
stimuli/rgb_scene000056_render000003.png,stimuli/rgb_scene000056_render000004.png,0,75,75,57,"[0, 1]",right,1,15,21,f,y,y,2019_Jul_12_1102,2AFC_task,59.94247919511154,
stimuli/rgb_scene000066_render000003.png,stimuli/rgb_scene000066_render000006.png,0,76,76,80,"[0, 1]",right,1,15,21,f,y,y,2019_Jul_12_1102,2AFC_task,59.94247919511154,
stimuli/rgb_scene000150_render000001.png,stimuli/rgb_scene000150_render000004.png,0,77,77,113,"[0, 1]",right,1,15,21,f,y,y,2019_Jul_12_1102,2AFC_task,59.94247919511154,
stimuli/rgb_scene000147_render000002.png,stimuli/rgb_scene000147_render000003.png,0,78,78,95,"[1, 0]",left,1,15,21,f,y,y,2019_Jul_12_1102,2AFC_task,59.94247919511154,
stimuli/rgb_scene000150_render000004.png,stimuli/rgb_scene000150_render000005.png,0,79,79,123,"[0, 1]",right,1,15,21,f,y,y,2019_Jul_12_1102,2AFC_task,59.94247919511154,
stimuli/rgb_scene000169_render000001.png,stimuli/rgb_scene000169_render000004.png,0,80,80,176,"[0, 1]",right,1,15,21,f,y,y,2019_Jul_12_1102,2AFC_task,59.94247919511154,
stimuli/rgb_scene000066_render000001.png,stimuli/rgb_scene000066_render000006.png,0,81,81,73,"[1, 0]",left,1,15,21,f,y,y,2019_Jul_12_1102,2AFC_task,59.94247919511154,
stimuli/rgb_scene000165_render000001.png,stimuli/rgb_scene000165_render000005.png,0,82,82,156,"[0, 1]",right,1,15,21,f,y,y,2019_Jul_12_1102,2AFC_task,59.94247919511154,
stimuli/rgb_scene000147_render000005.png,stimuli/rgb_scene000147_render000006.png,0,83,83,104,"[0, 1]",left,0,15,21,f,y,y,2019_Jul_12_1102,2AFC_task,59.94247919511154,
stimuli/rgb_scene000160_render000001.png,stimuli/rgb_scene000160_render000003.png,0,84,84,133,"[0, 1]",right,1,15,21,f,y,y,2019_Jul_12_1102,2AFC_task,59.94247919511154,
stimuli/rgb_scene000047_render000001.png,stimuli/rgb_scene000047_render000006.png,0,85,85,31,"[0, 1]",right,1,15,21,f,y,y,2019_Jul_12_1102,2AFC_task,59.94247919511154,
stimuli/rgb_scene000047_render000001.png,stimuli/rgb_scene000047_render000002.png,0,86,86,27,"[0, 1]",right,1,15,21,f,y,y,2019_Jul_12_1102,2AFC_task,59.94247919511154,
stimuli/rgb_scene000147_render000001.png,stimuli/rgb_scene000147_render000003.png,0,87,87,91,"[1, 0]",left,1,15,21,f,y,y,2019_Jul_12_1102,2AFC_task,59.94247919511154,
stimuli/rgb_scene000056_render000002.png,stimuli/rgb_scene000056_render000003.png,0,88,88,53,"[1, 0]",left,1,15,21,f,y,y,2019_Jul_12_1102,2AFC_task,59.94247919511154,
stimuli/rgb_scene000042_render000000.png,stimuli/rgb_scene000042_render000005.png,0,89,89,4,"[0, 1]",right,1,15,21,f,y,y,2019_Jul_12_1102,2AFC_task,59.94247919511154,
stimuli/rgb_scene000147_render000001.png,stimuli/rgb_scene000147_render000004.png,0,90,90,92,"[1, 0]",left,1,15,21,f,y,y,2019_Jul_12_1102,2AFC_task,59.94247919511154,
stimuli/rgb_scene000165_render000004.png,stimuli/rgb_scene000165_render000005.png,0,91,91,165,"[0, 1]",right,1,15,21,f,y,y,2019_Jul_12_1102,2AFC_task,59.94247919511154,
stimuli/rgb_scene000047_render000002.png,stimuli/rgb_scene000047_render000005.png,0,92,92,34,"[0, 1]",right,1,15,21,f,y,y,2019_Jul_12_1102,2AFC_task,59.94247919511154,
stimuli/rgb_scene000056_render000000.png,stimuli/rgb_scene000056_render000003.png,0,93,93,44,"[0, 1]",right,1,15,21,f,y,y,2019_Jul_12_1102,2AFC_task,59.94247919511154,
stimuli/rgb_scene000165_render000000.png,stimuli/rgb_scene000165_render000003.png,0,94,94,149,"[0, 1]",right,1,15,21,f,y,y,2019_Jul_12_1102,2AFC_task,59.94247919511154,
stimuli/rgb_scene000196_render000001.png,stimuli/rgb_scene000196_render000002.png,0,95,95,195,"[0, 1]",right,1,15,21,f,y,y,2019_Jul_12_1102,2AFC_task,59.94247919511154,
stimuli/rgb_scene000160_render000002.png,stimuli/rgb_scene000160_render000006.png,0,96,96,140,"[0, 1]",right,1,15,21,f,y,y,2019_Jul_12_1102,2AFC_task,59.94247919511154,
stimuli/rgb_scene000042_render000002.png,stimuli/rgb_scene000042_render000003.png,0,97,97,11,"[1, 0]",left,1,15,21,f,y,y,2019_Jul_12_1102,2AFC_task,59.94247919511154,
stimuli/rgb_scene000042_render000004.png,stimuli/rgb_scene000042_render000006.png,0,98,98,19,"[0, 1]",right,1,15,21,f,y,y,2019_Jul_12_1102,2AFC_task,59.94247919511154,
stimuli/rgb_scene000147_render000000.png,stimuli/rgb_scene000147_render000004.png,0,99,99,87,"[1, 0]",left,1,15,21,f,y,y,2019_Jul_12_1102,2AFC_task,59.94247919511154,
stimuli/rgb_scene000042_render000001.png,stimuli/rgb_scene000042_render000006.png,0,100,100,10,"[0, 1]",right,1,15,21,f,y,y,2019_Jul_12_1102,2AFC_task,59.94247919511154,
stimuli/rgb_scene000042_render000001.png,stimuli/rgb_scene000042_render000003.png,0,101,101,7,"[1, 0]",left,1,15,21,f,y,y,2019_Jul_12_1102,2AFC_task,59.94247919511154,
stimuli/rgb_scene000056_render000001.png,stimuli/rgb_scene000056_render000006.png,0,102,102,52,"[0, 1]",right,1,15,21,f,y,y,2019_Jul_12_1102,2AFC_task,59.94247919511154,
stimuli/rgb_scene000165_render000000.png,stimuli/rgb_scene000165_render000004.png,0,103,103,150,"[0, 1]",right,1,15,21,f,y,y,2019_Jul_12_1102,2AFC_task,59.94247919511154,
stimuli/rgb_scene000066_render000002.png,stimuli/rgb_scene000066_render000004.png,0,104,104,75,"[1, 0]",left,1,15,21,f,y,y,2019_Jul_12_1102,2AFC_task,59.94247919511154,
stimuli/rgb_scene000056_render000002.png,stimuli/rgb_scene000056_render000004.png,0,105,105,54,"[0, 1]",right,1,15,21,f,y,y,2019_Jul_12_1102,2AFC_task,59.94247919511154,
stimuli/rgb_scene000066_render000000.png,stimuli/rgb_scene000066_render000002.png,0,106,106,64,"[1, 0]",left,1,15,21,f,y,y,2019_Jul_12_1102,2AFC_task,59.94247919511154,
stimuli/rgb_scene000047_render000002.png,stimuli/rgb_scene000047_render000004.png,0,107,107,33,"[0, 1]",right,1,15,21,f,y,y,2019_Jul_12_1102,2AFC_task,59.94247919511154,
stimuli/rgb_scene000066_render000000.png,stimuli/rgb_scene000066_render000005.png,0,108,108,67,"[1, 0]",left,1,15,21,f,y,y,2019_Jul_12_1102,2AFC_task,59.94247919511154,
stimuli/rgb_scene000150_render000002.png,stimuli/rgb_scene000150_render000006.png,0,109,109,119,"[0, 1]",right,1,15,21,f,y,y,2019_Jul_12_1102,2AFC_task,59.94247919511154,
stimuli/rgb_scene000169_render000003.png,stimuli/rgb_scene000169_render000004.png,0,110,110,183,"[1, 0]",right,0,15,21,f,y,y,2019_Jul_12_1102,2AFC_task,59.94247919511154,
stimuli/rgb_scene000169_render000001.png,stimuli/rgb_scene000169_render000006.png,0,111,111,178,"[1, 0]",right,0,15,21,f,y,y,2019_Jul_12_1102,2AFC_task,59.94247919511154,
stimuli/rgb_scene000196_render000003.png,stimuli/rgb_scene000196_render000006.png,0,112,112,206,"[1, 0]",right,0,15,21,f,y,y,2019_Jul_12_1102,2AFC_task,59.94247919511154,
stimuli/rgb_scene000160_render000001.png,stimuli/rgb_scene000160_render000005.png,0,113,113,135,"[1, 0]",left,1,15,21,f,y,y,2019_Jul_12_1102,2AFC_task,59.94247919511154,
stimuli/rgb_scene000066_render000000.png,stimuli/rgb_scene000066_render000006.png,0,114,114,68,"[0, 1]",right,1,15,21,f,y,y,2019_Jul_12_1102,2AFC_task,59.94247919511154,
stimuli/rgb_scene000056_render000001.png,stimuli/rgb_scene000056_render000004.png,0,115,115,50,"[0, 1]",right,1,15,21,f,y,y,2019_Jul_12_1102,2AFC_task,59.94247919511154,
stimuli/rgb_scene000047_render000002.png,stimuli/rgb_scene000047_render000003.png,0,116,116,32,"[0, 1]",right,1,15,21,f,y,y,2019_Jul_12_1102,2AFC_task,59.94247919511154,
stimuli/rgb_scene000165_render000001.png,stimuli/rgb_scene000165_render000006.png,0,117,117,157,"[1, 0]",left,1,15,21,f,y,y,2019_Jul_12_1102,2AFC_task,59.94247919511154,
stimuli/rgb_scene000160_render000005.png,stimuli/rgb_scene000160_render000006.png,0,118,118,146,"[0, 1]",right,1,15,21,f,y,y,2019_Jul_12_1102,2AFC_task,59.94247919511154,
stimuli/rgb_scene000160_render000000.png,stimuli/rgb_scene000160_render000004.png,0,119,119,129,"[1, 0]",left,1,15,21,f,y,y,2019_Jul_12_1102,2AFC_task,59.94247919511154,
stimuli/rgb_scene000169_render000000.png,stimuli/rgb_scene000169_render000001.png,0,120,120,168,"[0, 1]",right,1,15,21,f,y,y,2019_Jul_12_1102,2AFC_task,59.94247919511154,
stimuli/rgb_scene000042_render000003.png,stimuli/rgb_scene000042_render000006.png,0,121,121,17,"[1, 0]",left,1,15,21,f,y,y,2019_Jul_12_1102,2AFC_task,59.94247919511154,
stimuli/rgb_scene000169_render000001.png,stimuli/rgb_scene000169_render000002.png,0,122,122,174,"[1, 0]",right,0,15,21,f,y,y,2019_Jul_12_1102,2AFC_task,59.94247919511154,
stimuli/rgb_scene000169_render000003.png,stimuli/rgb_scene000169_render000006.png,0,123,123,185,"[0, 1]",left,0,15,21,f,y,y,2019_Jul_12_1102,2AFC_task,59.94247919511154,
stimuli/rgb_scene000147_render000000.png,stimuli/rgb_scene000147_render000006.png,0,124,124,89,"[1, 0]",left,1,15,21,f,y,y,2019_Jul_12_1102,2AFC_task,59.94247919511154,
stimuli/rgb_scene000150_render000003.png,stimuli/rgb_scene000150_render000006.png,0,125,125,122,"[0, 1]",right,1,15,21,f,y,y,2019_Jul_12_1102,2AFC_task,59.94247919511154,
stimuli/rgb_scene000056_render000001.png,stimuli/rgb_scene000056_render000003.png,0,126,126,49,"[1, 0]",left,1,15,21,f,y,y,2019_Jul_12_1102,2AFC_task,59.94247919511154,
stimuli/rgb_scene000165_render000002.png,stimuli/rgb_scene000165_render000006.png,0,127,127,161,"[1, 0]",left,1,15,21,f,y,y,2019_Jul_12_1102,2AFC_task,59.94247919511154,
stimuli/rgb_scene000165_render000003.png,stimuli/rgb_scene000165_render000005.png,0,128,128,163,"[0, 1]",right,1,15,21,f,y,y,2019_Jul_12_1102,2AFC_task,59.94247919511154,
stimuli/rgb_scene000150_render000001.png,stimuli/rgb_scene000150_render000005.png,0,129,129,114,"[1, 0]",left,1,15,21,f,y,y,2019_Jul_12_1102,2AFC_task,59.94247919511154,
stimuli/rgb_scene000196_render000000.png,stimuli/rgb_scene000196_render000001.png,0,130,130,189,"[0, 1]",right,1,15,21,f,y,y,2019_Jul_12_1102,2AFC_task,59.94247919511154,
stimuli/rgb_scene000165_render000004.png,stimuli/rgb_scene000165_render000006.png,0,131,131,166,"[0, 1]",right,1,15,21,f,y,y,2019_Jul_12_1102,2AFC_task,59.94247919511154,
stimuli/rgb_scene000047_render000004.png,stimuli/rgb_scene000047_render000005.png,0,132,132,39,"[1, 0]",left,1,15,21,f,y,y,2019_Jul_12_1102,2AFC_task,59.94247919511154,
stimuli/rgb_scene000066_render000005.png,stimuli/rgb_scene000066_render000006.png,0,133,133,83,"[0, 1]",right,1,15,21,f,y,y,2019_Jul_12_1102,2AFC_task,59.94247919511154,
stimuli/rgb_scene000196_render000005.png,stimuli/rgb_scene000196_render000006.png,0,134,134,209,"[0, 1]",left,0,15,21,f,y,y,2019_Jul_12_1102,2AFC_task,59.94247919511154,
stimuli/rgb_scene000056_render000004.png,stimuli/rgb_scene000056_render000005.png,0,135,135,60,"[1, 0]",left,1,15,21,f,y,y,2019_Jul_12_1102,2AFC_task,59.94247919511154,
stimuli/rgb_scene000147_render000001.png,stimuli/rgb_scene000147_render000006.png,0,136,136,94,"[0, 1]",right,1,15,21,f,y,y,2019_Jul_12_1102,2AFC_task,59.94247919511154,
stimuli/rgb_scene000196_render000001.png,stimuli/rgb_scene000196_render000003.png,0,137,137,196,"[0, 1]",right,1,15,21,f,y,y,2019_Jul_12_1102,2AFC_task,59.94247919511154,
stimuli/rgb_scene000066_render000001.png,stimuli/rgb_scene000066_render000003.png,0,138,138,70,"[1, 0]",left,1,15,21,f,y,y,2019_Jul_12_1102,2AFC_task,59.94247919511154,
stimuli/rgb_scene000160_render000004.png,stimuli/rgb_scene000160_render000006.png,0,139,139,145,"[0, 1]",right,1,15,21,f,y,y,2019_Jul_12_1102,2AFC_task,59.94247919511154,
stimuli/rgb_scene000066_render000001.png,stimuli/rgb_scene000066_render000004.png,0,140,140,71,"[0, 1]",right,1,15,21,f,y,y,2019_Jul_12_1102,2AFC_task,59.94247919511154,
stimuli/rgb_scene000165_render000003.png,stimuli/rgb_scene000165_render000004.png,0,141,141,162,"[1, 0]",left,1,15,21,f,y,y,2019_Jul_12_1102,2AFC_task,59.94247919511154,
stimuli/rgb_scene000150_render000005.png,stimuli/rgb_scene000150_render000006.png,0,142,142,125,"[0, 1]",left,0,15,21,f,y,y,2019_Jul_12_1102,2AFC_task,59.94247919511154,
stimuli/rgb_scene000196_render000002.png,stimuli/rgb_scene000196_render000006.png,0,143,143,203,"[0, 1]",left,0,15,21,f,y,y,2019_Jul_12_1102,2AFC_task,59.94247919511154,
stimuli/rgb_scene000196_render000002.png,stimuli/rgb_scene000196_render000004.png,0,144,144,201,"[0, 1]",right,1,15,21,f,y,y,2019_Jul_12_1102,2AFC_task,59.94247919511154,
stimuli/rgb_scene000056_render000002.png,stimuli/rgb_scene000056_render000006.png,0,145,145,56,"[1, 0]",left,1,15,21,f,y,y,2019_Jul_12_1102,2AFC_task,59.94247919511154,
stimuli/rgb_scene000165_render000001.png,stimuli/rgb_scene000165_render000002.png,0,146,146,153,"[1, 0]",left,1,15,21,f,y,y,2019_Jul_12_1102,2AFC_task,59.94247919511154,
stimuli/rgb_scene000066_render000002.png,stimuli/rgb_scene000066_render000006.png,0,147,147,77,"[1, 0]",left,1,15,21,f,y,y,2019_Jul_12_1102,2AFC_task,59.94247919511154,
stimuli/rgb_scene000150_render000000.png,stimuli/rgb_scene000150_render000004.png,0,148,148,108,"[1, 0]",left,1,15,21,f,y,y,2019_Jul_12_1102,2AFC_task,59.94247919511154,
stimuli/rgb_scene000160_render000000.png,stimuli/rgb_scene000160_render000005.png,0,149,149,130,"[1, 0]",left,1,15,21,f,y,y,2019_Jul_12_1102,2AFC_task,59.94247919511154,
stimuli/rgb_scene000042_render000003.png,stimuli/rgb_scene000042_render000004.png,0,150,150,15,"[0, 1]",right,1,15,21,f,y,y,2019_Jul_12_1102,2AFC_task,59.94247919511154,
stimuli/rgb_scene000196_render000001.png,stimuli/rgb_scene000196_render000006.png,0,151,151,199,"[1, 0]",right,0,15,21,f,y,y,2019_Jul_12_1102,2AFC_task,59.94247919511154,
stimuli/rgb_scene000147_render000002.png,stimuli/rgb_scene000147_render000004.png,0,152,152,96,"[1, 0]",left,1,15,21,f,y,y,2019_Jul_12_1102,2AFC_task,59.94247919511154,
stimuli/rgb_scene000150_render000001.png,stimuli/rgb_scene000150_render000003.png,0,153,153,112,"[0, 1]",right,1,15,21,f,y,y,2019_Jul_12_1102,2AFC_task,59.94247919511154,
stimuli/rgb_scene000150_render000000.png,stimuli/rgb_scene000150_render000003.png,0,154,154,107,"[0, 1]",right,1,15,21,f,y,y,2019_Jul_12_1102,2AFC_task,59.94247919511154,
stimuli/rgb_scene000160_render000002.png,stimuli/rgb_scene000160_render000003.png,0,155,155,137,"[0, 1]",right,1,15,21,f,y,y,2019_Jul_12_1102,2AFC_task,59.94247919511154,
stimuli/rgb_scene000169_render000000.png,stimuli/rgb_scene000169_render000006.png,0,156,156,173,"[0, 1]",right,1,15,21,f,y,y,2019_Jul_12_1102,2AFC_task,59.94247919511154,
stimuli/rgb_scene000165_render000005.png,stimuli/rgb_scene000165_render000006.png,0,157,157,167,"[1, 0]",left,1,15,21,f,y,y,2019_Jul_12_1102,2AFC_task,59.94247919511154,
stimuli/rgb_scene000047_render000000.png,stimuli/rgb_scene000047_render000005.png,0,158,158,25,"[1, 0]",left,1,15,21,f,y,y,2019_Jul_12_1102,2AFC_task,59.94247919511154,
stimuli/rgb_scene000196_render000003.png,stimuli/rgb_scene000196_render000004.png,0,159,159,204,"[1, 0]",right,0,15,21,f,y,y,2019_Jul_12_1102,2AFC_task,59.94247919511154,
stimuli/rgb_scene000150_render000000.png,stimuli/rgb_scene000150_render000002.png,0,160,160,106,"[0, 1]",right,1,15,21,f,y,y,2019_Jul_12_1102,2AFC_task,59.94247919511154,
stimuli/rgb_scene000147_render000004.png,stimuli/rgb_scene000147_render000006.png,0,161,161,103,"[1, 0]",left,1,15,21,f,y,y,2019_Jul_12_1102,2AFC_task,59.94247919511154,
stimuli/rgb_scene000047_render000002.png,stimuli/rgb_scene000047_render000006.png,0,162,162,35,"[1, 0]",left,1,15,21,f,y,y,2019_Jul_12_1102,2AFC_task,59.94247919511154,
stimuli/rgb_scene000056_render000000.png,stimuli/rgb_scene000056_render000004.png,0,163,163,45,"[0, 1]",right,1,15,21,f,y,y,2019_Jul_12_1102,2AFC_task,59.94247919511154,
stimuli/rgb_scene000056_render000003.png,stimuli/rgb_scene000056_render000005.png,0,164,164,58,"[0, 1]",right,1,15,21,f,y,y,2019_Jul_12_1102,2AFC_task,59.94247919511154,
stimuli/rgb_scene000160_render000003.png,stimuli/rgb_scene000160_render000005.png,0,165,165,142,"[0, 1]",right,1,15,21,f,y,y,2019_Jul_12_1102,2AFC_task,59.94247919511154,
stimuli/rgb_scene000165_render000000.png,stimuli/rgb_scene000165_render000006.png,0,166,166,152,"[0, 1]",right,1,15,21,f,y,y,2019_Jul_12_1102,2AFC_task,59.94247919511154,
stimuli/rgb_scene000047_render000000.png,stimuli/rgb_scene000047_render000002.png,0,167,167,22,"[0, 1]",right,1,15,21,f,y,y,2019_Jul_12_1102,2AFC_task,59.94247919511154,
stimuli/rgb_scene000196_render000001.png,stimuli/rgb_scene000196_render000004.png,0,168,168,197,"[0, 1]",right,1,15,21,f,y,y,2019_Jul_12_1102,2AFC_task,59.94247919511154,
stimuli/rgb_scene000047_render000005.png,stimuli/rgb_scene000047_render000006.png,0,169,169,41,"[0, 1]",right,1,15,21,f,y,y,2019_Jul_12_1102,2AFC_task,59.94247919511154,
stimuli/rgb_scene000147_render000001.png,stimuli/rgb_scene000147_render000005.png,0,170,170,93,"[1, 0]",left,1,15,21,f,y,y,2019_Jul_12_1102,2AFC_task,59.94247919511154,
stimuli/rgb_scene000150_render000003.png,stimuli/rgb_scene000150_render000005.png,0,171,171,121,"[0, 1]",right,1,15,21,f,y,y,2019_Jul_12_1102,2AFC_task,59.94247919511154,
stimuli/rgb_scene000196_render000000.png,stimuli/rgb_scene000196_render000003.png,0,172,172,191,"[1, 0]",left,1,15,21,f,y,y,2019_Jul_12_1102,2AFC_task,59.94247919511154,
stimuli/rgb_scene000047_render000004.png,stimuli/rgb_scene000047_render000006.png,0,173,173,40,"[0, 1]",right,1,15,21,f,y,y,2019_Jul_12_1102,2AFC_task,59.94247919511154,
stimuli/rgb_scene000047_render000001.png,stimuli/rgb_scene000047_render000004.png,0,174,174,29,"[0, 1]",right,1,15,21,f,y,y,2019_Jul_12_1102,2AFC_task,59.94247919511154,
stimuli/rgb_scene000042_render000003.png,stimuli/rgb_scene000042_render000005.png,0,175,175,16,"[0, 1]",right,1,15,21,f,y,y,2019_Jul_12_1102,2AFC_task,59.94247919511154,
stimuli/rgb_scene000066_render000000.png,stimuli/rgb_scene000066_render000004.png,0,176,176,66,"[1, 0]",left,1,15,21,f,y,y,2019_Jul_12_1102,2AFC_task,59.94247919511154,
stimuli/rgb_scene000066_render000003.png,stimuli/rgb_scene000066_render000005.png,0,177,177,79,"[1, 0]",left,1,15,21,f,y,y,2019_Jul_12_1102,2AFC_task,59.94247919511154,
stimuli/rgb_scene000150_render000000.png,stimuli/rgb_scene000150_render000005.png,0,178,178,109,"[1, 0]",left,1,15,21,f,y,y,2019_Jul_12_1102,2AFC_task,59.94247919511154,
stimuli/rgb_scene000196_render000000.png,stimuli/rgb_scene000196_render000002.png,0,179,179,190,"[0, 1]",right,1,15,21,f,y,y,2019_Jul_12_1102,2AFC_task,59.94247919511154,
stimuli/rgb_scene000160_render000001.png,stimuli/rgb_scene000160_render000004.png,0,180,180,134,"[1, 0]",left,1,15,21,f,y,y,2019_Jul_12_1102,2AFC_task,59.94247919511154,
stimuli/rgb_scene000042_render000000.png,stimuli/rgb_scene000042_render000006.png,0,181,181,5,"[0, 1]",right,1,15,21,f,y,y,2019_Jul_12_1102,2AFC_task,59.94247919511154,
stimuli/rgb_scene000196_render000000.png,stimuli/rgb_scene000196_render000005.png,0,182,182,193,"[0, 1]",right,1,15,21,f,y,y,2019_Jul_12_1102,2AFC_task,59.94247919511154,
stimuli/rgb_scene000150_render000000.png,stimuli/rgb_scene000150_render000001.png,0,183,183,105,"[1, 0]",left,1,15,21,f,y,y,2019_Jul_12_1102,2AFC_task,59.94247919511154,
stimuli/rgb_scene000196_render000001.png,stimuli/rgb_scene000196_render000005.png,0,184,184,198,"[0, 1]",right,1,15,21,f,y,y,2019_Jul_12_1102,2AFC_task,59.94247919511154,
stimuli/rgb_scene000042_render000000.png,stimuli/rgb_scene000042_render000004.png,0,185,185,3,"[0, 1]",right,1,15,21,f,y,y,2019_Jul_12_1102,2AFC_task,59.94247919511154,
stimuli/rgb_scene000160_render000003.png,stimuli/rgb_scene000160_render000006.png,0,186,186,143,"[1, 0]",left,1,15,21,f,y,y,2019_Jul_12_1102,2AFC_task,59.94247919511154,
stimuli/rgb_scene000047_render000000.png,stimuli/rgb_scene000047_render000006.png,0,187,187,26,"[1, 0]",left,1,15,21,f,y,y,2019_Jul_12_1102,2AFC_task,59.94247919511154,
stimuli/rgb_scene000056_render000000.png,stimuli/rgb_scene000056_render000002.png,0,188,188,43,"[1, 0]",left,1,15,21,f,y,y,2019_Jul_12_1102,2AFC_task,59.94247919511154,
stimuli/rgb_scene000165_render000000.png,stimuli/rgb_scene000165_render000005.png,0,189,189,151,"[1, 0]",left,1,15,21,f,y,y,2019_Jul_12_1102,2AFC_task,59.94247919511154,
stimuli/rgb_scene000066_render000004.png,stimuli/rgb_scene000066_render000006.png,0,190,190,82,"[1, 0]",left,1,15,21,f,y,y,2019_Jul_12_1102,2AFC_task,59.94247919511154,
stimuli/rgb_scene000169_render000002.png,stimuli/rgb_scene000169_render000004.png,0,191,191,180,"[1, 0]",right,0,15,21,f,y,y,2019_Jul_12_1102,2AFC_task,59.94247919511154,
stimuli/rgb_scene000160_render000000.png,stimuli/rgb_scene000160_render000002.png,0,192,192,127,"[1, 0]",left,1,15,21,f,y,y,2019_Jul_12_1102,2AFC_task,59.94247919511154,
stimuli/rgb_scene000047_render000001.png,stimuli/rgb_scene000047_render000003.png,0,193,193,28,"[0, 1]",right,1,15,21,f,y,y,2019_Jul_12_1102,2AFC_task,59.94247919511154,
stimuli/rgb_scene000165_render000002.png,stimuli/rgb_scene000165_render000003.png,0,194,194,158,"[0, 1]",right,1,15,21,f,y,y,2019_Jul_12_1102,2AFC_task,59.94247919511154,
stimuli/rgb_scene000042_render000002.png,stimuli/rgb_scene000042_render000006.png,0,195,195,14,"[1, 0]",left,1,15,21,f,y,y,2019_Jul_12_1102,2AFC_task,59.94247919511154,
stimuli/rgb_scene000169_render000002.png,stimuli/rgb_scene000169_render000006.png,0,196,196,182,"[0, 1]",left,0,15,21,f,y,y,2019_Jul_12_1102,2AFC_task,59.94247919511154,
stimuli/rgb_scene000047_render000000.png,stimuli/rgb_scene000047_render000001.png,0,197,197,21,"[1, 0]",left,1,15,21,f,y,y,2019_Jul_12_1102,2AFC_task,59.94247919511154,
stimuli/rgb_scene000066_render000004.png,stimuli/rgb_scene000066_render000005.png,0,198,198,81,"[0, 1]",right,1,15,21,f,y,y,2019_Jul_12_1102,2AFC_task,59.94247919511154,
stimuli/rgb_scene000150_render000001.png,stimuli/rgb_scene000150_render000006.png,0,199,199,115,"[0, 1]",right,1,15,21,f,y,y,2019_Jul_12_1102,2AFC_task,59.94247919511154,
stimuli/rgb_scene000196_render000002.png,stimuli/rgb_scene000196_render000005.png,0,200,200,202,"[0, 1]",right,1,15,21,f,y,y,2019_Jul_12_1102,2AFC_task,59.94247919511154,
stimuli/rgb_scene000169_render000005.png,stimuli/rgb_scene000169_render000006.png,0,201,201,188,"[0, 1]",right,1,15,21,f,y,y,2019_Jul_12_1102,2AFC_task,59.94247919511154,
stimuli/rgb_scene000066_render000000.png,stimuli/rgb_scene000066_render000001.png,0,202,202,63,"[0, 1]",right,1,15,21,f,y,y,2019_Jul_12_1102,2AFC_task,59.94247919511154,
stimuli/rgb_scene000160_render000000.png,stimuli/rgb_scene000160_render000003.png,0,203,203,128,"[1, 0]",left,1,15,21,f,y,y,2019_Jul_12_1102,2AFC_task,59.94247919511154,
stimuli/rgb_scene000047_render000003.png,stimuli/rgb_scene000047_render000004.png,0,204,204,36,"[0, 1]",right,1,15,21,f,y,y,2019_Jul_12_1102,2AFC_task,59.94247919511154,
stimuli/rgb_scene000047_render000000.png,stimuli/rgb_scene000047_render000004.png,0,205,205,24,"[0, 1]",right,1,15,21,f,y,y,2019_Jul_12_1102,2AFC_task,59.94247919511154,
stimuli/rgb_scene000150_render000000.png,stimuli/rgb_scene000150_render000006.png,0,206,206,110,"[1, 0]",left,1,15,21,f,y,y,2019_Jul_12_1102,2AFC_task,59.94247919511154,
stimuli/rgb_scene000042_render000000.png,stimuli/rgb_scene000042_render000001.png,0,207,207,0,"[0, 1]",right,1,15,21,f,y,y,2019_Jul_12_1102,2AFC_task,59.94247919511154,
stimuli/rgb_scene000160_render000002.png,stimuli/rgb_scene000160_render000005.png,0,208,208,139,"[0, 1]",right,1,15,21,f,y,y,2019_Jul_12_1102,2AFC_task,59.94247919511154,
stimuli/rgb_scene000066_render000002.png,stimuli/rgb_scene000066_render000005.png,0,209,209,76,"[0, 1]",right,1,15,21,f,y,y,2019_Jul_12_1102,2AFC_task,59.94247919511154,
stimuli/rgb_scene000056_render000001.png,stimuli/rgb_scene000056_render000005.png,1,0,210,51,"[1, 0]",left,1,15,21,f,y,y,2019_Jul_12_1102,2AFC_task,59.94247919511154,
stimuli/rgb_scene000056_render000004.png,stimuli/rgb_scene000056_render000006.png,1,1,211,61,"[1, 0]",left,1,15,21,f,y,y,2019_Jul_12_1102,2AFC_task,59.94247919511154,
stimuli/rgb_scene000042_render000000.png,stimuli/rgb_scene000042_render000003.png,1,2,212,2,"[0, 1]",right,1,15,21,f,y,y,2019_Jul_12_1102,2AFC_task,59.94247919511154,
stimuli/rgb_scene000150_render000004.png,stimuli/rgb_scene000150_render000006.png,1,3,213,124,"[0, 1]",right,1,15,21,f,y,y,2019_Jul_12_1102,2AFC_task,59.94247919511154,
stimuli/rgb_scene000169_render000004.png,stimuli/rgb_scene000169_render000006.png,1,4,214,187,"[1, 0]",right,0,15,21,f,y,y,2019_Jul_12_1102,2AFC_task,59.94247919511154,
stimuli/rgb_scene000047_render000000.png,stimuli/rgb_scene000047_render000005.png,1,5,215,25,"[0, 1]",right,1,15,21,f,y,y,2019_Jul_12_1102,2AFC_task,59.94247919511154,
stimuli/rgb_scene000150_render000000.png,stimuli/rgb_scene000150_render000002.png,1,6,216,106,"[0, 1]",right,1,15,21,f,y,y,2019_Jul_12_1102,2AFC_task,59.94247919511154,
stimuli/rgb_scene000160_render000004.png,stimuli/rgb_scene000160_render000006.png,1,7,217,145,"[0, 1]",right,1,15,21,f,y,y,2019_Jul_12_1102,2AFC_task,59.94247919511154,
stimuli/rgb_scene000169_render000001.png,stimuli/rgb_scene000169_render000004.png,1,8,218,176,"[0, 1]",left,0,15,21,f,y,y,2019_Jul_12_1102,2AFC_task,59.94247919511154,
stimuli/rgb_scene000147_render000001.png,stimuli/rgb_scene000147_render000006.png,1,9,219,94,"[1, 0]",left,1,15,21,f,y,y,2019_Jul_12_1102,2AFC_task,59.94247919511154,
stimuli/rgb_scene000165_render000000.png,stimuli/rgb_scene000165_render000002.png,1,10,220,148,"[0, 1]",right,1,15,21,f,y,y,2019_Jul_12_1102,2AFC_task,59.94247919511154,
stimuli/rgb_scene000196_render000002.png,stimuli/rgb_scene000196_render000006.png,1,11,221,203,"[1, 0]",right,0,15,21,f,y,y,2019_Jul_12_1102,2AFC_task,59.94247919511154,
stimuli/rgb_scene000196_render000000.png,stimuli/rgb_scene000196_render000002.png,1,12,222,190,"[0, 1]",right,1,15,21,f,y,y,2019_Jul_12_1102,2AFC_task,59.94247919511154,
stimuli/rgb_scene000165_render000003.png,stimuli/rgb_scene000165_render000005.png,1,13,223,163,"[1, 0]",left,1,15,21,f,y,y,2019_Jul_12_1102,2AFC_task,59.94247919511154,
stimuli/rgb_scene000169_render000003.png,stimuli/rgb_scene000169_render000005.png,1,14,224,184,"[1, 0]",right,0,15,21,f,y,y,2019_Jul_12_1102,2AFC_task,59.94247919511154,
stimuli/rgb_scene000165_render000000.png,stimuli/rgb_scene000165_render000005.png,1,15,225,151,"[0, 1]",right,1,15,21,f,y,y,2019_Jul_12_1102,2AFC_task,59.94247919511154,
stimuli/rgb_scene000056_render000002.png,stimuli/rgb_scene000056_render000006.png,1,16,226,56,"[0, 1]",right,1,15,21,f,y,y,2019_Jul_12_1102,2AFC_task,59.94247919511154,
stimuli/rgb_scene000169_render000001.png,stimuli/rgb_scene000169_render000003.png,1,17,227,175,"[1, 0]",right,0,15,21,f,y,y,2019_Jul_12_1102,2AFC_task,59.94247919511154,
stimuli/rgb_scene000147_render000001.png,stimuli/rgb_scene000147_render000005.png,1,18,228,93,"[1, 0]",left,1,15,21,f,y,y,2019_Jul_12_1102,2AFC_task,59.94247919511154,
stimuli/rgb_scene000047_render000004.png,stimuli/rgb_scene000047_render000005.png,1,19,229,39,"[1, 0]",left,1,15,21,f,y,y,2019_Jul_12_1102,2AFC_task,59.94247919511154,
stimuli/rgb_scene000042_render000003.png,stimuli/rgb_scene000042_render000005.png,1,20,230,16,"[1, 0]",left,1,15,21,f,y,y,2019_Jul_12_1102,2AFC_task,59.94247919511154,
stimuli/rgb_scene000165_render000004.png,stimuli/rgb_scene000165_render000006.png,1,21,231,166,"[0, 1]",right,1,15,21,f,y,y,2019_Jul_12_1102,2AFC_task,59.94247919511154,
stimuli/rgb_scene000165_render000000.png,stimuli/rgb_scene000165_render000006.png,1,22,232,152,"[1, 0]",left,1,15,21,f,y,y,2019_Jul_12_1102,2AFC_task,59.94247919511154,
stimuli/rgb_scene000160_render000000.png,stimuli/rgb_scene000160_render000002.png,1,23,233,127,"[0, 1]",right,1,15,21,f,y,y,2019_Jul_12_1102,2AFC_task,59.94247919511154,
stimuli/rgb_scene000196_render000003.png,stimuli/rgb_scene000196_render000006.png,1,24,234,206,"[0, 1]",left,0,15,21,f,y,y,2019_Jul_12_1102,2AFC_task,59.94247919511154,
stimuli/rgb_scene000042_render000001.png,stimuli/rgb_scene000042_render000002.png,1,25,235,6,"[0, 1]",right,1,15,21,f,y,y,2019_Jul_12_1102,2AFC_task,59.94247919511154,
stimuli/rgb_scene000066_render000004.png,stimuli/rgb_scene000066_render000005.png,1,26,236,81,"[1, 0]",left,1,15,21,f,y,y,2019_Jul_12_1102,2AFC_task,59.94247919511154,
stimuli/rgb_scene000047_render000000.png,stimuli/rgb_scene000047_render000006.png,1,27,237,26,"[0, 1]",right,1,15,21,f,y,y,2019_Jul_12_1102,2AFC_task,59.94247919511154,
stimuli/rgb_scene000147_render000000.png,stimuli/rgb_scene000147_render000006.png,1,28,238,89,"[1, 0]",left,1,15,21,f,y,y,2019_Jul_12_1102,2AFC_task,59.94247919511154,
stimuli/rgb_scene000147_render000000.png,stimuli/rgb_scene000147_render000001.png,1,29,239,84,"[0, 1]",right,1,15,21,f,y,y,2019_Jul_12_1102,2AFC_task,59.94247919511154,
stimuli/rgb_scene000056_render000003.png,stimuli/rgb_scene000056_render000004.png,1,30,240,57,"[0, 1]",right,1,15,21,f,y,y,2019_Jul_12_1102,2AFC_task,59.94247919511154,
stimuli/rgb_scene000147_render000005.png,stimuli/rgb_scene000147_render000006.png,1,31,241,104,"[0, 1]",right,1,15,21,f,y,y,2019_Jul_12_1102,2AFC_task,59.94247919511154,
stimuli/rgb_scene000196_render000002.png,stimuli/rgb_scene000196_render000003.png,1,32,242,200,"[1, 0]",right,0,15,21,f,y,y,2019_Jul_12_1102,2AFC_task,59.94247919511154,
stimuli/rgb_scene000160_render000000.png,stimuli/rgb_scene000160_render000003.png,1,33,243,128,"[1, 0]",left,1,15,21,f,y,y,2019_Jul_12_1102,2AFC_task,59.94247919511154,
stimuli/rgb_scene000169_render000000.png,stimuli/rgb_scene000169_render000003.png,1,34,244,170,"[0, 1]",right,1,15,21,f,y,y,2019_Jul_12_1102,2AFC_task,59.94247919511154,
stimuli/rgb_scene000066_render000000.png,stimuli/rgb_scene000066_render000001.png,1,35,245,63,"[1, 0]",left,1,15,21,f,y,y,2019_Jul_12_1102,2AFC_task,59.94247919511154,
stimuli/rgb_scene000196_render000004.png,stimuli/rgb_scene000196_render000006.png,1,36,246,208,"[1, 0]",right,0,15,21,f,y,y,2019_Jul_12_1102,2AFC_task,59.94247919511154,
stimuli/rgb_scene000169_render000000.png,stimuli/rgb_scene000169_render000006.png,1,37,247,173,"[1, 0]",right,0,15,21,f,y,y,2019_Jul_12_1102,2AFC_task,59.94247919511154,
stimuli/rgb_scene000042_render000002.png,stimuli/rgb_scene000042_render000006.png,1,38,248,14,"[0, 1]",right,1,15,21,f,y,y,2019_Jul_12_1102,2AFC_task,59.94247919511154,
stimuli/rgb_scene000066_render000003.png,stimuli/rgb_scene000066_render000005.png,1,39,249,79,"[0, 1]",right,1,15,21,f,y,y,2019_Jul_12_1102,2AFC_task,59.94247919511154,
stimuli/rgb_scene000196_render000003.png,stimuli/rgb_scene000196_render000004.png,1,40,250,204,"[0, 1]",right,1,15,21,f,y,y,2019_Jul_12_1102,2AFC_task,59.94247919511154,
stimuli/rgb_scene000042_render000001.png,stimuli/rgb_scene000042_render000004.png,1,41,251,8,"[1, 0]",left,1,15,21,f,y,y,2019_Jul_12_1102,2AFC_task,59.94247919511154,
stimuli/rgb_scene000160_render000003.png,stimuli/rgb_scene000160_render000005.png,1,42,252,142,"[1, 0]",left,1,15,21,f,y,y,2019_Jul_12_1102,2AFC_task,59.94247919511154,
stimuli/rgb_scene000066_render000001.png,stimuli/rgb_scene000066_render000005.png,1,43,253,72,"[0, 1]",right,1,15,21,f,y,y,2019_Jul_12_1102,2AFC_task,59.94247919511154,
stimuli/rgb_scene000066_render000000.png,stimuli/rgb_scene000066_render000003.png,1,44,254,65,"[0, 1]",right,1,15,21,f,y,y,2019_Jul_12_1102,2AFC_task,59.94247919511154,
stimuli/rgb_scene000165_render000002.png,stimuli/rgb_scene000165_render000004.png,1,45,255,159,"[0, 1]",right,1,15,21,f,y,y,2019_Jul_12_1102,2AFC_task,59.94247919511154,
stimuli/rgb_scene000196_render000000.png,stimuli/rgb_scene000196_render000006.png,1,46,256,194,"[1, 0]",left,1,15,21,f,y,y,2019_Jul_12_1102,2AFC_task,59.94247919511154,
stimuli/rgb_scene000150_render000001.png,stimuli/rgb_scene000150_render000003.png,1,47,257,112,"[0, 1]",right,1,15,21,f,y,y,2019_Jul_12_1102,2AFC_task,59.94247919511154,
stimuli/rgb_scene000066_render000000.png,stimuli/rgb_scene000066_render000004.png,1,48,258,66,"[1, 0]",left,1,15,21,f,y,y,2019_Jul_12_1102,2AFC_task,59.94247919511154,
stimuli/rgb_scene000150_render000003.png,stimuli/rgb_scene000150_render000006.png,1,49,259,122,"[1, 0]",left,1,15,21,f,y,y,2019_Jul_12_1102,2AFC_task,59.94247919511154,
stimuli/rgb_scene000047_render000005.png,stimuli/rgb_scene000047_render000006.png,1,50,260,41,"[0, 1]",right,1,15,21,f,y,y,2019_Jul_12_1102,2AFC_task,59.94247919511154,
stimuli/rgb_scene000160_render000001.png,stimuli/rgb_scene000160_render000006.png,1,51,261,136,"[0, 1]",right,1,15,21,f,y,y,2019_Jul_12_1102,2AFC_task,59.94247919511154,
stimuli/rgb_scene000150_render000001.png,stimuli/rgb_scene000150_render000005.png,1,52,262,114,"[1, 0]",left,1,15,21,f,y,y,2019_Jul_12_1102,2AFC_task,59.94247919511154,
stimuli/rgb_scene000066_render000002.png,stimuli/rgb_scene000066_render000003.png,1,53,263,74,"[0, 1]",right,1,15,21,f,y,y,2019_Jul_12_1102,2AFC_task,59.94247919511154,
stimuli/rgb_scene000056_render000000.png,stimuli/rgb_scene000056_render000001.png,1,54,264,42,"[0, 1]",right,1,15,21,f,y,y,2019_Jul_12_1102,2AFC_task,59.94247919511154,
stimuli/rgb_scene000147_render000002.png,stimuli/rgb_scene000147_render000006.png,1,55,265,98,"[1, 0]",left,1,15,21,f,y,y,2019_Jul_12_1102,2AFC_task,59.94247919511154,
stimuli/rgb_scene000056_render000000.png,stimuli/rgb_scene000056_render000004.png,1,56,266,45,"[1, 0]",left,1,15,21,f,y,y,2019_Jul_12_1102,2AFC_task,59.94247919511154,
stimuli/rgb_scene000047_render000000.png,stimuli/rgb_scene000047_render000004.png,1,57,267,24,"[1, 0]",left,1,15,21,f,y,y,2019_Jul_12_1102,2AFC_task,59.94247919511154,
stimuli/rgb_scene000196_render000002.png,stimuli/rgb_scene000196_render000005.png,1,58,268,202,"[1, 0]",left,1,15,21,f,y,y,2019_Jul_12_1102,2AFC_task,59.94247919511154,
stimuli/rgb_scene000056_render000005.png,stimuli/rgb_scene000056_render000006.png,1,59,269,62,"[0, 1]",right,1,15,21,f,y,y,2019_Jul_12_1102,2AFC_task,59.94247919511154,
stimuli/rgb_scene000160_render000000.png,stimuli/rgb_scene000160_render000005.png,1,60,270,130,"[0, 1]",right,1,15,21,f,y,y,2019_Jul_12_1102,2AFC_task,59.94247919511154,
stimuli/rgb_scene000169_render000002.png,stimuli/rgb_scene000169_render000004.png,1,61,271,180,"[0, 1]",left,0,15,21,f,y,y,2019_Jul_12_1102,2AFC_task,59.94247919511154,
stimuli/rgb_scene000047_render000001.png,stimuli/rgb_scene000047_render000002.png,1,62,272,27,"[1, 0]",left,1,15,21,f,y,y,2019_Jul_12_1102,2AFC_task,59.94247919511154,
stimuli/rgb_scene000056_render000001.png,stimuli/rgb_scene000056_render000006.png,1,63,273,52,"[1, 0]",left,1,15,21,f,y,y,2019_Jul_12_1102,2AFC_task,59.94247919511154,
stimuli/rgb_scene000066_render000001.png,stimuli/rgb_scene000066_render000003.png,1,64,274,70,"[0, 1]",right,1,15,21,f,y,y,2019_Jul_12_1102,2AFC_task,59.94247919511154,
stimuli/rgb_scene000196_render000001.png,stimuli/rgb_scene000196_render000003.png,1,65,275,196,"[1, 0]",left,1,15,21,f,y,y,2019_Jul_12_1102,2AFC_task,59.94247919511154,
stimuli/rgb_scene000147_render000002.png,stimuli/rgb_scene000147_render000004.png,1,66,276,96,"[1, 0]",left,1,15,21,f,y,y,2019_Jul_12_1102,2AFC_task,59.94247919511154,
stimuli/rgb_scene000165_render000001.png,stimuli/rgb_scene000165_render000003.png,1,67,277,154,"[0, 1]",right,1,15,21,f,y,y,2019_Jul_12_1102,2AFC_task,59.94247919511154,
stimuli/rgb_scene000056_render000001.png,stimuli/rgb_scene000056_render000004.png,1,68,278,50,"[0, 1]",right,1,15,21,f,y,y,2019_Jul_12_1102,2AFC_task,59.94247919511154,
stimuli/rgb_scene000160_render000001.png,stimuli/rgb_scene000160_render000003.png,1,69,279,133,"[1, 0]",left,1,15,21,f,y,y,2019_Jul_12_1102,2AFC_task,59.94247919511154,
stimuli/rgb_scene000165_render000002.png,stimuli/rgb_scene000165_render000003.png,1,70,280,158,"[0, 1]",right,1,15,21,f,y,y,2019_Jul_12_1102,2AFC_task,59.94247919511154,
stimuli/rgb_scene000196_render000001.png,stimuli/rgb_scene000196_render000002.png,1,71,281,195,"[0, 1]",right,1,15,21,f,y,y,2019_Jul_12_1102,2AFC_task,59.94247919511154,
stimuli/rgb_scene000150_render000003.png,stimuli/rgb_scene000150_render000004.png,1,72,282,120,"[0, 1]",right,1,15,21,f,y,y,2019_Jul_12_1102,2AFC_task,59.94247919511154,
stimuli/rgb_scene000196_render000001.png,stimuli/rgb_scene000196_render000004.png,1,73,283,197,"[1, 0]",left,1,15,21,f,y,y,2019_Jul_12_1102,2AFC_task,59.94247919511154,
stimuli/rgb_scene000160_render000000.png,stimuli/rgb_scene000160_render000001.png,1,74,284,126,"[0, 1]",right,1,15,21,f,y,y,2019_Jul_12_1102,2AFC_task,59.94247919511154,
stimuli/rgb_scene000165_render000000.png,stimuli/rgb_scene000165_render000003.png,1,75,285,149,"[0, 1]",right,1,15,21,f,y,y,2019_Jul_12_1102,2AFC_task,59.94247919511154,
stimuli/rgb_scene000066_render000003.png,stimuli/rgb_scene000066_render000006.png,1,76,286,80,"[1, 0]",left,1,15,21,f,y,y,2019_Jul_12_1102,2AFC_task,59.94247919511154,
stimuli/rgb_scene000165_render000003.png,stimuli/rgb_scene000165_render000006.png,1,77,287,164,"[0, 1]",right,1,15,21,f,y,y,2019_Jul_12_1102,2AFC_task,59.94247919511154,
stimuli/rgb_scene000042_render000005.png,stimuli/rgb_scene000042_render000006.png,1,78,288,20,"[1, 0]",left,1,15,21,f,y,y,2019_Jul_12_1102,2AFC_task,59.94247919511154,
stimuli/rgb_scene000056_render000003.png,stimuli/rgb_scene000056_render000005.png,1,79,289,58,"[1, 0]",left,1,15,21,f,y,y,2019_Jul_12_1102,2AFC_task,59.94247919511154,
stimuli/rgb_scene000147_render000002.png,stimuli/rgb_scene000147_render000003.png,1,80,290,95,"[0, 1]",right,1,15,21,f,y,y,2019_Jul_12_1102,2AFC_task,59.94247919511154,
stimuli/rgb_scene000169_render000001.png,stimuli/rgb_scene000169_render000002.png,1,81,291,174,"[0, 1]",right,1,15,21,f,y,y,2019_Jul_12_1102,2AFC_task,59.94247919511154,
stimuli/rgb_scene000147_render000004.png,stimuli/rgb_scene000147_render000005.png,1,82,292,102,"[1, 0]",left,1,15,21,f,y,y,2019_Jul_12_1102,2AFC_task,59.94247919511154,
stimuli/rgb_scene000066_render000002.png,stimuli/rgb_scene000066_render000006.png,1,83,293,77,"[1, 0]",left,1,15,21,f,y,y,2019_Jul_12_1102,2AFC_task,59.94247919511154,
stimuli/rgb_scene000047_render000001.png,stimuli/rgb_scene000047_render000003.png,1,84,294,28,"[1, 0]",left,1,15,21,f,y,y,2019_Jul_12_1102,2AFC_task,59.94247919511154,
stimuli/rgb_scene000165_render000004.png,stimuli/rgb_scene000165_render000005.png,1,85,295,165,"[0, 1]",right,1,15,21,f,y,y,2019_Jul_12_1102,2AFC_task,59.94247919511154,
stimuli/rgb_scene000042_render000001.png,stimuli/rgb_scene000042_render000006.png,1,86,296,10,"[1, 0]",left,1,15,21,f,y,y,2019_Jul_12_1102,2AFC_task,59.94247919511154,
stimuli/rgb_scene000056_render000004.png,stimuli/rgb_scene000056_render000005.png,1,87,297,60,"[1, 0]",left,1,15,21,f,y,y,2019_Jul_12_1102,2AFC_task,59.94247919511154,
stimuli/rgb_scene000150_render000005.png,stimuli/rgb_scene000150_render000006.png,1,88,298,125,"[1, 0]",right,0,15,21,f,y,y,2019_Jul_12_1102,2AFC_task,59.94247919511154,
stimuli/rgb_scene000165_render000003.png,stimuli/rgb_scene000165_render000004.png,1,89,299,162,"[1, 0]",left,1,15,21,f,y,y,2019_Jul_12_1102,2AFC_task,59.94247919511154,
stimuli/rgb_scene000160_render000004.png,stimuli/rgb_scene000160_render000005.png,1,90,300,144,"[0, 1]",right,1,15,21,f,y,y,2019_Jul_12_1102,2AFC_task,59.94247919511154,
stimuli/rgb_scene000056_render000002.png,stimuli/rgb_scene000056_render000003.png,1,91,301,53,"[1, 0]",left,1,15,21,f,y,y,2019_Jul_12_1102,2AFC_task,59.94247919511154,
stimuli/rgb_scene000160_render000005.png,stimuli/rgb_scene000160_render000006.png,1,92,302,146,"[0, 1]",right,1,15,21,f,y,y,2019_Jul_12_1102,2AFC_task,59.94247919511154,
stimuli/rgb_scene000047_render000002.png,stimuli/rgb_scene000047_render000004.png,1,93,303,33,"[0, 1]",right,1,15,21,f,y,y,2019_Jul_12_1102,2AFC_task,59.94247919511154,
stimuli/rgb_scene000042_render000004.png,stimuli/rgb_scene000042_render000005.png,1,94,304,18,"[1, 0]",left,1,15,21,f,y,y,2019_Jul_12_1102,2AFC_task,59.94247919511154,
stimuli/rgb_scene000150_render000002.png,stimuli/rgb_scene000150_render000005.png,1,95,305,118,"[0, 1]",right,1,15,21,f,y,y,2019_Jul_12_1102,2AFC_task,59.94247919511154,
stimuli/rgb_scene000169_render000002.png,stimuli/rgb_scene000169_render000003.png,1,96,306,179,"[1, 0]",right,0,15,21,f,y,y,2019_Jul_12_1102,2AFC_task,59.94247919511154,
stimuli/rgb_scene000165_render000000.png,stimuli/rgb_scene000165_render000001.png,1,97,307,147,"[1, 0]",left,1,15,21,f,y,y,2019_Jul_12_1102,2AFC_task,59.94247919511154,
stimuli/rgb_scene000066_render000001.png,stimuli/rgb_scene000066_render000006.png,1,98,308,73,"[1, 0]",left,1,15,21,f,y,y,2019_Jul_12_1102,2AFC_task,59.94247919511154,
stimuli/rgb_scene000150_render000000.png,stimuli/rgb_scene000150_render000003.png,1,99,309,107,"[0, 1]",right,1,15,21,f,y,y,2019_Jul_12_1102,2AFC_task,59.94247919511154,
stimuli/rgb_scene000196_render000001.png,stimuli/rgb_scene000196_render000005.png,1,100,310,198,"[1, 0]",left,1,15,21,f,y,y,2019_Jul_12_1102,2AFC_task,59.94247919511154,
stimuli/rgb_scene000160_render000002.png,stimuli/rgb_scene000160_render000004.png,1,101,311,138,"[1, 0]",left,1,15,21,f,y,y,2019_Jul_12_1102,2AFC_task,59.94247919511154,
stimuli/rgb_scene000147_render000003.png,stimuli/rgb_scene000147_render000004.png,1,102,312,99,"[1, 0]",left,1,15,21,f,y,y,2019_Jul_12_1102,2AFC_task,59.94247919511154,
stimuli/rgb_scene000042_render000002.png,stimuli/rgb_scene000042_render000005.png,1,103,313,13,"[1, 0]",left,1,15,21,f,y,y,2019_Jul_12_1102,2AFC_task,59.94247919511154,
stimuli/rgb_scene000196_render000001.png,stimuli/rgb_scene000196_render000006.png,1,104,314,199,"[1, 0]",right,0,15,21,f,y,y,2019_Jul_12_1102,2AFC_task,59.94247919511154,
stimuli/rgb_scene000147_render000002.png,stimuli/rgb_scene000147_render000005.png,1,105,315,97,"[1, 0]",left,1,15,21,f,y,y,2019_Jul_12_1102,2AFC_task,59.94247919511154,
stimuli/rgb_scene000066_render000001.png,stimuli/rgb_scene000066_render000004.png,1,106,316,71,"[1, 0]",left,1,15,21,f,y,y,2019_Jul_12_1102,2AFC_task,59.94247919511154,
stimuli/rgb_scene000160_render000002.png,stimuli/rgb_scene000160_render000006.png,1,107,317,140,"[0, 1]",right,1,15,21,f,y,y,2019_Jul_12_1102,2AFC_task,59.94247919511154,
stimuli/rgb_scene000196_render000000.png,stimuli/rgb_scene000196_render000005.png,1,108,318,193,"[0, 1]",right,1,15,21,f,y,y,2019_Jul_12_1102,2AFC_task,59.94247919511154,
stimuli/rgb_scene000165_render000000.png,stimuli/rgb_scene000165_render000004.png,1,109,319,150,"[1, 0]",left,1,15,21,f,y,y,2019_Jul_12_1102,2AFC_task,59.94247919511154,
stimuli/rgb_scene000042_render000001.png,stimuli/rgb_scene000042_render000003.png,1,110,320,7,"[0, 1]",right,1,15,21,f,y,y,2019_Jul_12_1102,2AFC_task,59.94247919511154,
stimuli/rgb_scene000047_render000000.png,stimuli/rgb_scene000047_render000002.png,1,111,321,22,"[0, 1]",right,1,15,21,f,y,y,2019_Jul_12_1102,2AFC_task,59.94247919511154,
stimuli/rgb_scene000047_render000003.png,stimuli/rgb_scene000047_render000005.png,1,112,322,37,"[0, 1]",right,1,15,21,f,y,y,2019_Jul_12_1102,2AFC_task,59.94247919511154,
stimuli/rgb_scene000150_render000003.png,stimuli/rgb_scene000150_render000005.png,1,113,323,121,"[0, 1]",right,1,15,21,f,y,y,2019_Jul_12_1102,2AFC_task,59.94247919511154,
stimuli/rgb_scene000165_render000002.png,stimuli/rgb_scene000165_render000006.png,1,114,324,161,"[0, 1]",right,1,15,21,f,y,y,2019_Jul_12_1102,2AFC_task,59.94247919511154,
stimuli/rgb_scene000047_render000003.png,stimuli/rgb_scene000047_render000004.png,1,115,325,36,"[0, 1]",right,1,15,21,f,y,y,2019_Jul_12_1102,2AFC_task,59.94247919511154,
stimuli/rgb_scene000150_render000000.png,stimuli/rgb_scene000150_render000006.png,1,116,326,110,"[1, 0]",left,1,15,21,f,y,y,2019_Jul_12_1102,2AFC_task,59.94247919511154,
stimuli/rgb_scene000150_render000001.png,stimuli/rgb_scene000150_render000004.png,1,117,327,113,"[1, 0]",left,1,15,21,f,y,y,2019_Jul_12_1102,2AFC_task,59.94247919511154,
stimuli/rgb_scene000150_render000002.png,stimuli/rgb_scene000150_render000006.png,1,118,328,119,"[1, 0]",left,1,15,21,f,y,y,2019_Jul_12_1102,2AFC_task,59.94247919511154,
stimuli/rgb_scene000165_render000001.png,stimuli/rgb_scene000165_render000002.png,1,119,329,153,"[1, 0]",left,1,15,21,f,y,y,2019_Jul_12_1102,2AFC_task,59.94247919511154,
stimuli/rgb_scene000150_render000004.png,stimuli/rgb_scene000150_render000005.png,1,120,330,123,"[0, 1]",right,1,15,21,f,y,y,2019_Jul_12_1102,2AFC_task,59.94247919511154,
stimuli/rgb_scene000042_render000003.png,stimuli/rgb_scene000042_render000004.png,1,121,331,15,"[0, 1]",right,1,15,21,f,y,y,2019_Jul_12_1102,2AFC_task,59.94247919511154,
stimuli/rgb_scene000169_render000000.png,stimuli/rgb_scene000169_render000001.png,1,122,332,168,"[0, 1]",right,1,15,21,f,y,y,2019_Jul_12_1102,2AFC_task,59.94247919511154,
stimuli/rgb_scene000066_render000000.png,stimuli/rgb_scene000066_render000002.png,1,123,333,64,"[1, 0]",left,1,15,21,f,y,y,2019_Jul_12_1102,2AFC_task,59.94247919511154,
stimuli/rgb_scene000160_render000000.png,stimuli/rgb_scene000160_render000006.png,1,124,334,131,"[0, 1]",right,1,15,21,f,y,y,2019_Jul_12_1102,2AFC_task,59.94247919511154,
stimuli/rgb_scene000047_render000000.png,stimuli/rgb_scene000047_render000003.png,1,125,335,23,"[1, 0]",left,1,15,21,f,y,y,2019_Jul_12_1102,2AFC_task,59.94247919511154,
stimuli/rgb_scene000047_render000002.png,stimuli/rgb_scene000047_render000003.png,1,126,336,32,"[1, 0]",left,1,15,21,f,y,y,2019_Jul_12_1102,2AFC_task,59.94247919511154,
stimuli/rgb_scene000047_render000000.png,stimuli/rgb_scene000047_render000001.png,1,127,337,21,"[0, 1]",right,1,15,21,f,y,y,2019_Jul_12_1102,2AFC_task,59.94247919511154,
stimuli/rgb_scene000160_render000001.png,stimuli/rgb_scene000160_render000004.png,1,128,338,134,"[1, 0]",left,1,15,21,f,y,y,2019_Jul_12_1102,2AFC_task,59.94247919511154,
stimuli/rgb_scene000047_render000001.png,stimuli/rgb_scene000047_render000006.png,1,129,339,31,"[1, 0]",left,1,15,21,f,y,y,2019_Jul_12_1102,2AFC_task,59.94247919511154,
stimuli/rgb_scene000042_render000000.png,stimuli/rgb_scene000042_render000006.png,1,130,340,5,"[0, 1]",right,1,15,21,f,y,y,2019_Jul_12_1102,2AFC_task,59.94247919511154,
stimuli/rgb_scene000196_render000005.png,stimuli/rgb_scene000196_render000006.png,1,131,341,209,"[1, 0]",right,0,15,21,f,y,y,2019_Jul_12_1102,2AFC_task,59.94247919511154,
stimuli/rgb_scene000169_render000003.png,stimuli/rgb_scene000169_render000006.png,1,132,342,185,"[1, 0]",left,1,15,21,f,y,y,2019_Jul_12_1102,2AFC_task,59.94247919511154,
stimuli/rgb_scene000150_render000002.png,stimuli/rgb_scene000150_render000003.png,1,133,343,116,"[0, 1]",right,1,15,21,f,y,y,2019_Jul_12_1102,2AFC_task,59.94247919511154,
stimuli/rgb_scene000066_render000002.png,stimuli/rgb_scene000066_render000004.png,1,134,344,75,"[0, 1]",right,1,15,21,f,y,y,2019_Jul_12_1102,2AFC_task,59.94247919511154,
stimuli/rgb_scene000147_render000000.png,stimuli/rgb_scene000147_render000003.png,1,135,345,86,"[0, 1]",right,1,15,21,f,y,y,2019_Jul_12_1102,2AFC_task,59.94247919511154,
stimuli/rgb_scene000169_render000004.png,stimuli/rgb_scene000169_render000005.png,1,136,346,186,"[1, 0]",right,0,15,21,f,y,y,2019_Jul_12_1102,2AFC_task,59.94247919511154,
stimuli/rgb_scene000196_render000004.png,stimuli/rgb_scene000196_render000005.png,1,137,347,207,"[0, 1]",left,0,15,21,f,y,y,2019_Jul_12_1102,2AFC_task,59.94247919511154,
stimuli/rgb_scene000147_render000001.png,stimuli/rgb_scene000147_render000004.png,1,138,348,92,"[1, 0]",left,1,15,21,f,y,y,2019_Jul_12_1102,2AFC_task,59.94247919511154,
stimuli/rgb_scene000047_render000002.png,stimuli/rgb_scene000047_render000005.png,1,139,349,34,"[1, 0]",left,1,15,21,f,y,y,2019_Jul_12_1102,2AFC_task,59.94247919511154,
stimuli/rgb_scene000150_render000000.png,stimuli/rgb_scene000150_render000005.png,1,140,350,109,"[0, 1]",right,1,15,21,f,y,y,2019_Jul_12_1102,2AFC_task,59.94247919511154,
stimuli/rgb_scene000056_render000000.png,stimuli/rgb_scene000056_render000003.png,1,141,351,44,"[0, 1]",right,1,15,21,f,y,y,2019_Jul_12_1102,2AFC_task,59.94247919511154,
stimuli/rgb_scene000196_render000002.png,stimuli/rgb_scene000196_render000004.png,1,142,352,201,"[1, 0]",right,0,15,21,f,y,y,2019_Jul_12_1102,2AFC_task,59.94247919511154,
stimuli/rgb_scene000056_render000002.png,stimuli/rgb_scene000056_render000005.png,1,143,353,55,"[0, 1]",right,1,15,21,f,y,y,2019_Jul_12_1102,2AFC_task,59.94247919511154,
stimuli/rgb_scene000169_render000000.png,stimuli/rgb_scene000169_render000005.png,1,144,354,172,"[0, 1]",left,0,15,21,f,y,y,2019_Jul_12_1102,2AFC_task,59.94247919511154,
stimuli/rgb_scene000147_render000000.png,stimuli/rgb_scene000147_render000004.png,1,145,355,87,"[1, 0]",left,1,15,21,f,y,y,2019_Jul_12_1102,2AFC_task,59.94247919511154,
stimuli/rgb_scene000165_render000005.png,stimuli/rgb_scene000165_render000006.png,1,146,356,167,"[1, 0]",left,1,15,21,f,y,y,2019_Jul_12_1102,2AFC_task,59.94247919511154,
stimuli/rgb_scene000056_render000000.png,stimuli/rgb_scene000056_render000006.png,1,147,357,47,"[0, 1]",right,1,15,21,f,y,y,2019_Jul_12_1102,2AFC_task,59.94247919511154,
stimuli/rgb_scene000169_render000005.png,stimuli/rgb_scene000169_render000006.png,1,148,358,188,"[0, 1]",right,1,15,21,f,y,y,2019_Jul_12_1102,2AFC_task,59.94247919511154,
stimuli/rgb_scene000196_render000003.png,stimuli/rgb_scene000196_render000005.png,1,149,359,205,"[0, 1]",right,1,15,21,f,y,y,2019_Jul_12_1102,2AFC_task,59.94247919511154,
stimuli/rgb_scene000056_render000000.png,stimuli/rgb_scene000056_render000005.png,1,150,360,46,"[1, 0]",left,1,15,21,f,y,y,2019_Jul_12_1102,2AFC_task,59.94247919511154,
stimuli/rgb_scene000160_render000003.png,stimuli/rgb_scene000160_render000006.png,1,151,361,143,"[0, 1]",right,1,15,21,f,y,y,2019_Jul_12_1102,2AFC_task,59.94247919511154,
stimuli/rgb_scene000150_render000000.png,stimuli/rgb_scene000150_render000004.png,1,152,362,108,"[1, 0]",left,1,15,21,f,y,y,2019_Jul_12_1102,2AFC_task,59.94247919511154,
stimuli/rgb_scene000056_render000001.png,stimuli/rgb_scene000056_render000003.png,1,153,363,49,"[1, 0]",left,1,15,21,f,y,y,2019_Jul_12_1102,2AFC_task,59.94247919511154,
stimuli/rgb_scene000066_render000004.png,stimuli/rgb_scene000066_render000006.png,1,154,364,82,"[1, 0]",left,1,15,21,f,y,y,2019_Jul_12_1102,2AFC_task,59.94247919511154,
stimuli/rgb_scene000169_render000001.png,stimuli/rgb_scene000169_render000006.png,1,155,365,178,"[0, 1]",left,0,15,21,f,y,y,2019_Jul_12_1102,2AFC_task,59.94247919511154,
stimuli/rgb_scene000160_render000001.png,stimuli/rgb_scene000160_render000002.png,1,156,366,132,"[0, 1]",right,1,15,21,f,y,y,2019_Jul_12_1102,2AFC_task,59.94247919511154,
stimuli/rgb_scene000169_render000002.png,stimuli/rgb_scene000169_render000005.png,1,157,367,181,"[1, 0]",right,0,15,21,f,y,y,2019_Jul_12_1102,2AFC_task,59.94247919511154,
stimuli/rgb_scene000160_render000000.png,stimuli/rgb_scene000160_render000004.png,1,158,368,129,"[0, 1]",right,1,15,21,f,y,y,2019_Jul_12_1102,2AFC_task,59.94247919511154,
stimuli/rgb_scene000066_render000001.png,stimuli/rgb_scene000066_render000002.png,1,159,369,69,"[0, 1]",right,1,15,21,f,y,y,2019_Jul_12_1102,2AFC_task,59.94247919511154,
stimuli/rgb_scene000042_render000000.png,stimuli/rgb_scene000042_render000001.png,1,160,370,0,"[0, 1]",right,1,15,21,f,y,y,2019_Jul_12_1102,2AFC_task,59.94247919511154,
stimuli/rgb_scene000066_render000000.png,stimuli/rgb_scene000066_render000005.png,1,161,371,67,"[1, 0]",left,1,15,21,f,y,y,2019_Jul_12_1102,2AFC_task,59.94247919511154,
stimuli/rgb_scene000165_render000001.png,stimuli/rgb_scene000165_render000004.png,1,162,372,155,"[0, 1]",right,1,15,21,f,y,y,2019_Jul_12_1102,2AFC_task,59.94247919511154,
stimuli/rgb_scene000150_render000002.png,stimuli/rgb_scene000150_render000004.png,1,163,373,117,"[1, 0]",left,1,15,21,f,y,y,2019_Jul_12_1102,2AFC_task,59.94247919511154,
stimuli/rgb_scene000169_render000000.png,stimuli/rgb_scene000169_render000004.png,1,164,374,171,"[0, 1]",right,1,15,21,f,y,y,2019_Jul_12_1102,2AFC_task,59.94247919511154,
stimuli/rgb_scene000150_render000001.png,stimuli/rgb_scene000150_render000002.png,1,165,375,111,"[0, 1]",right,1,15,21,f,y,y,2019_Jul_12_1102,2AFC_task,59.94247919511154,
stimuli/rgb_scene000066_render000005.png,stimuli/rgb_scene000066_render000006.png,1,166,376,83,"[0, 1]",right,1,15,21,f,y,y,2019_Jul_12_1102,2AFC_task,59.94247919511154,
stimuli/rgb_scene000042_render000001.png,stimuli/rgb_scene000042_render000005.png,1,167,377,9,"[1, 0]",left,1,15,21,f,y,y,2019_Jul_12_1102,2AFC_task,59.94247919511154,
stimuli/rgb_scene000147_render000001.png,stimuli/rgb_scene000147_render000003.png,1,168,378,91,"[0, 1]",right,1,15,21,f,y,y,2019_Jul_12_1102,2AFC_task,59.94247919511154,
stimuli/rgb_scene000042_render000002.png,stimuli/rgb_scene000042_render000004.png,1,169,379,12,"[0, 1]",right,1,15,21,f,y,y,2019_Jul_12_1102,2AFC_task,59.94247919511154,
stimuli/rgb_scene000150_render000000.png,stimuli/rgb_scene000150_render000001.png,1,170,380,105,"[0, 1]",right,1,15,21,f,y,y,2019_Jul_12_1102,2AFC_task,59.94247919511154,
stimuli/rgb_scene000169_render000002.png,stimuli/rgb_scene000169_render000006.png,1,171,381,182,"[1, 0]",right,0,15,21,f,y,y,2019_Jul_12_1102,2AFC_task,59.94247919511154,
stimuli/rgb_scene000160_render000001.png,stimuli/rgb_scene000160_render000005.png,1,172,382,135,"[0, 1]",right,1,15,21,f,y,y,2019_Jul_12_1102,2AFC_task,59.94247919511154,
stimuli/rgb_scene000047_render000003.png,stimuli/rgb_scene000047_render000006.png,1,173,383,38,"[1, 0]",left,1,15,21,f,y,y,2019_Jul_12_1102,2AFC_task,59.94247919511154,
stimuli/rgb_scene000047_render000001.png,stimuli/rgb_scene000047_render000004.png,1,174,384,29,"[0, 1]",right,1,15,21,f,y,y,2019_Jul_12_1102,2AFC_task,59.94247919511154,
stimuli/rgb_scene000196_render000000.png,stimuli/rgb_scene000196_render000001.png,1,175,385,189,"[0, 1]",right,1,15,21,f,y,y,2019_Jul_12_1102,2AFC_task,59.94247919511154,
stimuli/rgb_scene000147_render000003.png,stimuli/rgb_scene000147_render000006.png,1,176,386,101,"[1, 0]",left,1,15,21,f,y,y,2019_Jul_12_1102,2AFC_task,59.94247919511154,
stimuli/rgb_scene000056_render000001.png,stimuli/rgb_scene000056_render000002.png,1,177,387,48,"[0, 1]",right,1,15,21,f,y,y,2019_Jul_12_1102,2AFC_task,59.94247919511154,
stimuli/rgb_scene000066_render000002.png,stimuli/rgb_scene000066_render000005.png,1,178,388,76,"[0, 1]",right,1,15,21,f,y,y,2019_Jul_12_1102,2AFC_task,59.94247919511154,
stimuli/rgb_scene000042_render000003.png,stimuli/rgb_scene000042_render000006.png,1,179,389,17,"[0, 1]",right,1,15,21,f,y,y,2019_Jul_12_1102,2AFC_task,59.94247919511154,
stimuli/rgb_scene000042_render000000.png,stimuli/rgb_scene000042_render000002.png,1,180,390,1,"[1, 0]",left,1,15,21,f,y,y,2019_Jul_12_1102,2AFC_task,59.94247919511154,
stimuli/rgb_scene000160_render000002.png,stimuli/rgb_scene000160_render000003.png,1,181,391,137,"[0, 1]",right,1,15,21,f,y,y,2019_Jul_12_1102,2AFC_task,59.94247919511154,
stimuli/rgb_scene000066_render000003.png,stimuli/rgb_scene000066_render000004.png,1,182,392,78,"[1, 0]",left,1,15,21,f,y,y,2019_Jul_12_1102,2AFC_task,59.94247919511154,
stimuli/rgb_scene000169_render000000.png,stimuli/rgb_scene000169_render000002.png,1,183,393,169,"[1, 0]",left,1,15,21,f,y,y,2019_Jul_12_1102,2AFC_task,59.94247919511154,
stimuli/rgb_scene000066_render000000.png,stimuli/rgb_scene000066_render000006.png,1,184,394,68,"[1, 0]",left,1,15,21,f,y,y,2019_Jul_12_1102,2AFC_task,59.94247919511154,
stimuli/rgb_scene000196_render000000.png,stimuli/rgb_scene000196_render000003.png,1,185,395,191,"[1, 0]",left,1,15,21,f,y,y,2019_Jul_12_1102,2AFC_task,59.94247919511154,
stimuli/rgb_scene000056_render000000.png,stimuli/rgb_scene000056_render000002.png,1,186,396,43,"[1, 0]",left,1,15,21,f,y,y,2019_Jul_12_1102,2AFC_task,59.94247919511154,
stimuli/rgb_scene000165_render000001.png,stimuli/rgb_scene000165_render000006.png,1,187,397,157,"[1, 0]",left,1,15,21,f,y,y,2019_Jul_12_1102,2AFC_task,59.94247919511154,
stimuli/rgb_scene000165_render000002.png,stimuli/rgb_scene000165_render000005.png,1,188,398,160,"[0, 1]",right,1,15,21,f,y,y,2019_Jul_12_1102,2AFC_task,59.94247919511154,
stimuli/rgb_scene000047_render000002.png,stimuli/rgb_scene000047_render000006.png,1,189,399,35,"[0, 1]",right,1,15,21,f,y,y,2019_Jul_12_1102,2AFC_task,59.94247919511154,
stimuli/rgb_scene000047_render000004.png,stimuli/rgb_scene000047_render000006.png,1,190,400,40,"[1, 0]",left,1,15,21,f,y,y,2019_Jul_12_1102,2AFC_task,59.94247919511154,
stimuli/rgb_scene000147_render000000.png,stimuli/rgb_scene000147_render000002.png,1,191,401,85,"[0, 1]",right,1,15,21,f,y,y,2019_Jul_12_1102,2AFC_task,59.94247919511154,
stimuli/rgb_scene000042_render000000.png,stimuli/rgb_scene000042_render000005.png,1,192,402,4,"[0, 1]",right,1,15,21,f,y,y,2019_Jul_12_1102,2AFC_task,59.94247919511154,
stimuli/rgb_scene000147_render000001.png,stimuli/rgb_scene000147_render000002.png,1,193,403,90,"[0, 1]",right,1,15,21,f,y,y,2019_Jul_12_1102,2AFC_task,59.94247919511154,
stimuli/rgb_scene000147_render000003.png,stimuli/rgb_scene000147_render000005.png,1,194,404,100,"[1, 0]",left,1,15,21,f,y,y,2019_Jul_12_1102,2AFC_task,59.94247919511154,
stimuli/rgb_scene000169_render000001.png,stimuli/rgb_scene000169_render000005.png,1,195,405,177,"[0, 1]",left,0,15,21,f,y,y,2019_Jul_12_1102,2AFC_task,59.94247919511154,
stimuli/rgb_scene000165_render000001.png,stimuli/rgb_scene000165_render000005.png,1,196,406,156,"[1, 0]",left,1,15,21,f,y,y,2019_Jul_12_1102,2AFC_task,59.94247919511154,
stimuli/rgb_scene000042_render000002.png,stimuli/rgb_scene000042_render000003.png,1,197,407,11,"[0, 1]",right,1,15,21,f,y,y,2019_Jul_12_1102,2AFC_task,59.94247919511154,
stimuli/rgb_scene000150_render000001.png,stimuli/rgb_scene000150_render000006.png,1,198,408,115,"[0, 1]",right,1,15,21,f,y,y,2019_Jul_12_1102,2AFC_task,59.94247919511154,
stimuli/rgb_scene000196_render000000.png,stimuli/rgb_scene000196_render000004.png,1,199,409,192,"[1, 0]",left,1,15,21,f,y,y,2019_Jul_12_1102,2AFC_task,59.94247919511154,
stimuli/rgb_scene000042_render000000.png,stimuli/rgb_scene000042_render000004.png,1,200,410,3,"[1, 0]",left,1,15,21,f,y,y,2019_Jul_12_1102,2AFC_task,59.94247919511154,
stimuli/rgb_scene000056_render000002.png,stimuli/rgb_scene000056_render000004.png,1,201,411,54,"[1, 0]",left,1,15,21,f,y,y,2019_Jul_12_1102,2AFC_task,59.94247919511154,
stimuli/rgb_scene000047_render000001.png,stimuli/rgb_scene000047_render000005.png,1,202,412,30,"[0, 1]",right,1,15,21,f,y,y,2019_Jul_12_1102,2AFC_task,59.94247919511154,
stimuli/rgb_scene000160_render000002.png,stimuli/rgb_scene000160_render000005.png,1,203,413,139,"[1, 0]",left,1,15,21,f,y,y,2019_Jul_12_1102,2AFC_task,59.94247919511154,
stimuli/rgb_scene000160_render000003.png,stimuli/rgb_scene000160_render000004.png,1,204,414,141,"[1, 0]",left,1,15,21,f,y,y,2019_Jul_12_1102,2AFC_task,59.94247919511154,
stimuli/rgb_scene000056_render000003.png,stimuli/rgb_scene000056_render000006.png,1,205,415,59,"[1, 0]",left,1,15,21,f,y,y,2019_Jul_12_1102,2AFC_task,59.94247919511154,
stimuli/rgb_scene000147_render000004.png,stimuli/rgb_scene000147_render000006.png,1,206,416,103,"[0, 1]",right,1,15,21,f,y,y,2019_Jul_12_1102,2AFC_task,59.94247919511154,
stimuli/rgb_scene000042_render000004.png,stimuli/rgb_scene000042_render000006.png,1,207,417,19,"[0, 1]",right,1,15,21,f,y,y,2019_Jul_12_1102,2AFC_task,59.94247919511154,
stimuli/rgb_scene000147_render000000.png,stimuli/rgb_scene000147_render000005.png,1,208,418,88,"[0, 1]",right,1,15,21,f,y,y,2019_Jul_12_1102,2AFC_task,59.94247919511154,
stimuli/rgb_scene000169_render000003.png,stimuli/rgb_scene000169_render000004.png,1,209,419,183,"[0, 1]",right,1,15,21,f,y,y,2019_Jul_12_1102,2AFC_task,59.94247919511154,
