stimOne,stimTwo,trials_1.thisRepN,trials_1.thisTrialN,trials_1.thisN,trials_1.thisIndex,presentation_positions,resp_key,corresponding_image,participant ID (two digits, e.g. 01),age,gender (m/f/-),normal or corrected-to-normal vision (y/n),normal colour vision (y/n),date,expName,frameRate,
stimuli/rgb_scene000047_render000001.png,stimuli/rgb_scene000047_render000005.png,0,0,0,30,"[0, 1]",right,1,17,21,f,y,y,2019_Jul_16_1017,2AFC_task,59.97404323193473,
stimuli/rgb_scene000160_render000004.png,stimuli/rgb_scene000160_render000006.png,0,1,1,145,"[1, 0]",left,1,17,21,f,y,y,2019_Jul_16_1017,2AFC_task,59.97404323193473,
stimuli/rgb_scene000165_render000001.png,stimuli/rgb_scene000165_render000003.png,0,2,2,154,"[0, 1]",right,1,17,21,f,y,y,2019_Jul_16_1017,2AFC_task,59.97404323193473,
stimuli/rgb_scene000165_render000004.png,stimuli/rgb_scene000165_render000005.png,0,3,3,165,"[0, 1]",right,1,17,21,f,y,y,2019_Jul_16_1017,2AFC_task,59.97404323193473,
stimuli/rgb_scene000169_render000002.png,stimuli/rgb_scene000169_render000005.png,0,4,4,181,"[0, 1]",right,1,17,21,f,y,y,2019_Jul_16_1017,2AFC_task,59.97404323193473,
stimuli/rgb_scene000196_render000002.png,stimuli/rgb_scene000196_render000005.png,0,5,5,202,"[1, 0]",right,0,17,21,f,y,y,2019_Jul_16_1017,2AFC_task,59.97404323193473,
stimuli/rgb_scene000165_render000003.png,stimuli/rgb_scene000165_render000004.png,0,6,6,162,"[1, 0]",left,1,17,21,f,y,y,2019_Jul_16_1017,2AFC_task,59.97404323193473,
stimuli/rgb_scene000160_render000000.png,stimuli/rgb_scene000160_render000006.png,0,7,7,131,"[0, 1]",right,1,17,21,f,y,y,2019_Jul_16_1017,2AFC_task,59.97404323193473,
stimuli/rgb_scene000056_render000000.png,stimuli/rgb_scene000056_render000006.png,0,8,8,47,"[1, 0]",left,1,17,21,f,y,y,2019_Jul_16_1017,2AFC_task,59.97404323193473,
stimuli/rgb_scene000147_render000002.png,stimuli/rgb_scene000147_render000005.png,0,9,9,97,"[1, 0]",left,1,17,21,f,y,y,2019_Jul_16_1017,2AFC_task,59.97404323193473,
stimuli/rgb_scene000196_render000001.png,stimuli/rgb_scene000196_render000003.png,0,10,10,196,"[1, 0]",left,1,17,21,f,y,y,2019_Jul_16_1017,2AFC_task,59.97404323193473,
stimuli/rgb_scene000160_render000001.png,stimuli/rgb_scene000160_render000004.png,0,11,11,134,"[0, 1]",right,1,17,21,f,y,y,2019_Jul_16_1017,2AFC_task,59.97404323193473,
stimuli/rgb_scene000165_render000001.png,stimuli/rgb_scene000165_render000002.png,0,12,12,153,"[0, 1]",right,1,17,21,f,y,y,2019_Jul_16_1017,2AFC_task,59.97404323193473,
stimuli/rgb_scene000042_render000002.png,stimuli/rgb_scene000042_render000006.png,0,13,13,14,"[0, 1]",right,1,17,21,f,y,y,2019_Jul_16_1017,2AFC_task,59.97404323193473,
stimuli/rgb_scene000056_render000002.png,stimuli/rgb_scene000056_render000003.png,0,14,14,53,"[1, 0]",left,1,17,21,f,y,y,2019_Jul_16_1017,2AFC_task,59.97404323193473,
stimuli/rgb_scene000047_render000002.png,stimuli/rgb_scene000047_render000006.png,0,15,15,35,"[1, 0]",left,1,17,21,f,y,y,2019_Jul_16_1017,2AFC_task,59.97404323193473,
stimuli/rgb_scene000042_render000000.png,stimuli/rgb_scene000042_render000001.png,0,16,16,0,"[1, 0]",left,1,17,21,f,y,y,2019_Jul_16_1017,2AFC_task,59.97404323193473,
stimuli/rgb_scene000165_render000002.png,stimuli/rgb_scene000165_render000004.png,0,17,17,159,"[1, 0]",left,1,17,21,f,y,y,2019_Jul_16_1017,2AFC_task,59.97404323193473,
stimuli/rgb_scene000196_render000002.png,stimuli/rgb_scene000196_render000006.png,0,18,18,203,"[0, 1]",left,0,17,21,f,y,y,2019_Jul_16_1017,2AFC_task,59.97404323193473,
stimuli/rgb_scene000169_render000002.png,stimuli/rgb_scene000169_render000003.png,0,19,19,179,"[1, 0]",right,0,17,21,f,y,y,2019_Jul_16_1017,2AFC_task,59.97404323193473,
stimuli/rgb_scene000160_render000005.png,stimuli/rgb_scene000160_render000006.png,0,20,20,146,"[1, 0]",left,1,17,21,f,y,y,2019_Jul_16_1017,2AFC_task,59.97404323193473,
stimuli/rgb_scene000047_render000004.png,stimuli/rgb_scene000047_render000005.png,0,21,21,39,"[0, 1]",left,0,17,21,f,y,y,2019_Jul_16_1017,2AFC_task,59.97404323193473,
stimuli/rgb_scene000150_render000005.png,stimuli/rgb_scene000150_render000006.png,0,22,22,125,"[0, 1]",left,0,17,21,f,y,y,2019_Jul_16_1017,2AFC_task,59.97404323193473,
stimuli/rgb_scene000056_render000001.png,stimuli/rgb_scene000056_render000005.png,0,23,23,51,"[1, 0]",left,1,17,21,f,y,y,2019_Jul_16_1017,2AFC_task,59.97404323193473,
stimuli/rgb_scene000169_render000000.png,stimuli/rgb_scene000169_render000004.png,0,24,24,171,"[0, 1]",right,1,17,21,f,y,y,2019_Jul_16_1017,2AFC_task,59.97404323193473,
stimuli/rgb_scene000150_render000001.png,stimuli/rgb_scene000150_render000005.png,0,25,25,114,"[1, 0]",left,1,17,21,f,y,y,2019_Jul_16_1017,2AFC_task,59.97404323193473,
stimuli/rgb_scene000042_render000002.png,stimuli/rgb_scene000042_render000003.png,0,26,26,11,"[0, 1]",right,1,17,21,f,y,y,2019_Jul_16_1017,2AFC_task,59.97404323193473,
stimuli/rgb_scene000056_render000000.png,stimuli/rgb_scene000056_render000001.png,0,27,27,42,"[0, 1]",right,1,17,21,f,y,y,2019_Jul_16_1017,2AFC_task,59.97404323193473,
stimuli/rgb_scene000147_render000004.png,stimuli/rgb_scene000147_render000006.png,0,28,28,103,"[0, 1]",right,1,17,21,f,y,y,2019_Jul_16_1017,2AFC_task,59.97404323193473,
stimuli/rgb_scene000056_render000001.png,stimuli/rgb_scene000056_render000003.png,0,29,29,49,"[0, 1]",right,1,17,21,f,y,y,2019_Jul_16_1017,2AFC_task,59.97404323193473,
stimuli/rgb_scene000042_render000004.png,stimuli/rgb_scene000042_render000006.png,0,30,30,19,"[1, 0]",left,1,17,21,f,y,y,2019_Jul_16_1017,2AFC_task,59.97404323193473,
stimuli/rgb_scene000196_render000004.png,stimuli/rgb_scene000196_render000006.png,0,31,31,208,"[0, 1]",left,0,17,21,f,y,y,2019_Jul_16_1017,2AFC_task,59.97404323193473,
stimuli/rgb_scene000056_render000002.png,stimuli/rgb_scene000056_render000004.png,0,32,32,54,"[0, 1]",right,1,17,21,f,y,y,2019_Jul_16_1017,2AFC_task,59.97404323193473,
stimuli/rgb_scene000169_render000001.png,stimuli/rgb_scene000169_render000003.png,0,33,33,175,"[0, 1]",right,1,17,21,f,y,y,2019_Jul_16_1017,2AFC_task,59.97404323193473,
stimuli/rgb_scene000147_render000001.png,stimuli/rgb_scene000147_render000002.png,0,34,34,90,"[1, 0]",left,1,17,21,f,y,y,2019_Jul_16_1017,2AFC_task,59.97404323193473,
stimuli/rgb_scene000169_render000000.png,stimuli/rgb_scene000169_render000001.png,0,35,35,168,"[1, 0]",left,1,17,21,f,y,y,2019_Jul_16_1017,2AFC_task,59.97404323193473,
stimuli/rgb_scene000150_render000000.png,stimuli/rgb_scene000150_render000004.png,0,36,36,108,"[1, 0]",left,1,17,21,f,y,y,2019_Jul_16_1017,2AFC_task,59.97404323193473,
stimuli/rgb_scene000150_render000004.png,stimuli/rgb_scene000150_render000006.png,0,37,37,124,"[1, 0]",right,0,17,21,f,y,y,2019_Jul_16_1017,2AFC_task,59.97404323193473,
stimuli/rgb_scene000165_render000001.png,stimuli/rgb_scene000165_render000005.png,0,38,38,156,"[1, 0]",left,1,17,21,f,y,y,2019_Jul_16_1017,2AFC_task,59.97404323193473,
stimuli/rgb_scene000056_render000001.png,stimuli/rgb_scene000056_render000002.png,0,39,39,48,"[1, 0]",left,1,17,21,f,y,y,2019_Jul_16_1017,2AFC_task,59.97404323193473,
stimuli/rgb_scene000160_render000003.png,stimuli/rgb_scene000160_render000004.png,0,40,40,141,"[1, 0]",left,1,17,21,f,y,y,2019_Jul_16_1017,2AFC_task,59.97404323193473,
stimuli/rgb_scene000056_render000004.png,stimuli/rgb_scene000056_render000006.png,0,41,41,61,"[1, 0]",left,1,17,21,f,y,y,2019_Jul_16_1017,2AFC_task,59.97404323193473,
stimuli/rgb_scene000066_render000003.png,stimuli/rgb_scene000066_render000005.png,0,42,42,79,"[1, 0]",left,1,17,21,f,y,y,2019_Jul_16_1017,2AFC_task,59.97404323193473,
stimuli/rgb_scene000066_render000001.png,stimuli/rgb_scene000066_render000004.png,0,43,43,71,"[0, 1]",right,1,17,21,f,y,y,2019_Jul_16_1017,2AFC_task,59.97404323193473,
stimuli/rgb_scene000196_render000001.png,stimuli/rgb_scene000196_render000004.png,0,44,44,197,"[1, 0]",left,1,17,21,f,y,y,2019_Jul_16_1017,2AFC_task,59.97404323193473,
stimuli/rgb_scene000047_render000004.png,stimuli/rgb_scene000047_render000006.png,0,45,45,40,"[0, 1]",right,1,17,21,f,y,y,2019_Jul_16_1017,2AFC_task,59.97404323193473,
stimuli/rgb_scene000147_render000001.png,stimuli/rgb_scene000147_render000006.png,0,46,46,94,"[0, 1]",right,1,17,21,f,y,y,2019_Jul_16_1017,2AFC_task,59.97404323193473,
stimuli/rgb_scene000047_render000005.png,stimuli/rgb_scene000047_render000006.png,0,47,47,41,"[1, 0]",right,0,17,21,f,y,y,2019_Jul_16_1017,2AFC_task,59.97404323193473,
stimuli/rgb_scene000160_render000000.png,stimuli/rgb_scene000160_render000005.png,0,48,48,130,"[1, 0]",left,1,17,21,f,y,y,2019_Jul_16_1017,2AFC_task,59.97404323193473,
stimuli/rgb_scene000042_render000002.png,stimuli/rgb_scene000042_render000005.png,0,49,49,13,"[0, 1]",right,1,17,21,f,y,y,2019_Jul_16_1017,2AFC_task,59.97404323193473,
stimuli/rgb_scene000066_render000005.png,stimuli/rgb_scene000066_render000006.png,0,50,50,83,"[1, 0]",left,1,17,21,f,y,y,2019_Jul_16_1017,2AFC_task,59.97404323193473,
stimuli/rgb_scene000056_render000001.png,stimuli/rgb_scene000056_render000006.png,0,51,51,52,"[1, 0]",left,1,17,21,f,y,y,2019_Jul_16_1017,2AFC_task,59.97404323193473,
stimuli/rgb_scene000042_render000001.png,stimuli/rgb_scene000042_render000003.png,0,52,52,7,"[1, 0]",left,1,17,21,f,y,y,2019_Jul_16_1017,2AFC_task,59.97404323193473,
stimuli/rgb_scene000056_render000000.png,stimuli/rgb_scene000056_render000004.png,0,53,53,45,"[0, 1]",right,1,17,21,f,y,y,2019_Jul_16_1017,2AFC_task,59.97404323193473,
stimuli/rgb_scene000147_render000002.png,stimuli/rgb_scene000147_render000006.png,0,54,54,98,"[1, 0]",left,1,17,21,f,y,y,2019_Jul_16_1017,2AFC_task,59.97404323193473,
stimuli/rgb_scene000169_render000001.png,stimuli/rgb_scene000169_render000004.png,0,55,55,176,"[0, 1]",left,0,17,21,f,y,y,2019_Jul_16_1017,2AFC_task,59.97404323193473,
stimuli/rgb_scene000160_render000002.png,stimuli/rgb_scene000160_render000004.png,0,56,56,138,"[0, 1]",right,1,17,21,f,y,y,2019_Jul_16_1017,2AFC_task,59.97404323193473,
stimuli/rgb_scene000169_render000001.png,stimuli/rgb_scene000169_render000002.png,0,57,57,174,"[1, 0]",right,0,17,21,f,y,y,2019_Jul_16_1017,2AFC_task,59.97404323193473,
stimuli/rgb_scene000165_render000003.png,stimuli/rgb_scene000165_render000006.png,0,58,58,164,"[1, 0]",left,1,17,21,f,y,y,2019_Jul_16_1017,2AFC_task,59.97404323193473,
stimuli/rgb_scene000196_render000000.png,stimuli/rgb_scene000196_render000002.png,0,59,59,190,"[0, 1]",right,1,17,21,f,y,y,2019_Jul_16_1017,2AFC_task,59.97404323193473,
stimuli/rgb_scene000196_render000003.png,stimuli/rgb_scene000196_render000005.png,0,60,60,205,"[1, 0]",right,0,17,21,f,y,y,2019_Jul_16_1017,2AFC_task,59.97404323193473,
stimuli/rgb_scene000150_render000000.png,stimuli/rgb_scene000150_render000002.png,0,61,61,106,"[1, 0]",left,1,17,21,f,y,y,2019_Jul_16_1017,2AFC_task,59.97404323193473,
stimuli/rgb_scene000047_render000001.png,stimuli/rgb_scene000047_render000006.png,0,62,62,31,"[0, 1]",right,1,17,21,f,y,y,2019_Jul_16_1017,2AFC_task,59.97404323193473,
stimuli/rgb_scene000150_render000000.png,stimuli/rgb_scene000150_render000006.png,0,63,63,110,"[0, 1]",right,1,17,21,f,y,y,2019_Jul_16_1017,2AFC_task,59.97404323193473,
stimuli/rgb_scene000047_render000002.png,stimuli/rgb_scene000047_render000003.png,0,64,64,32,"[0, 1]",right,1,17,21,f,y,y,2019_Jul_16_1017,2AFC_task,59.97404323193473,
stimuli/rgb_scene000150_render000003.png,stimuli/rgb_scene000150_render000006.png,0,65,65,122,"[0, 1]",right,1,17,21,f,y,y,2019_Jul_16_1017,2AFC_task,59.97404323193473,
stimuli/rgb_scene000066_render000000.png,stimuli/rgb_scene000066_render000005.png,0,66,66,67,"[0, 1]",right,1,17,21,f,y,y,2019_Jul_16_1017,2AFC_task,59.97404323193473,
stimuli/rgb_scene000196_render000000.png,stimuli/rgb_scene000196_render000003.png,0,67,67,191,"[1, 0]",left,1,17,21,f,y,y,2019_Jul_16_1017,2AFC_task,59.97404323193473,
stimuli/rgb_scene000160_render000004.png,stimuli/rgb_scene000160_render000005.png,0,68,68,144,"[1, 0]",left,1,17,21,f,y,y,2019_Jul_16_1017,2AFC_task,59.97404323193473,
stimuli/rgb_scene000169_render000001.png,stimuli/rgb_scene000169_render000005.png,0,69,69,177,"[0, 1]",right,1,17,21,f,y,y,2019_Jul_16_1017,2AFC_task,59.97404323193473,
stimuli/rgb_scene000056_render000000.png,stimuli/rgb_scene000056_render000005.png,0,70,70,46,"[1, 0]",left,1,17,21,f,y,y,2019_Jul_16_1017,2AFC_task,59.97404323193473,
stimuli/rgb_scene000147_render000000.png,stimuli/rgb_scene000147_render000001.png,0,71,71,84,"[0, 1]",right,1,17,21,f,y,y,2019_Jul_16_1017,2AFC_task,59.97404323193473,
stimuli/rgb_scene000169_render000003.png,stimuli/rgb_scene000169_render000006.png,0,72,72,185,"[0, 1]",right,1,17,21,f,y,y,2019_Jul_16_1017,2AFC_task,59.97404323193473,
stimuli/rgb_scene000056_render000000.png,stimuli/rgb_scene000056_render000002.png,0,73,73,43,"[0, 1]",right,1,17,21,f,y,y,2019_Jul_16_1017,2AFC_task,59.97404323193473,
stimuli/rgb_scene000169_render000002.png,stimuli/rgb_scene000169_render000006.png,0,74,74,182,"[0, 1]",right,1,17,21,f,y,y,2019_Jul_16_1017,2AFC_task,59.97404323193473,
stimuli/rgb_scene000196_render000001.png,stimuli/rgb_scene000196_render000005.png,0,75,75,198,"[1, 0]",right,0,17,21,f,y,y,2019_Jul_16_1017,2AFC_task,59.97404323193473,
stimuli/rgb_scene000056_render000002.png,stimuli/rgb_scene000056_render000006.png,0,76,76,56,"[0, 1]",right,1,17,21,f,y,y,2019_Jul_16_1017,2AFC_task,59.97404323193473,
stimuli/rgb_scene000196_render000000.png,stimuli/rgb_scene000196_render000006.png,0,77,77,194,"[1, 0]",left,1,17,21,f,y,y,2019_Jul_16_1017,2AFC_task,59.97404323193473,
stimuli/rgb_scene000160_render000003.png,stimuli/rgb_scene000160_render000005.png,0,78,78,142,"[1, 0]",left,1,17,21,f,y,y,2019_Jul_16_1017,2AFC_task,59.97404323193473,
stimuli/rgb_scene000169_render000004.png,stimuli/rgb_scene000169_render000005.png,0,79,79,186,"[0, 1]",right,1,17,21,f,y,y,2019_Jul_16_1017,2AFC_task,59.97404323193473,
stimuli/rgb_scene000165_render000002.png,stimuli/rgb_scene000165_render000005.png,0,80,80,160,"[0, 1]",right,1,17,21,f,y,y,2019_Jul_16_1017,2AFC_task,59.97404323193473,
stimuli/rgb_scene000165_render000004.png,stimuli/rgb_scene000165_render000006.png,0,81,81,166,"[0, 1]",right,1,17,21,f,y,y,2019_Jul_16_1017,2AFC_task,59.97404323193473,
stimuli/rgb_scene000042_render000000.png,stimuli/rgb_scene000042_render000005.png,0,82,82,4,"[1, 0]",left,1,17,21,f,y,y,2019_Jul_16_1017,2AFC_task,59.97404323193473,
stimuli/rgb_scene000165_render000000.png,stimuli/rgb_scene000165_render000003.png,0,83,83,149,"[1, 0]",left,1,17,21,f,y,y,2019_Jul_16_1017,2AFC_task,59.97404323193473,
stimuli/rgb_scene000160_render000001.png,stimuli/rgb_scene000160_render000006.png,0,84,84,136,"[0, 1]",right,1,17,21,f,y,y,2019_Jul_16_1017,2AFC_task,59.97404323193473,
stimuli/rgb_scene000169_render000004.png,stimuli/rgb_scene000169_render000006.png,0,85,85,187,"[1, 0]",left,1,17,21,f,y,y,2019_Jul_16_1017,2AFC_task,59.97404323193473,
stimuli/rgb_scene000165_render000000.png,stimuli/rgb_scene000165_render000001.png,0,86,86,147,"[0, 1]",right,1,17,21,f,y,y,2019_Jul_16_1017,2AFC_task,59.97404323193473,
stimuli/rgb_scene000056_render000003.png,stimuli/rgb_scene000056_render000004.png,0,87,87,57,"[0, 1]",right,1,17,21,f,y,y,2019_Jul_16_1017,2AFC_task,59.97404323193473,
stimuli/rgb_scene000196_render000000.png,stimuli/rgb_scene000196_render000001.png,0,88,88,189,"[1, 0]",right,0,17,21,f,y,y,2019_Jul_16_1017,2AFC_task,59.97404323193473,
stimuli/rgb_scene000066_render000002.png,stimuli/rgb_scene000066_render000003.png,0,89,89,74,"[1, 0]",left,1,17,21,f,y,y,2019_Jul_16_1017,2AFC_task,59.97404323193473,
stimuli/rgb_scene000169_render000000.png,stimuli/rgb_scene000169_render000005.png,0,90,90,172,"[1, 0]",left,1,17,21,f,y,y,2019_Jul_16_1017,2AFC_task,59.97404323193473,
stimuli/rgb_scene000047_render000003.png,stimuli/rgb_scene000047_render000005.png,0,91,91,37,"[1, 0]",left,1,17,21,f,y,y,2019_Jul_16_1017,2AFC_task,59.97404323193473,
stimuli/rgb_scene000196_render000001.png,stimuli/rgb_scene000196_render000006.png,0,92,92,199,"[1, 0]",right,0,17,21,f,y,y,2019_Jul_16_1017,2AFC_task,59.97404323193473,
stimuli/rgb_scene000169_render000001.png,stimuli/rgb_scene000169_render000006.png,0,93,93,178,"[0, 1]",right,1,17,21,f,y,y,2019_Jul_16_1017,2AFC_task,59.97404323193473,
stimuli/rgb_scene000160_render000000.png,stimuli/rgb_scene000160_render000003.png,0,94,94,128,"[1, 0]",left,1,17,21,f,y,y,2019_Jul_16_1017,2AFC_task,59.97404323193473,
stimuli/rgb_scene000150_render000003.png,stimuli/rgb_scene000150_render000005.png,0,95,95,121,"[1, 0]",left,1,17,21,f,y,y,2019_Jul_16_1017,2AFC_task,59.97404323193473,
stimuli/rgb_scene000042_render000004.png,stimuli/rgb_scene000042_render000005.png,0,96,96,18,"[1, 0]",left,1,17,21,f,y,y,2019_Jul_16_1017,2AFC_task,59.97404323193473,
stimuli/rgb_scene000066_render000000.png,stimuli/rgb_scene000066_render000004.png,0,97,97,66,"[1, 0]",left,1,17,21,f,y,y,2019_Jul_16_1017,2AFC_task,59.97404323193473,
stimuli/rgb_scene000056_render000000.png,stimuli/rgb_scene000056_render000003.png,0,98,98,44,"[1, 0]",left,1,17,21,f,y,y,2019_Jul_16_1017,2AFC_task,59.97404323193473,
stimuli/rgb_scene000147_render000000.png,stimuli/rgb_scene000147_render000005.png,0,99,99,88,"[1, 0]",left,1,17,21,f,y,y,2019_Jul_16_1017,2AFC_task,59.97404323193473,
stimuli/rgb_scene000056_render000003.png,stimuli/rgb_scene000056_render000006.png,0,100,100,59,"[0, 1]",right,1,17,21,f,y,y,2019_Jul_16_1017,2AFC_task,59.97404323193473,
stimuli/rgb_scene000042_render000000.png,stimuli/rgb_scene000042_render000003.png,0,101,101,2,"[0, 1]",right,1,17,21,f,y,y,2019_Jul_16_1017,2AFC_task,59.97404323193473,
stimuli/rgb_scene000196_render000000.png,stimuli/rgb_scene000196_render000004.png,0,102,102,192,"[1, 0]",left,1,17,21,f,y,y,2019_Jul_16_1017,2AFC_task,59.97404323193473,
stimuli/rgb_scene000147_render000000.png,stimuli/rgb_scene000147_render000006.png,0,103,103,89,"[1, 0]",left,1,17,21,f,y,y,2019_Jul_16_1017,2AFC_task,59.97404323193473,
stimuli/rgb_scene000066_render000001.png,stimuli/rgb_scene000066_render000002.png,0,104,104,69,"[0, 1]",right,1,17,21,f,y,y,2019_Jul_16_1017,2AFC_task,59.97404323193473,
stimuli/rgb_scene000066_render000000.png,stimuli/rgb_scene000066_render000003.png,0,105,105,65,"[0, 1]",right,1,17,21,f,y,y,2019_Jul_16_1017,2AFC_task,59.97404323193473,
stimuli/rgb_scene000047_render000003.png,stimuli/rgb_scene000047_render000006.png,0,106,106,38,"[1, 0]",left,1,17,21,f,y,y,2019_Jul_16_1017,2AFC_task,59.97404323193473,
stimuli/rgb_scene000047_render000000.png,stimuli/rgb_scene000047_render000003.png,0,107,107,23,"[0, 1]",right,1,17,21,f,y,y,2019_Jul_16_1017,2AFC_task,59.97404323193473,
stimuli/rgb_scene000042_render000001.png,stimuli/rgb_scene000042_render000005.png,0,108,108,9,"[1, 0]",left,1,17,21,f,y,y,2019_Jul_16_1017,2AFC_task,59.97404323193473,
stimuli/rgb_scene000147_render000003.png,stimuli/rgb_scene000147_render000005.png,0,109,109,100,"[0, 1]",right,1,17,21,f,y,y,2019_Jul_16_1017,2AFC_task,59.97404323193473,
stimuli/rgb_scene000066_render000002.png,stimuli/rgb_scene000066_render000005.png,0,110,110,76,"[0, 1]",right,1,17,21,f,y,y,2019_Jul_16_1017,2AFC_task,59.97404323193473,
stimuli/rgb_scene000196_render000001.png,stimuli/rgb_scene000196_render000002.png,0,111,111,195,"[1, 0]",left,1,17,21,f,y,y,2019_Jul_16_1017,2AFC_task,59.97404323193473,
stimuli/rgb_scene000147_render000002.png,stimuli/rgb_scene000147_render000003.png,0,112,112,95,"[0, 1]",right,1,17,21,f,y,y,2019_Jul_16_1017,2AFC_task,59.97404323193473,
stimuli/rgb_scene000169_render000003.png,stimuli/rgb_scene000169_render000005.png,0,113,113,184,"[0, 1]",right,1,17,21,f,y,y,2019_Jul_16_1017,2AFC_task,59.97404323193473,
stimuli/rgb_scene000047_render000000.png,stimuli/rgb_scene000047_render000004.png,0,114,114,24,"[0, 1]",right,1,17,21,f,y,y,2019_Jul_16_1017,2AFC_task,59.97404323193473,
stimuli/rgb_scene000165_render000002.png,stimuli/rgb_scene000165_render000006.png,0,115,115,161,"[1, 0]",left,1,17,21,f,y,y,2019_Jul_16_1017,2AFC_task,59.97404323193473,
stimuli/rgb_scene000147_render000000.png,stimuli/rgb_scene000147_render000002.png,0,116,116,85,"[0, 1]",right,1,17,21,f,y,y,2019_Jul_16_1017,2AFC_task,59.97404323193473,
stimuli/rgb_scene000150_render000000.png,stimuli/rgb_scene000150_render000003.png,0,117,117,107,"[1, 0]",left,1,17,21,f,y,y,2019_Jul_16_1017,2AFC_task,59.97404323193473,
stimuli/rgb_scene000147_render000001.png,stimuli/rgb_scene000147_render000004.png,0,118,118,92,"[1, 0]",left,1,17,21,f,y,y,2019_Jul_16_1017,2AFC_task,59.97404323193473,
stimuli/rgb_scene000042_render000001.png,stimuli/rgb_scene000042_render000004.png,0,119,119,8,"[0, 1]",right,1,17,21,f,y,y,2019_Jul_16_1017,2AFC_task,59.97404323193473,
stimuli/rgb_scene000056_render000001.png,stimuli/rgb_scene000056_render000004.png,0,120,120,50,"[1, 0]",left,1,17,21,f,y,y,2019_Jul_16_1017,2AFC_task,59.97404323193473,
stimuli/rgb_scene000169_render000005.png,stimuli/rgb_scene000169_render000006.png,0,121,121,188,"[0, 1]",right,1,17,21,f,y,y,2019_Jul_16_1017,2AFC_task,59.97404323193473,
stimuli/rgb_scene000150_render000002.png,stimuli/rgb_scene000150_render000005.png,0,122,122,118,"[1, 0]",left,1,17,21,f,y,y,2019_Jul_16_1017,2AFC_task,59.97404323193473,
stimuli/rgb_scene000169_render000000.png,stimuli/rgb_scene000169_render000006.png,0,123,123,173,"[0, 1]",right,1,17,21,f,y,y,2019_Jul_16_1017,2AFC_task,59.97404323193473,
stimuli/rgb_scene000066_render000002.png,stimuli/rgb_scene000066_render000006.png,0,124,124,77,"[0, 1]",right,1,17,21,f,y,y,2019_Jul_16_1017,2AFC_task,59.97404323193473,
stimuli/rgb_scene000165_render000001.png,stimuli/rgb_scene000165_render000004.png,0,125,125,155,"[0, 1]",right,1,17,21,f,y,y,2019_Jul_16_1017,2AFC_task,59.97404323193473,
stimuli/rgb_scene000147_render000001.png,stimuli/rgb_scene000147_render000003.png,0,126,126,91,"[0, 1]",right,1,17,21,f,y,y,2019_Jul_16_1017,2AFC_task,59.97404323193473,
stimuli/rgb_scene000047_render000000.png,stimuli/rgb_scene000047_render000006.png,0,127,127,26,"[1, 0]",left,1,17,21,f,y,y,2019_Jul_16_1017,2AFC_task,59.97404323193473,
stimuli/rgb_scene000056_render000002.png,stimuli/rgb_scene000056_render000005.png,0,128,128,55,"[0, 1]",right,1,17,21,f,y,y,2019_Jul_16_1017,2AFC_task,59.97404323193473,
stimuli/rgb_scene000042_render000002.png,stimuli/rgb_scene000042_render000004.png,0,129,129,12,"[1, 0]",left,1,17,21,f,y,y,2019_Jul_16_1017,2AFC_task,59.97404323193473,
stimuli/rgb_scene000066_render000000.png,stimuli/rgb_scene000066_render000001.png,0,130,130,63,"[1, 0]",left,1,17,21,f,y,y,2019_Jul_16_1017,2AFC_task,59.97404323193473,
stimuli/rgb_scene000042_render000001.png,stimuli/rgb_scene000042_render000002.png,0,131,131,6,"[0, 1]",right,1,17,21,f,y,y,2019_Jul_16_1017,2AFC_task,59.97404323193473,
stimuli/rgb_scene000047_render000002.png,stimuli/rgb_scene000047_render000005.png,0,132,132,34,"[1, 0]",left,1,17,21,f,y,y,2019_Jul_16_1017,2AFC_task,59.97404323193473,
stimuli/rgb_scene000196_render000005.png,stimuli/rgb_scene000196_render000006.png,0,133,133,209,"[0, 1]",left,0,17,21,f,y,y,2019_Jul_16_1017,2AFC_task,59.97404323193473,
stimuli/rgb_scene000147_render000000.png,stimuli/rgb_scene000147_render000004.png,0,134,134,87,"[0, 1]",right,1,17,21,f,y,y,2019_Jul_16_1017,2AFC_task,59.97404323193473,
stimuli/rgb_scene000196_render000000.png,stimuli/rgb_scene000196_render000005.png,0,135,135,193,"[0, 1]",right,1,17,21,f,y,y,2019_Jul_16_1017,2AFC_task,59.97404323193473,
stimuli/rgb_scene000042_render000003.png,stimuli/rgb_scene000042_render000006.png,0,136,136,17,"[1, 0]",left,1,17,21,f,y,y,2019_Jul_16_1017,2AFC_task,59.97404323193473,
stimuli/rgb_scene000169_render000002.png,stimuli/rgb_scene000169_render000004.png,0,137,137,180,"[0, 1]",right,1,17,21,f,y,y,2019_Jul_16_1017,2AFC_task,59.97404323193473,
stimuli/rgb_scene000160_render000001.png,stimuli/rgb_scene000160_render000003.png,0,138,138,133,"[0, 1]",right,1,17,21,f,y,y,2019_Jul_16_1017,2AFC_task,59.97404323193473,
stimuli/rgb_scene000160_render000002.png,stimuli/rgb_scene000160_render000003.png,0,139,139,137,"[1, 0]",left,1,17,21,f,y,y,2019_Jul_16_1017,2AFC_task,59.97404323193473,
stimuli/rgb_scene000150_render000001.png,stimuli/rgb_scene000150_render000002.png,0,140,140,111,"[1, 0]",left,1,17,21,f,y,y,2019_Jul_16_1017,2AFC_task,59.97404323193473,
stimuli/rgb_scene000147_render000004.png,stimuli/rgb_scene000147_render000005.png,0,141,141,102,"[0, 1]",right,1,17,21,f,y,y,2019_Jul_16_1017,2AFC_task,59.97404323193473,
stimuli/rgb_scene000042_render000000.png,stimuli/rgb_scene000042_render000002.png,0,142,142,1,"[1, 0]",left,1,17,21,f,y,y,2019_Jul_16_1017,2AFC_task,59.97404323193473,
stimuli/rgb_scene000165_render000000.png,stimuli/rgb_scene000165_render000002.png,0,143,143,148,"[1, 0]",left,1,17,21,f,y,y,2019_Jul_16_1017,2AFC_task,59.97404323193473,
stimuli/rgb_scene000047_render000000.png,stimuli/rgb_scene000047_render000002.png,0,144,144,22,"[1, 0]",left,1,17,21,f,y,y,2019_Jul_16_1017,2AFC_task,59.97404323193473,
stimuli/rgb_scene000147_render000000.png,stimuli/rgb_scene000147_render000003.png,0,145,145,86,"[1, 0]",left,1,17,21,f,y,y,2019_Jul_16_1017,2AFC_task,59.97404323193473,
stimuli/rgb_scene000196_render000004.png,stimuli/rgb_scene000196_render000005.png,0,146,146,207,"[0, 1]",left,0,17,21,f,y,y,2019_Jul_16_1017,2AFC_task,59.97404323193473,
stimuli/rgb_scene000150_render000004.png,stimuli/rgb_scene000150_render000005.png,0,147,147,123,"[0, 1]",right,1,17,21,f,y,y,2019_Jul_16_1017,2AFC_task,59.97404323193473,
stimuli/rgb_scene000196_render000003.png,stimuli/rgb_scene000196_render000004.png,0,148,148,204,"[1, 0]",right,0,17,21,f,y,y,2019_Jul_16_1017,2AFC_task,59.97404323193473,
stimuli/rgb_scene000165_render000000.png,stimuli/rgb_scene000165_render000006.png,0,149,149,152,"[0, 1]",right,1,17,21,f,y,y,2019_Jul_16_1017,2AFC_task,59.97404323193473,
stimuli/rgb_scene000160_render000000.png,stimuli/rgb_scene000160_render000004.png,0,150,150,129,"[1, 0]",left,1,17,21,f,y,y,2019_Jul_16_1017,2AFC_task,59.97404323193473,
stimuli/rgb_scene000066_render000001.png,stimuli/rgb_scene000066_render000005.png,0,151,151,72,"[1, 0]",left,1,17,21,f,y,y,2019_Jul_16_1017,2AFC_task,59.97404323193473,
stimuli/rgb_scene000042_render000000.png,stimuli/rgb_scene000042_render000004.png,0,152,152,3,"[1, 0]",left,1,17,21,f,y,y,2019_Jul_16_1017,2AFC_task,59.97404323193473,
stimuli/rgb_scene000150_render000002.png,stimuli/rgb_scene000150_render000004.png,0,153,153,117,"[1, 0]",left,1,17,21,f,y,y,2019_Jul_16_1017,2AFC_task,59.97404323193473,
stimuli/rgb_scene000047_render000003.png,stimuli/rgb_scene000047_render000004.png,0,154,154,36,"[0, 1]",right,1,17,21,f,y,y,2019_Jul_16_1017,2AFC_task,59.97404323193473,
stimuli/rgb_scene000047_render000001.png,stimuli/rgb_scene000047_render000003.png,0,155,155,28,"[0, 1]",right,1,17,21,f,y,y,2019_Jul_16_1017,2AFC_task,59.97404323193473,
stimuli/rgb_scene000042_render000001.png,stimuli/rgb_scene000042_render000006.png,0,156,156,10,"[1, 0]",left,1,17,21,f,y,y,2019_Jul_16_1017,2AFC_task,59.97404323193473,
stimuli/rgb_scene000165_render000000.png,stimuli/rgb_scene000165_render000005.png,0,157,157,151,"[0, 1]",right,1,17,21,f,y,y,2019_Jul_16_1017,2AFC_task,59.97404323193473,
stimuli/rgb_scene000047_render000000.png,stimuli/rgb_scene000047_render000005.png,0,158,158,25,"[1, 0]",left,1,17,21,f,y,y,2019_Jul_16_1017,2AFC_task,59.97404323193473,
stimuli/rgb_scene000056_render000003.png,stimuli/rgb_scene000056_render000005.png,0,159,159,58,"[1, 0]",left,1,17,21,f,y,y,2019_Jul_16_1017,2AFC_task,59.97404323193473,
stimuli/rgb_scene000047_render000001.png,stimuli/rgb_scene000047_render000002.png,0,160,160,27,"[0, 1]",right,1,17,21,f,y,y,2019_Jul_16_1017,2AFC_task,59.97404323193473,
stimuli/rgb_scene000160_render000001.png,stimuli/rgb_scene000160_render000002.png,0,161,161,132,"[1, 0]",left,1,17,21,f,y,y,2019_Jul_16_1017,2AFC_task,59.97404323193473,
stimuli/rgb_scene000066_render000003.png,stimuli/rgb_scene000066_render000006.png,0,162,162,80,"[0, 1]",right,1,17,21,f,y,y,2019_Jul_16_1017,2AFC_task,59.97404323193473,
stimuli/rgb_scene000150_render000002.png,stimuli/rgb_scene000150_render000006.png,0,163,163,119,"[0, 1]",right,1,17,21,f,y,y,2019_Jul_16_1017,2AFC_task,59.97404323193473,
stimuli/rgb_scene000056_render000004.png,stimuli/rgb_scene000056_render000005.png,0,164,164,60,"[1, 0]",left,1,17,21,f,y,y,2019_Jul_16_1017,2AFC_task,59.97404323193473,
stimuli/rgb_scene000150_render000003.png,stimuli/rgb_scene000150_render000004.png,0,165,165,120,"[1, 0]",left,1,17,21,f,y,y,2019_Jul_16_1017,2AFC_task,59.97404323193473,
stimuli/rgb_scene000150_render000001.png,stimuli/rgb_scene000150_render000006.png,0,166,166,115,"[0, 1]",right,1,17,21,f,y,y,2019_Jul_16_1017,2AFC_task,59.97404323193473,
stimuli/rgb_scene000066_render000000.png,stimuli/rgb_scene000066_render000002.png,0,167,167,64,"[0, 1]",right,1,17,21,f,y,y,2019_Jul_16_1017,2AFC_task,59.97404323193473,
stimuli/rgb_scene000196_render000003.png,stimuli/rgb_scene000196_render000006.png,0,168,168,206,"[0, 1]",left,0,17,21,f,y,y,2019_Jul_16_1017,2AFC_task,59.97404323193473,
stimuli/rgb_scene000042_render000003.png,stimuli/rgb_scene000042_render000004.png,0,169,169,15,"[1, 0]",left,1,17,21,f,y,y,2019_Jul_16_1017,2AFC_task,59.97404323193473,
stimuli/rgb_scene000066_render000002.png,stimuli/rgb_scene000066_render000004.png,0,170,170,75,"[1, 0]",left,1,17,21,f,y,y,2019_Jul_16_1017,2AFC_task,59.97404323193473,
stimuli/rgb_scene000165_render000005.png,stimuli/rgb_scene000165_render000006.png,0,171,171,167,"[1, 0]",left,1,17,21,f,y,y,2019_Jul_16_1017,2AFC_task,59.97404323193473,
stimuli/rgb_scene000160_render000000.png,stimuli/rgb_scene000160_render000002.png,0,172,172,127,"[1, 0]",left,1,17,21,f,y,y,2019_Jul_16_1017,2AFC_task,59.97404323193473,
stimuli/rgb_scene000047_render000000.png,stimuli/rgb_scene000047_render000001.png,0,173,173,21,"[1, 0]",left,1,17,21,f,y,y,2019_Jul_16_1017,2AFC_task,59.97404323193473,
stimuli/rgb_scene000066_render000003.png,stimuli/rgb_scene000066_render000004.png,0,174,174,78,"[0, 1]",right,1,17,21,f,y,y,2019_Jul_16_1017,2AFC_task,59.97404323193473,
stimuli/rgb_scene000147_render000001.png,stimuli/rgb_scene000147_render000005.png,0,175,175,93,"[0, 1]",right,1,17,21,f,y,y,2019_Jul_16_1017,2AFC_task,59.97404323193473,
stimuli/rgb_scene000056_render000005.png,stimuli/rgb_scene000056_render000006.png,0,176,176,62,"[1, 0]",left,1,17,21,f,y,y,2019_Jul_16_1017,2AFC_task,59.97404323193473,
stimuli/rgb_scene000196_render000002.png,stimuli/rgb_scene000196_render000004.png,0,177,177,201,"[1, 0]",left,1,17,21,f,y,y,2019_Jul_16_1017,2AFC_task,59.97404323193473,
stimuli/rgb_scene000169_render000000.png,stimuli/rgb_scene000169_render000002.png,0,178,178,169,"[0, 1]",right,1,17,21,f,y,y,2019_Jul_16_1017,2AFC_task,59.97404323193473,
stimuli/rgb_scene000160_render000002.png,stimuli/rgb_scene000160_render000005.png,0,179,179,139,"[1, 0]",left,1,17,21,f,y,y,2019_Jul_16_1017,2AFC_task,59.97404323193473,
stimuli/rgb_scene000066_render000004.png,stimuli/rgb_scene000066_render000005.png,0,180,180,81,"[0, 1]",right,1,17,21,f,y,y,2019_Jul_16_1017,2AFC_task,59.97404323193473,
stimuli/rgb_scene000042_render000003.png,stimuli/rgb_scene000042_render000005.png,0,181,181,16,"[1, 0]",left,1,17,21,f,y,y,2019_Jul_16_1017,2AFC_task,59.97404323193473,
stimuli/rgb_scene000165_render000003.png,stimuli/rgb_scene000165_render000005.png,0,182,182,163,"[0, 1]",right,1,17,21,f,y,y,2019_Jul_16_1017,2AFC_task,59.97404323193473,
stimuli/rgb_scene000150_render000000.png,stimuli/rgb_scene000150_render000005.png,0,183,183,109,"[0, 1]",right,1,17,21,f,y,y,2019_Jul_16_1017,2AFC_task,59.97404323193473,
stimuli/rgb_scene000165_render000000.png,stimuli/rgb_scene000165_render000004.png,0,184,184,150,"[0, 1]",right,1,17,21,f,y,y,2019_Jul_16_1017,2AFC_task,59.97404323193473,
stimuli/rgb_scene000042_render000000.png,stimuli/rgb_scene000042_render000006.png,0,185,185,5,"[1, 0]",left,1,17,21,f,y,y,2019_Jul_16_1017,2AFC_task,59.97404323193473,
stimuli/rgb_scene000066_render000000.png,stimuli/rgb_scene000066_render000006.png,0,186,186,68,"[0, 1]",right,1,17,21,f,y,y,2019_Jul_16_1017,2AFC_task,59.97404323193473,
stimuli/rgb_scene000169_render000000.png,stimuli/rgb_scene000169_render000003.png,0,187,187,170,"[1, 0]",left,1,17,21,f,y,y,2019_Jul_16_1017,2AFC_task,59.97404323193473,
stimuli/rgb_scene000160_render000003.png,stimuli/rgb_scene000160_render000006.png,0,188,188,143,"[0, 1]",right,1,17,21,f,y,y,2019_Jul_16_1017,2AFC_task,59.97404323193473,
stimuli/rgb_scene000165_render000001.png,stimuli/rgb_scene000165_render000006.png,0,189,189,157,"[1, 0]",left,1,17,21,f,y,y,2019_Jul_16_1017,2AFC_task,59.97404323193473,
stimuli/rgb_scene000160_render000000.png,stimuli/rgb_scene000160_render000001.png,0,190,190,126,"[1, 0]",left,1,17,21,f,y,y,2019_Jul_16_1017,2AFC_task,59.97404323193473,
stimuli/rgb_scene000160_render000002.png,stimuli/rgb_scene000160_render000006.png,0,191,191,140,"[1, 0]",left,1,17,21,f,y,y,2019_Jul_16_1017,2AFC_task,59.97404323193473,
stimuli/rgb_scene000150_render000000.png,stimuli/rgb_scene000150_render000001.png,0,192,192,105,"[1, 0]",left,1,17,21,f,y,y,2019_Jul_16_1017,2AFC_task,59.97404323193473,
stimuli/rgb_scene000042_render000005.png,stimuli/rgb_scene000042_render000006.png,0,193,193,20,"[1, 0]",left,1,17,21,f,y,y,2019_Jul_16_1017,2AFC_task,59.97404323193473,
stimuli/rgb_scene000150_render000002.png,stimuli/rgb_scene000150_render000003.png,0,194,194,116,"[1, 0]",left,1,17,21,f,y,y,2019_Jul_16_1017,2AFC_task,59.97404323193473,
stimuli/rgb_scene000066_render000001.png,stimuli/rgb_scene000066_render000006.png,0,195,195,73,"[1, 0]",left,1,17,21,f,y,y,2019_Jul_16_1017,2AFC_task,59.97404323193473,
stimuli/rgb_scene000169_render000003.png,stimuli/rgb_scene000169_render000004.png,0,196,196,183,"[1, 0]",left,1,17,21,f,y,y,2019_Jul_16_1017,2AFC_task,59.97404323193473,
stimuli/rgb_scene000150_render000001.png,stimuli/rgb_scene000150_render000004.png,0,197,197,113,"[0, 1]",right,1,17,21,f,y,y,2019_Jul_16_1017,2AFC_task,59.97404323193473,
stimuli/rgb_scene000047_render000001.png,stimuli/rgb_scene000047_render000004.png,0,198,198,29,"[1, 0]",left,1,17,21,f,y,y,2019_Jul_16_1017,2AFC_task,59.97404323193473,
stimuli/rgb_scene000066_render000004.png,stimuli/rgb_scene000066_render000006.png,0,199,199,82,"[0, 1]",right,1,17,21,f,y,y,2019_Jul_16_1017,2AFC_task,59.97404323193473,
stimuli/rgb_scene000066_render000001.png,stimuli/rgb_scene000066_render000003.png,0,200,200,70,"[0, 1]",right,1,17,21,f,y,y,2019_Jul_16_1017,2AFC_task,59.97404323193473,
stimuli/rgb_scene000196_render000002.png,stimuli/rgb_scene000196_render000003.png,0,201,201,200,"[1, 0]",left,1,17,21,f,y,y,2019_Jul_16_1017,2AFC_task,59.97404323193473,
stimuli/rgb_scene000150_render000001.png,stimuli/rgb_scene000150_render000003.png,0,202,202,112,"[1, 0]",left,1,17,21,f,y,y,2019_Jul_16_1017,2AFC_task,59.97404323193473,
stimuli/rgb_scene000147_render000002.png,stimuli/rgb_scene000147_render000004.png,0,203,203,96,"[1, 0]",left,1,17,21,f,y,y,2019_Jul_16_1017,2AFC_task,59.97404323193473,
stimuli/rgb_scene000047_render000002.png,stimuli/rgb_scene000047_render000004.png,0,204,204,33,"[0, 1]",right,1,17,21,f,y,y,2019_Jul_16_1017,2AFC_task,59.97404323193473,
stimuli/rgb_scene000147_render000005.png,stimuli/rgb_scene000147_render000006.png,0,205,205,104,"[0, 1]",right,1,17,21,f,y,y,2019_Jul_16_1017,2AFC_task,59.97404323193473,
stimuli/rgb_scene000147_render000003.png,stimuli/rgb_scene000147_render000006.png,0,206,206,101,"[0, 1]",right,1,17,21,f,y,y,2019_Jul_16_1017,2AFC_task,59.97404323193473,
stimuli/rgb_scene000147_render000003.png,stimuli/rgb_scene000147_render000004.png,0,207,207,99,"[0, 1]",left,0,17,21,f,y,y,2019_Jul_16_1017,2AFC_task,59.97404323193473,
stimuli/rgb_scene000165_render000002.png,stimuli/rgb_scene000165_render000003.png,0,208,208,158,"[1, 0]",left,1,17,21,f,y,y,2019_Jul_16_1017,2AFC_task,59.97404323193473,
stimuli/rgb_scene000160_render000001.png,stimuli/rgb_scene000160_render000005.png,0,209,209,135,"[0, 1]",right,1,17,21,f,y,y,2019_Jul_16_1017,2AFC_task,59.97404323193473,
stimuli/rgb_scene000056_render000000.png,stimuli/rgb_scene000056_render000004.png,1,0,210,45,"[1, 0]",left,1,17,21,f,y,y,2019_Jul_16_1017,2AFC_task,59.97404323193473,
stimuli/rgb_scene000196_render000004.png,stimuli/rgb_scene000196_render000005.png,1,1,211,207,"[1, 0]",right,0,17,21,f,y,y,2019_Jul_16_1017,2AFC_task,59.97404323193473,
stimuli/rgb_scene000066_render000000.png,stimuli/rgb_scene000066_render000005.png,1,2,212,67,"[1, 0]",left,1,17,21,f,y,y,2019_Jul_16_1017,2AFC_task,59.97404323193473,
stimuli/rgb_scene000066_render000001.png,stimuli/rgb_scene000066_render000003.png,1,3,213,70,"[1, 0]",left,1,17,21,f,y,y,2019_Jul_16_1017,2AFC_task,59.97404323193473,
stimuli/rgb_scene000150_render000003.png,stimuli/rgb_scene000150_render000006.png,1,4,214,122,"[0, 1]",right,1,17,21,f,y,y,2019_Jul_16_1017,2AFC_task,59.97404323193473,
stimuli/rgb_scene000147_render000003.png,stimuli/rgb_scene000147_render000004.png,1,5,215,99,"[0, 1]",right,1,17,21,f,y,y,2019_Jul_16_1017,2AFC_task,59.97404323193473,
stimuli/rgb_scene000147_render000001.png,stimuli/rgb_scene000147_render000003.png,1,6,216,91,"[1, 0]",left,1,17,21,f,y,y,2019_Jul_16_1017,2AFC_task,59.97404323193473,
stimuli/rgb_scene000160_render000001.png,stimuli/rgb_scene000160_render000006.png,1,7,217,136,"[0, 1]",right,1,17,21,f,y,y,2019_Jul_16_1017,2AFC_task,59.97404323193473,
stimuli/rgb_scene000066_render000000.png,stimuli/rgb_scene000066_render000001.png,1,8,218,63,"[1, 0]",left,1,17,21,f,y,y,2019_Jul_16_1017,2AFC_task,59.97404323193473,
stimuli/rgb_scene000160_render000000.png,stimuli/rgb_scene000160_render000002.png,1,9,219,127,"[1, 0]",left,1,17,21,f,y,y,2019_Jul_16_1017,2AFC_task,59.97404323193473,
stimuli/rgb_scene000042_render000005.png,stimuli/rgb_scene000042_render000006.png,1,10,220,20,"[1, 0]",left,1,17,21,f,y,y,2019_Jul_16_1017,2AFC_task,59.97404323193473,
stimuli/rgb_scene000165_render000001.png,stimuli/rgb_scene000165_render000002.png,1,11,221,153,"[1, 0]",left,1,17,21,f,y,y,2019_Jul_16_1017,2AFC_task,59.97404323193473,
stimuli/rgb_scene000147_render000002.png,stimuli/rgb_scene000147_render000006.png,1,12,222,98,"[1, 0]",left,1,17,21,f,y,y,2019_Jul_16_1017,2AFC_task,59.97404323193473,
stimuli/rgb_scene000160_render000005.png,stimuli/rgb_scene000160_render000006.png,1,13,223,146,"[1, 0]",left,1,17,21,f,y,y,2019_Jul_16_1017,2AFC_task,59.97404323193473,
stimuli/rgb_scene000169_render000002.png,stimuli/rgb_scene000169_render000005.png,1,14,224,181,"[1, 0]",left,1,17,21,f,y,y,2019_Jul_16_1017,2AFC_task,59.97404323193473,
stimuli/rgb_scene000066_render000002.png,stimuli/rgb_scene000066_render000004.png,1,15,225,75,"[0, 1]",right,1,17,21,f,y,y,2019_Jul_16_1017,2AFC_task,59.97404323193473,
stimuli/rgb_scene000047_render000000.png,stimuli/rgb_scene000047_render000004.png,1,16,226,24,"[1, 0]",left,1,17,21,f,y,y,2019_Jul_16_1017,2AFC_task,59.97404323193473,
stimuli/rgb_scene000169_render000002.png,stimuli/rgb_scene000169_render000003.png,1,17,227,179,"[1, 0]",right,0,17,21,f,y,y,2019_Jul_16_1017,2AFC_task,59.97404323193473,
stimuli/rgb_scene000196_render000000.png,stimuli/rgb_scene000196_render000003.png,1,18,228,191,"[1, 0]",left,1,17,21,f,y,y,2019_Jul_16_1017,2AFC_task,59.97404323193473,
stimuli/rgb_scene000056_render000002.png,stimuli/rgb_scene000056_render000006.png,1,19,229,56,"[1, 0]",left,1,17,21,f,y,y,2019_Jul_16_1017,2AFC_task,59.97404323193473,
stimuli/rgb_scene000169_render000004.png,stimuli/rgb_scene000169_render000006.png,1,20,230,187,"[1, 0]",left,1,17,21,f,y,y,2019_Jul_16_1017,2AFC_task,59.97404323193473,
stimuli/rgb_scene000160_render000002.png,stimuli/rgb_scene000160_render000006.png,1,21,231,140,"[0, 1]",right,1,17,21,f,y,y,2019_Jul_16_1017,2AFC_task,59.97404323193473,
stimuli/rgb_scene000169_render000000.png,stimuli/rgb_scene000169_render000004.png,1,22,232,171,"[0, 1]",right,1,17,21,f,y,y,2019_Jul_16_1017,2AFC_task,59.97404323193473,
stimuli/rgb_scene000042_render000002.png,stimuli/rgb_scene000042_render000004.png,1,23,233,12,"[0, 1]",right,1,17,21,f,y,y,2019_Jul_16_1017,2AFC_task,59.97404323193473,
stimuli/rgb_scene000056_render000003.png,stimuli/rgb_scene000056_render000005.png,1,24,234,58,"[1, 0]",left,1,17,21,f,y,y,2019_Jul_16_1017,2AFC_task,59.97404323193473,
stimuli/rgb_scene000056_render000002.png,stimuli/rgb_scene000056_render000005.png,1,25,235,55,"[1, 0]",left,1,17,21,f,y,y,2019_Jul_16_1017,2AFC_task,59.97404323193473,
stimuli/rgb_scene000047_render000003.png,stimuli/rgb_scene000047_render000005.png,1,26,236,37,"[1, 0]",left,1,17,21,f,y,y,2019_Jul_16_1017,2AFC_task,59.97404323193473,
stimuli/rgb_scene000042_render000001.png,stimuli/rgb_scene000042_render000006.png,1,27,237,10,"[0, 1]",right,1,17,21,f,y,y,2019_Jul_16_1017,2AFC_task,59.97404323193473,
stimuli/rgb_scene000150_render000003.png,stimuli/rgb_scene000150_render000005.png,1,28,238,121,"[1, 0]",left,1,17,21,f,y,y,2019_Jul_16_1017,2AFC_task,59.97404323193473,
stimuli/rgb_scene000165_render000004.png,stimuli/rgb_scene000165_render000005.png,1,29,239,165,"[1, 0]",right,0,17,21,f,y,y,2019_Jul_16_1017,2AFC_task,59.97404323193473,
stimuli/rgb_scene000047_render000002.png,stimuli/rgb_scene000047_render000005.png,1,30,240,34,"[0, 1]",right,1,17,21,f,y,y,2019_Jul_16_1017,2AFC_task,59.97404323193473,
stimuli/rgb_scene000165_render000000.png,stimuli/rgb_scene000165_render000004.png,1,31,241,150,"[1, 0]",left,1,17,21,f,y,y,2019_Jul_16_1017,2AFC_task,59.97404323193473,
stimuli/rgb_scene000147_render000003.png,stimuli/rgb_scene000147_render000006.png,1,32,242,101,"[1, 0]",left,1,17,21,f,y,y,2019_Jul_16_1017,2AFC_task,59.97404323193473,
stimuli/rgb_scene000169_render000003.png,stimuli/rgb_scene000169_render000005.png,1,33,243,184,"[1, 0]",left,1,17,21,f,y,y,2019_Jul_16_1017,2AFC_task,59.97404323193473,
stimuli/rgb_scene000196_render000001.png,stimuli/rgb_scene000196_render000006.png,1,34,244,199,"[0, 1]",left,0,17,21,f,y,y,2019_Jul_16_1017,2AFC_task,59.97404323193473,
stimuli/rgb_scene000042_render000000.png,stimuli/rgb_scene000042_render000001.png,1,35,245,0,"[1, 0]",left,1,17,21,f,y,y,2019_Jul_16_1017,2AFC_task,59.97404323193473,
stimuli/rgb_scene000147_render000002.png,stimuli/rgb_scene000147_render000004.png,1,36,246,96,"[1, 0]",left,1,17,21,f,y,y,2019_Jul_16_1017,2AFC_task,59.97404323193473,
stimuli/rgb_scene000150_render000001.png,stimuli/rgb_scene000150_render000003.png,1,37,247,112,"[0, 1]",right,1,17,21,f,y,y,2019_Jul_16_1017,2AFC_task,59.97404323193473,
stimuli/rgb_scene000047_render000001.png,stimuli/rgb_scene000047_render000006.png,1,38,248,31,"[0, 1]",right,1,17,21,f,y,y,2019_Jul_16_1017,2AFC_task,59.97404323193473,
stimuli/rgb_scene000047_render000000.png,stimuli/rgb_scene000047_render000001.png,1,39,249,21,"[1, 0]",left,1,17,21,f,y,y,2019_Jul_16_1017,2AFC_task,59.97404323193473,
stimuli/rgb_scene000066_render000002.png,stimuli/rgb_scene000066_render000003.png,1,40,250,74,"[0, 1]",right,1,17,21,f,y,y,2019_Jul_16_1017,2AFC_task,59.97404323193473,
stimuli/rgb_scene000196_render000000.png,stimuli/rgb_scene000196_render000005.png,1,41,251,193,"[1, 0]",left,1,17,21,f,y,y,2019_Jul_16_1017,2AFC_task,59.97404323193473,
stimuli/rgb_scene000047_render000005.png,stimuli/rgb_scene000047_render000006.png,1,42,252,41,"[0, 1]",right,1,17,21,f,y,y,2019_Jul_16_1017,2AFC_task,59.97404323193473,
stimuli/rgb_scene000150_render000000.png,stimuli/rgb_scene000150_render000003.png,1,43,253,107,"[0, 1]",right,1,17,21,f,y,y,2019_Jul_16_1017,2AFC_task,59.97404323193473,
stimuli/rgb_scene000066_render000001.png,stimuli/rgb_scene000066_render000006.png,1,44,254,73,"[0, 1]",right,1,17,21,f,y,y,2019_Jul_16_1017,2AFC_task,59.97404323193473,
stimuli/rgb_scene000196_render000000.png,stimuli/rgb_scene000196_render000002.png,1,45,255,190,"[1, 0]",left,1,17,21,f,y,y,2019_Jul_16_1017,2AFC_task,59.97404323193473,
stimuli/rgb_scene000042_render000001.png,stimuli/rgb_scene000042_render000004.png,1,46,256,8,"[1, 0]",left,1,17,21,f,y,y,2019_Jul_16_1017,2AFC_task,59.97404323193473,
stimuli/rgb_scene000147_render000004.png,stimuli/rgb_scene000147_render000006.png,1,47,257,103,"[1, 0]",left,1,17,21,f,y,y,2019_Jul_16_1017,2AFC_task,59.97404323193473,
stimuli/rgb_scene000147_render000005.png,stimuli/rgb_scene000147_render000006.png,1,48,258,104,"[0, 1]",right,1,17,21,f,y,y,2019_Jul_16_1017,2AFC_task,59.97404323193473,
stimuli/rgb_scene000160_render000000.png,stimuli/rgb_scene000160_render000003.png,1,49,259,128,"[1, 0]",left,1,17,21,f,y,y,2019_Jul_16_1017,2AFC_task,59.97404323193473,
stimuli/rgb_scene000047_render000001.png,stimuli/rgb_scene000047_render000003.png,1,50,260,28,"[0, 1]",right,1,17,21,f,y,y,2019_Jul_16_1017,2AFC_task,59.97404323193473,
stimuli/rgb_scene000165_render000002.png,stimuli/rgb_scene000165_render000003.png,1,51,261,158,"[0, 1]",right,1,17,21,f,y,y,2019_Jul_16_1017,2AFC_task,59.97404323193473,
stimuli/rgb_scene000150_render000005.png,stimuli/rgb_scene000150_render000006.png,1,52,262,125,"[0, 1]",left,0,17,21,f,y,y,2019_Jul_16_1017,2AFC_task,59.97404323193473,
stimuli/rgb_scene000196_render000000.png,stimuli/rgb_scene000196_render000001.png,1,53,263,189,"[0, 1]",right,1,17,21,f,y,y,2019_Jul_16_1017,2AFC_task,59.97404323193473,
stimuli/rgb_scene000042_render000000.png,stimuli/rgb_scene000042_render000004.png,1,54,264,3,"[0, 1]",right,1,17,21,f,y,y,2019_Jul_16_1017,2AFC_task,59.97404323193473,
stimuli/rgb_scene000047_render000001.png,stimuli/rgb_scene000047_render000005.png,1,55,265,30,"[0, 1]",right,1,17,21,f,y,y,2019_Jul_16_1017,2AFC_task,59.97404323193473,
stimuli/rgb_scene000066_render000000.png,stimuli/rgb_scene000066_render000003.png,1,56,266,65,"[0, 1]",right,1,17,21,f,y,y,2019_Jul_16_1017,2AFC_task,59.97404323193473,
stimuli/rgb_scene000042_render000000.png,stimuli/rgb_scene000042_render000006.png,1,57,267,5,"[1, 0]",left,1,17,21,f,y,y,2019_Jul_16_1017,2AFC_task,59.97404323193473,
stimuli/rgb_scene000042_render000003.png,stimuli/rgb_scene000042_render000004.png,1,58,268,15,"[0, 1]",right,1,17,21,f,y,y,2019_Jul_16_1017,2AFC_task,59.97404323193473,
stimuli/rgb_scene000169_render000002.png,stimuli/rgb_scene000169_render000004.png,1,59,269,180,"[0, 1]",right,1,17,21,f,y,y,2019_Jul_16_1017,2AFC_task,59.97404323193473,
stimuli/rgb_scene000056_render000003.png,stimuli/rgb_scene000056_render000004.png,1,60,270,57,"[1, 0]",left,1,17,21,f,y,y,2019_Jul_16_1017,2AFC_task,59.97404323193473,
stimuli/rgb_scene000169_render000000.png,stimuli/rgb_scene000169_render000003.png,1,61,271,170,"[0, 1]",right,1,17,21,f,y,y,2019_Jul_16_1017,2AFC_task,59.97404323193473,
stimuli/rgb_scene000196_render000002.png,stimuli/rgb_scene000196_render000003.png,1,62,272,200,"[0, 1]",left,0,17,21,f,y,y,2019_Jul_16_1017,2AFC_task,59.97404323193473,
stimuli/rgb_scene000165_render000005.png,stimuli/rgb_scene000165_render000006.png,1,63,273,167,"[1, 0]",left,1,17,21,f,y,y,2019_Jul_16_1017,2AFC_task,59.97404323193473,
stimuli/rgb_scene000165_render000000.png,stimuli/rgb_scene000165_render000001.png,1,64,274,147,"[1, 0]",left,1,17,21,f,y,y,2019_Jul_16_1017,2AFC_task,59.97404323193473,
stimuli/rgb_scene000066_render000004.png,stimuli/rgb_scene000066_render000005.png,1,65,275,81,"[1, 0]",left,1,17,21,f,y,y,2019_Jul_16_1017,2AFC_task,59.97404323193473,
stimuli/rgb_scene000147_render000001.png,stimuli/rgb_scene000147_render000004.png,1,66,276,92,"[0, 1]",right,1,17,21,f,y,y,2019_Jul_16_1017,2AFC_task,59.97404323193473,
stimuli/rgb_scene000150_render000002.png,stimuli/rgb_scene000150_render000005.png,1,67,277,118,"[1, 0]",left,1,17,21,f,y,y,2019_Jul_16_1017,2AFC_task,59.97404323193473,
stimuli/rgb_scene000056_render000001.png,stimuli/rgb_scene000056_render000004.png,1,68,278,50,"[0, 1]",right,1,17,21,f,y,y,2019_Jul_16_1017,2AFC_task,59.97404323193473,
stimuli/rgb_scene000165_render000001.png,stimuli/rgb_scene000165_render000004.png,1,69,279,155,"[1, 0]",left,1,17,21,f,y,y,2019_Jul_16_1017,2AFC_task,59.97404323193473,
stimuli/rgb_scene000169_render000000.png,stimuli/rgb_scene000169_render000001.png,1,70,280,168,"[0, 1]",right,1,17,21,f,y,y,2019_Jul_16_1017,2AFC_task,59.97404323193473,
stimuli/rgb_scene000160_render000002.png,stimuli/rgb_scene000160_render000005.png,1,71,281,139,"[1, 0]",left,1,17,21,f,y,y,2019_Jul_16_1017,2AFC_task,59.97404323193473,
stimuli/rgb_scene000066_render000001.png,stimuli/rgb_scene000066_render000002.png,1,72,282,69,"[0, 1]",right,1,17,21,f,y,y,2019_Jul_16_1017,2AFC_task,59.97404323193473,
stimuli/rgb_scene000165_render000001.png,stimuli/rgb_scene000165_render000006.png,1,73,283,157,"[1, 0]",left,1,17,21,f,y,y,2019_Jul_16_1017,2AFC_task,59.97404323193473,
stimuli/rgb_scene000165_render000001.png,stimuli/rgb_scene000165_render000005.png,1,74,284,156,"[1, 0]",left,1,17,21,f,y,y,2019_Jul_16_1017,2AFC_task,59.97404323193473,
stimuli/rgb_scene000150_render000000.png,stimuli/rgb_scene000150_render000002.png,1,75,285,106,"[0, 1]",right,1,17,21,f,y,y,2019_Jul_16_1017,2AFC_task,59.97404323193473,
stimuli/rgb_scene000042_render000001.png,stimuli/rgb_scene000042_render000002.png,1,76,286,6,"[1, 0]",left,1,17,21,f,y,y,2019_Jul_16_1017,2AFC_task,59.97404323193473,
stimuli/rgb_scene000042_render000003.png,stimuli/rgb_scene000042_render000005.png,1,77,287,16,"[1, 0]",left,1,17,21,f,y,y,2019_Jul_16_1017,2AFC_task,59.97404323193473,
stimuli/rgb_scene000160_render000004.png,stimuli/rgb_scene000160_render000005.png,1,78,288,144,"[0, 1]",right,1,17,21,f,y,y,2019_Jul_16_1017,2AFC_task,59.97404323193473,
stimuli/rgb_scene000056_render000000.png,stimuli/rgb_scene000056_render000005.png,1,79,289,46,"[1, 0]",left,1,17,21,f,y,y,2019_Jul_16_1017,2AFC_task,59.97404323193473,
stimuli/rgb_scene000147_render000000.png,stimuli/rgb_scene000147_render000002.png,1,80,290,85,"[1, 0]",left,1,17,21,f,y,y,2019_Jul_16_1017,2AFC_task,59.97404323193473,
stimuli/rgb_scene000047_render000000.png,stimuli/rgb_scene000047_render000002.png,1,81,291,22,"[0, 1]",right,1,17,21,f,y,y,2019_Jul_16_1017,2AFC_task,59.97404323193473,
stimuli/rgb_scene000047_render000000.png,stimuli/rgb_scene000047_render000003.png,1,82,292,23,"[0, 1]",right,1,17,21,f,y,y,2019_Jul_16_1017,2AFC_task,59.97404323193473,
stimuli/rgb_scene000165_render000003.png,stimuli/rgb_scene000165_render000006.png,1,83,293,164,"[1, 0]",left,1,17,21,f,y,y,2019_Jul_16_1017,2AFC_task,59.97404323193473,
stimuli/rgb_scene000169_render000000.png,stimuli/rgb_scene000169_render000002.png,1,84,294,169,"[1, 0]",left,1,17,21,f,y,y,2019_Jul_16_1017,2AFC_task,59.97404323193473,
stimuli/rgb_scene000147_render000000.png,stimuli/rgb_scene000147_render000001.png,1,85,295,84,"[1, 0]",left,1,17,21,f,y,y,2019_Jul_16_1017,2AFC_task,59.97404323193473,
stimuli/rgb_scene000150_render000001.png,stimuli/rgb_scene000150_render000002.png,1,86,296,111,"[0, 1]",right,1,17,21,f,y,y,2019_Jul_16_1017,2AFC_task,59.97404323193473,
stimuli/rgb_scene000042_render000000.png,stimuli/rgb_scene000042_render000002.png,1,87,297,1,"[0, 1]",right,1,17,21,f,y,y,2019_Jul_16_1017,2AFC_task,59.97404323193473,
stimuli/rgb_scene000196_render000004.png,stimuli/rgb_scene000196_render000006.png,1,88,298,208,"[1, 0]",right,0,17,21,f,y,y,2019_Jul_16_1017,2AFC_task,59.97404323193473,
stimuli/rgb_scene000150_render000004.png,stimuli/rgb_scene000150_render000006.png,1,89,299,124,"[1, 0]",left,1,17,21,f,y,y,2019_Jul_16_1017,2AFC_task,59.97404323193473,
stimuli/rgb_scene000047_render000001.png,stimuli/rgb_scene000047_render000002.png,1,90,300,27,"[0, 1]",right,1,17,21,f,y,y,2019_Jul_16_1017,2AFC_task,59.97404323193473,
stimuli/rgb_scene000196_render000003.png,stimuli/rgb_scene000196_render000005.png,1,91,301,205,"[0, 1]",left,0,17,21,f,y,y,2019_Jul_16_1017,2AFC_task,59.97404323193473,
stimuli/rgb_scene000056_render000001.png,stimuli/rgb_scene000056_render000002.png,1,92,302,48,"[1, 0]",left,1,17,21,f,y,y,2019_Jul_16_1017,2AFC_task,59.97404323193473,
stimuli/rgb_scene000066_render000000.png,stimuli/rgb_scene000066_render000002.png,1,93,303,64,"[0, 1]",right,1,17,21,f,y,y,2019_Jul_16_1017,2AFC_task,59.97404323193473,
stimuli/rgb_scene000056_render000004.png,stimuli/rgb_scene000056_render000006.png,1,94,304,61,"[1, 0]",left,1,17,21,f,y,y,2019_Jul_16_1017,2AFC_task,59.97404323193473,
stimuli/rgb_scene000056_render000001.png,stimuli/rgb_scene000056_render000003.png,1,95,305,49,"[0, 1]",right,1,17,21,f,y,y,2019_Jul_16_1017,2AFC_task,59.97404323193473,
stimuli/rgb_scene000047_render000004.png,stimuli/rgb_scene000047_render000005.png,1,96,306,39,"[1, 0]",right,0,17,21,f,y,y,2019_Jul_16_1017,2AFC_task,59.97404323193473,
stimuli/rgb_scene000042_render000001.png,stimuli/rgb_scene000042_render000005.png,1,97,307,9,"[0, 1]",right,1,17,21,f,y,y,2019_Jul_16_1017,2AFC_task,59.97404323193473,
stimuli/rgb_scene000196_render000003.png,stimuli/rgb_scene000196_render000004.png,1,98,308,204,"[0, 1]",left,0,17,21,f,y,y,2019_Jul_16_1017,2AFC_task,59.97404323193473,
stimuli/rgb_scene000042_render000000.png,stimuli/rgb_scene000042_render000003.png,1,99,309,2,"[0, 1]",right,1,17,21,f,y,y,2019_Jul_16_1017,2AFC_task,59.97404323193473,
stimuli/rgb_scene000160_render000000.png,stimuli/rgb_scene000160_render000004.png,1,100,310,129,"[0, 1]",right,1,17,21,f,y,y,2019_Jul_16_1017,2AFC_task,59.97404323193473,
stimuli/rgb_scene000047_render000000.png,stimuli/rgb_scene000047_render000006.png,1,101,311,26,"[1, 0]",left,1,17,21,f,y,y,2019_Jul_16_1017,2AFC_task,59.97404323193473,
stimuli/rgb_scene000066_render000001.png,stimuli/rgb_scene000066_render000004.png,1,102,312,71,"[0, 1]",right,1,17,21,f,y,y,2019_Jul_16_1017,2AFC_task,59.97404323193473,
stimuli/rgb_scene000165_render000002.png,stimuli/rgb_scene000165_render000005.png,1,103,313,160,"[0, 1]",right,1,17,21,f,y,y,2019_Jul_16_1017,2AFC_task,59.97404323193473,
stimuli/rgb_scene000169_render000002.png,stimuli/rgb_scene000169_render000006.png,1,104,314,182,"[0, 1]",right,1,17,21,f,y,y,2019_Jul_16_1017,2AFC_task,59.97404323193473,
stimuli/rgb_scene000066_render000004.png,stimuli/rgb_scene000066_render000006.png,1,105,315,82,"[1, 0]",left,1,17,21,f,y,y,2019_Jul_16_1017,2AFC_task,59.97404323193473,
stimuli/rgb_scene000056_render000002.png,stimuli/rgb_scene000056_render000004.png,1,106,316,54,"[0, 1]",right,1,17,21,f,y,y,2019_Jul_16_1017,2AFC_task,59.97404323193473,
stimuli/rgb_scene000196_render000000.png,stimuli/rgb_scene000196_render000006.png,1,107,317,194,"[0, 1]",right,1,17,21,f,y,y,2019_Jul_16_1017,2AFC_task,59.97404323193473,
stimuli/rgb_scene000056_render000001.png,stimuli/rgb_scene000056_render000006.png,1,108,318,52,"[1, 0]",left,1,17,21,f,y,y,2019_Jul_16_1017,2AFC_task,59.97404323193473,
stimuli/rgb_scene000196_render000005.png,stimuli/rgb_scene000196_render000006.png,1,109,319,209,"[1, 0]",right,0,17,21,f,y,y,2019_Jul_16_1017,2AFC_task,59.97404323193473,
stimuli/rgb_scene000160_render000004.png,stimuli/rgb_scene000160_render000006.png,1,110,320,145,"[1, 0]",left,1,17,21,f,y,y,2019_Jul_16_1017,2AFC_task,59.97404323193473,
stimuli/rgb_scene000160_render000001.png,stimuli/rgb_scene000160_render000002.png,1,111,321,132,"[0, 1]",right,1,17,21,f,y,y,2019_Jul_16_1017,2AFC_task,59.97404323193473,
stimuli/rgb_scene000196_render000003.png,stimuli/rgb_scene000196_render000006.png,1,112,322,206,"[0, 1]",left,0,17,21,f,y,y,2019_Jul_16_1017,2AFC_task,59.97404323193473,
stimuli/rgb_scene000047_render000001.png,stimuli/rgb_scene000047_render000004.png,1,113,323,29,"[1, 0]",left,1,17,21,f,y,y,2019_Jul_16_1017,2AFC_task,59.97404323193473,
stimuli/rgb_scene000042_render000003.png,stimuli/rgb_scene000042_render000006.png,1,114,324,17,"[1, 0]",left,1,17,21,f,y,y,2019_Jul_16_1017,2AFC_task,59.97404323193473,
stimuli/rgb_scene000147_render000001.png,stimuli/rgb_scene000147_render000005.png,1,115,325,93,"[1, 0]",left,1,17,21,f,y,y,2019_Jul_16_1017,2AFC_task,59.97404323193473,
stimuli/rgb_scene000169_render000001.png,stimuli/rgb_scene000169_render000005.png,1,116,326,177,"[0, 1]",right,1,17,21,f,y,y,2019_Jul_16_1017,2AFC_task,59.97404323193473,
stimuli/rgb_scene000042_render000000.png,stimuli/rgb_scene000042_render000005.png,1,117,327,4,"[0, 1]",right,1,17,21,f,y,y,2019_Jul_16_1017,2AFC_task,59.97404323193473,
stimuli/rgb_scene000150_render000000.png,stimuli/rgb_scene000150_render000004.png,1,118,328,108,"[0, 1]",right,1,17,21,f,y,y,2019_Jul_16_1017,2AFC_task,59.97404323193473,
stimuli/rgb_scene000169_render000001.png,stimuli/rgb_scene000169_render000003.png,1,119,329,175,"[1, 0]",right,0,17,21,f,y,y,2019_Jul_16_1017,2AFC_task,59.97404323193473,
stimuli/rgb_scene000047_render000003.png,stimuli/rgb_scene000047_render000004.png,1,120,330,36,"[1, 0]",left,1,17,21,f,y,y,2019_Jul_16_1017,2AFC_task,59.97404323193473,
stimuli/rgb_scene000169_render000001.png,stimuli/rgb_scene000169_render000006.png,1,121,331,178,"[0, 1]",right,1,17,21,f,y,y,2019_Jul_16_1017,2AFC_task,59.97404323193473,
stimuli/rgb_scene000160_render000003.png,stimuli/rgb_scene000160_render000004.png,1,122,332,141,"[0, 1]",right,1,17,21,f,y,y,2019_Jul_16_1017,2AFC_task,59.97404323193473,
stimuli/rgb_scene000165_render000002.png,stimuli/rgb_scene000165_render000004.png,1,123,333,159,"[1, 0]",left,1,17,21,f,y,y,2019_Jul_16_1017,2AFC_task,59.97404323193473,
stimuli/rgb_scene000147_render000000.png,stimuli/rgb_scene000147_render000006.png,1,124,334,89,"[0, 1]",right,1,17,21,f,y,y,2019_Jul_16_1017,2AFC_task,59.97404323193473,
stimuli/rgb_scene000147_render000001.png,stimuli/rgb_scene000147_render000002.png,1,125,335,90,"[1, 0]",left,1,17,21,f,y,y,2019_Jul_16_1017,2AFC_task,59.97404323193473,
stimuli/rgb_scene000169_render000005.png,stimuli/rgb_scene000169_render000006.png,1,126,336,188,"[1, 0]",left,1,17,21,f,y,y,2019_Jul_16_1017,2AFC_task,59.97404323193473,
stimuli/rgb_scene000042_render000004.png,stimuli/rgb_scene000042_render000006.png,1,127,337,19,"[1, 0]",left,1,17,21,f,y,y,2019_Jul_16_1017,2AFC_task,59.97404323193473,
stimuli/rgb_scene000147_render000002.png,stimuli/rgb_scene000147_render000003.png,1,128,338,95,"[1, 0]",left,1,17,21,f,y,y,2019_Jul_16_1017,2AFC_task,59.97404323193473,
stimuli/rgb_scene000196_render000001.png,stimuli/rgb_scene000196_render000004.png,1,129,339,197,"[0, 1]",right,1,17,21,f,y,y,2019_Jul_16_1017,2AFC_task,59.97404323193473,
stimuli/rgb_scene000047_render000004.png,stimuli/rgb_scene000047_render000006.png,1,130,340,40,"[1, 0]",left,1,17,21,f,y,y,2019_Jul_16_1017,2AFC_task,59.97404323193473,
stimuli/rgb_scene000047_render000002.png,stimuli/rgb_scene000047_render000006.png,1,131,341,35,"[1, 0]",left,1,17,21,f,y,y,2019_Jul_16_1017,2AFC_task,59.97404323193473,
stimuli/rgb_scene000056_render000001.png,stimuli/rgb_scene000056_render000005.png,1,132,342,51,"[1, 0]",left,1,17,21,f,y,y,2019_Jul_16_1017,2AFC_task,59.97404323193473,
stimuli/rgb_scene000169_render000004.png,stimuli/rgb_scene000169_render000005.png,1,133,343,186,"[0, 1]",right,1,17,21,f,y,y,2019_Jul_16_1017,2AFC_task,59.97404323193473,
stimuli/rgb_scene000066_render000000.png,stimuli/rgb_scene000066_render000004.png,1,134,344,66,"[0, 1]",right,1,17,21,f,y,y,2019_Jul_16_1017,2AFC_task,59.97404323193473,
stimuli/rgb_scene000047_render000002.png,stimuli/rgb_scene000047_render000004.png,1,135,345,33,"[1, 0]",left,1,17,21,f,y,y,2019_Jul_16_1017,2AFC_task,59.97404323193473,
stimuli/rgb_scene000160_render000000.png,stimuli/rgb_scene000160_render000006.png,1,136,346,131,"[1, 0]",left,1,17,21,f,y,y,2019_Jul_16_1017,2AFC_task,59.97404323193473,
stimuli/rgb_scene000165_render000000.png,stimuli/rgb_scene000165_render000003.png,1,137,347,149,"[1, 0]",left,1,17,21,f,y,y,2019_Jul_16_1017,2AFC_task,59.97404323193473,
stimuli/rgb_scene000196_render000002.png,stimuli/rgb_scene000196_render000005.png,1,138,348,202,"[1, 0]",right,0,17,21,f,y,y,2019_Jul_16_1017,2AFC_task,59.97404323193473,
stimuli/rgb_scene000160_render000000.png,stimuli/rgb_scene000160_render000005.png,1,139,349,130,"[1, 0]",left,1,17,21,f,y,y,2019_Jul_16_1017,2AFC_task,59.97404323193473,
stimuli/rgb_scene000147_render000003.png,stimuli/rgb_scene000147_render000005.png,1,140,350,100,"[1, 0]",left,1,17,21,f,y,y,2019_Jul_16_1017,2AFC_task,59.97404323193473,
stimuli/rgb_scene000150_render000000.png,stimuli/rgb_scene000150_render000001.png,1,141,351,105,"[1, 0]",left,1,17,21,f,y,y,2019_Jul_16_1017,2AFC_task,59.97404323193473,
stimuli/rgb_scene000042_render000002.png,stimuli/rgb_scene000042_render000006.png,1,142,352,14,"[0, 1]",right,1,17,21,f,y,y,2019_Jul_16_1017,2AFC_task,59.97404323193473,
stimuli/rgb_scene000066_render000002.png,stimuli/rgb_scene000066_render000006.png,1,143,353,77,"[1, 0]",left,1,17,21,f,y,y,2019_Jul_16_1017,2AFC_task,59.97404323193473,
stimuli/rgb_scene000160_render000002.png,stimuli/rgb_scene000160_render000004.png,1,144,354,138,"[1, 0]",left,1,17,21,f,y,y,2019_Jul_16_1017,2AFC_task,59.97404323193473,
stimuli/rgb_scene000042_render000002.png,stimuli/rgb_scene000042_render000003.png,1,145,355,11,"[0, 1]",right,1,17,21,f,y,y,2019_Jul_16_1017,2AFC_task,59.97404323193473,
stimuli/rgb_scene000196_render000002.png,stimuli/rgb_scene000196_render000006.png,1,146,356,203,"[1, 0]",right,0,17,21,f,y,y,2019_Jul_16_1017,2AFC_task,59.97404323193473,
stimuli/rgb_scene000056_render000000.png,stimuli/rgb_scene000056_render000006.png,1,147,357,47,"[0, 1]",right,1,17,21,f,y,y,2019_Jul_16_1017,2AFC_task,59.97404323193473,
stimuli/rgb_scene000056_render000000.png,stimuli/rgb_scene000056_render000001.png,1,148,358,42,"[0, 1]",right,1,17,21,f,y,y,2019_Jul_16_1017,2AFC_task,59.97404323193473,
stimuli/rgb_scene000150_render000003.png,stimuli/rgb_scene000150_render000004.png,1,149,359,120,"[0, 1]",right,1,17,21,f,y,y,2019_Jul_16_1017,2AFC_task,59.97404323193473,
stimuli/rgb_scene000066_render000001.png,stimuli/rgb_scene000066_render000005.png,1,150,360,72,"[0, 1]",right,1,17,21,f,y,y,2019_Jul_16_1017,2AFC_task,59.97404323193473,
stimuli/rgb_scene000147_render000004.png,stimuli/rgb_scene000147_render000005.png,1,151,361,102,"[0, 1]",right,1,17,21,f,y,y,2019_Jul_16_1017,2AFC_task,59.97404323193473,
stimuli/rgb_scene000160_render000000.png,stimuli/rgb_scene000160_render000001.png,1,152,362,126,"[0, 1]",right,1,17,21,f,y,y,2019_Jul_16_1017,2AFC_task,59.97404323193473,
stimuli/rgb_scene000160_render000001.png,stimuli/rgb_scene000160_render000005.png,1,153,363,135,"[0, 1]",right,1,17,21,f,y,y,2019_Jul_16_1017,2AFC_task,59.97404323193473,
stimuli/rgb_scene000196_render000000.png,stimuli/rgb_scene000196_render000004.png,1,154,364,192,"[0, 1]",right,1,17,21,f,y,y,2019_Jul_16_1017,2AFC_task,59.97404323193473,
stimuli/rgb_scene000066_render000003.png,stimuli/rgb_scene000066_render000004.png,1,155,365,78,"[1, 0]",left,1,17,21,f,y,y,2019_Jul_16_1017,2AFC_task,59.97404323193473,
stimuli/rgb_scene000169_render000000.png,stimuli/rgb_scene000169_render000006.png,1,156,366,173,"[0, 1]",right,1,17,21,f,y,y,2019_Jul_16_1017,2AFC_task,59.97404323193473,
stimuli/rgb_scene000147_render000000.png,stimuli/rgb_scene000147_render000003.png,1,157,367,86,"[1, 0]",left,1,17,21,f,y,y,2019_Jul_16_1017,2AFC_task,59.97404323193473,
stimuli/rgb_scene000160_render000001.png,stimuli/rgb_scene000160_render000003.png,1,158,368,133,"[0, 1]",right,1,17,21,f,y,y,2019_Jul_16_1017,2AFC_task,59.97404323193473,
stimuli/rgb_scene000196_render000002.png,stimuli/rgb_scene000196_render000004.png,1,159,369,201,"[0, 1]",left,0,17,21,f,y,y,2019_Jul_16_1017,2AFC_task,59.97404323193473,
stimuli/rgb_scene000169_render000003.png,stimuli/rgb_scene000169_render000006.png,1,160,370,185,"[0, 1]",right,1,17,21,f,y,y,2019_Jul_16_1017,2AFC_task,59.97404323193473,
stimuli/rgb_scene000160_render000003.png,stimuli/rgb_scene000160_render000006.png,1,161,371,143,"[0, 1]",right,1,17,21,f,y,y,2019_Jul_16_1017,2AFC_task,59.97404323193473,
stimuli/rgb_scene000150_render000000.png,stimuli/rgb_scene000150_render000006.png,1,162,372,110,"[1, 0]",left,1,17,21,f,y,y,2019_Jul_16_1017,2AFC_task,59.97404323193473,
stimuli/rgb_scene000165_render000000.png,stimuli/rgb_scene000165_render000002.png,1,163,373,148,"[1, 0]",left,1,17,21,f,y,y,2019_Jul_16_1017,2AFC_task,59.97404323193473,
stimuli/rgb_scene000147_render000002.png,stimuli/rgb_scene000147_render000005.png,1,164,374,97,"[0, 1]",right,1,17,21,f,y,y,2019_Jul_16_1017,2AFC_task,59.97404323193473,
stimuli/rgb_scene000165_render000003.png,stimuli/rgb_scene000165_render000005.png,1,165,375,163,"[1, 0]",left,1,17,21,f,y,y,2019_Jul_16_1017,2AFC_task,59.97404323193473,
stimuli/rgb_scene000066_render000000.png,stimuli/rgb_scene000066_render000006.png,1,166,376,68,"[1, 0]",left,1,17,21,f,y,y,2019_Jul_16_1017,2AFC_task,59.97404323193473,
stimuli/rgb_scene000147_render000000.png,stimuli/rgb_scene000147_render000005.png,1,167,377,88,"[0, 1]",right,1,17,21,f,y,y,2019_Jul_16_1017,2AFC_task,59.97404323193473,
stimuli/rgb_scene000066_render000005.png,stimuli/rgb_scene000066_render000006.png,1,168,378,83,"[0, 1]",right,1,17,21,f,y,y,2019_Jul_16_1017,2AFC_task,59.97404323193473,
stimuli/rgb_scene000150_render000000.png,stimuli/rgb_scene000150_render000005.png,1,169,379,109,"[0, 1]",right,1,17,21,f,y,y,2019_Jul_16_1017,2AFC_task,59.97404323193473,
stimuli/rgb_scene000150_render000001.png,stimuli/rgb_scene000150_render000004.png,1,170,380,113,"[1, 0]",left,1,17,21,f,y,y,2019_Jul_16_1017,2AFC_task,59.97404323193473,
stimuli/rgb_scene000150_render000002.png,stimuli/rgb_scene000150_render000006.png,1,171,381,119,"[1, 0]",left,1,17,21,f,y,y,2019_Jul_16_1017,2AFC_task,59.97404323193473,
stimuli/rgb_scene000047_render000003.png,stimuli/rgb_scene000047_render000006.png,1,172,382,38,"[1, 0]",left,1,17,21,f,y,y,2019_Jul_16_1017,2AFC_task,59.97404323193473,
stimuli/rgb_scene000150_render000004.png,stimuli/rgb_scene000150_render000005.png,1,173,383,123,"[0, 1]",right,1,17,21,f,y,y,2019_Jul_16_1017,2AFC_task,59.97404323193473,
stimuli/rgb_scene000066_render000003.png,stimuli/rgb_scene000066_render000006.png,1,174,384,80,"[1, 0]",left,1,17,21,f,y,y,2019_Jul_16_1017,2AFC_task,59.97404323193473,
stimuli/rgb_scene000056_render000003.png,stimuli/rgb_scene000056_render000006.png,1,175,385,59,"[1, 0]",left,1,17,21,f,y,y,2019_Jul_16_1017,2AFC_task,59.97404323193473,
stimuli/rgb_scene000165_render000000.png,stimuli/rgb_scene000165_render000005.png,1,176,386,151,"[1, 0]",left,1,17,21,f,y,y,2019_Jul_16_1017,2AFC_task,59.97404323193473,
stimuli/rgb_scene000169_render000000.png,stimuli/rgb_scene000169_render000005.png,1,177,387,172,"[0, 1]",right,1,17,21,f,y,y,2019_Jul_16_1017,2AFC_task,59.97404323193473,
stimuli/rgb_scene000147_render000000.png,stimuli/rgb_scene000147_render000004.png,1,178,388,87,"[0, 1]",right,1,17,21,f,y,y,2019_Jul_16_1017,2AFC_task,59.97404323193473,
stimuli/rgb_scene000150_render000001.png,stimuli/rgb_scene000150_render000006.png,1,179,389,115,"[0, 1]",right,1,17,21,f,y,y,2019_Jul_16_1017,2AFC_task,59.97404323193473,
stimuli/rgb_scene000150_render000002.png,stimuli/rgb_scene000150_render000004.png,1,180,390,117,"[0, 1]",right,1,17,21,f,y,y,2019_Jul_16_1017,2AFC_task,59.97404323193473,
stimuli/rgb_scene000196_render000001.png,stimuli/rgb_scene000196_render000003.png,1,181,391,196,"[1, 0]",left,1,17,21,f,y,y,2019_Jul_16_1017,2AFC_task,59.97404323193473,
stimuli/rgb_scene000042_render000001.png,stimuli/rgb_scene000042_render000003.png,1,182,392,7,"[1, 0]",left,1,17,21,f,y,y,2019_Jul_16_1017,2AFC_task,59.97404323193473,
stimuli/rgb_scene000066_render000002.png,stimuli/rgb_scene000066_render000005.png,1,183,393,76,"[0, 1]",right,1,17,21,f,y,y,2019_Jul_16_1017,2AFC_task,59.97404323193473,
stimuli/rgb_scene000056_render000004.png,stimuli/rgb_scene000056_render000005.png,1,184,394,60,"[0, 1]",right,1,17,21,f,y,y,2019_Jul_16_1017,2AFC_task,59.97404323193473,
stimuli/rgb_scene000196_render000001.png,stimuli/rgb_scene000196_render000005.png,1,185,395,198,"[0, 1]",left,0,17,21,f,y,y,2019_Jul_16_1017,2AFC_task,59.97404323193473,
stimuli/rgb_scene000160_render000003.png,stimuli/rgb_scene000160_render000005.png,1,186,396,142,"[0, 1]",right,1,17,21,f,y,y,2019_Jul_16_1017,2AFC_task,59.97404323193473,
stimuli/rgb_scene000169_render000001.png,stimuli/rgb_scene000169_render000002.png,1,187,397,174,"[0, 1]",right,1,17,21,f,y,y,2019_Jul_16_1017,2AFC_task,59.97404323193473,
stimuli/rgb_scene000160_render000001.png,stimuli/rgb_scene000160_render000004.png,1,188,398,134,"[1, 0]",left,1,17,21,f,y,y,2019_Jul_16_1017,2AFC_task,59.97404323193473,
stimuli/rgb_scene000066_render000003.png,stimuli/rgb_scene000066_render000005.png,1,189,399,79,"[0, 1]",right,1,17,21,f,y,y,2019_Jul_16_1017,2AFC_task,59.97404323193473,
stimuli/rgb_scene000056_render000002.png,stimuli/rgb_scene000056_render000003.png,1,190,400,53,"[0, 1]",right,1,17,21,f,y,y,2019_Jul_16_1017,2AFC_task,59.97404323193473,
stimuli/rgb_scene000169_render000003.png,stimuli/rgb_scene000169_render000004.png,1,191,401,183,"[1, 0]",left,1,17,21,f,y,y,2019_Jul_16_1017,2AFC_task,59.97404323193473,
stimuli/rgb_scene000160_render000002.png,stimuli/rgb_scene000160_render000003.png,1,192,402,137,"[0, 1]",right,1,17,21,f,y,y,2019_Jul_16_1017,2AFC_task,59.97404323193473,
stimuli/rgb_scene000042_render000004.png,stimuli/rgb_scene000042_render000005.png,1,193,403,18,"[1, 0]",left,1,17,21,f,y,y,2019_Jul_16_1017,2AFC_task,59.97404323193473,
stimuli/rgb_scene000165_render000003.png,stimuli/rgb_scene000165_render000004.png,1,194,404,162,"[1, 0]",left,1,17,21,f,y,y,2019_Jul_16_1017,2AFC_task,59.97404323193473,
stimuli/rgb_scene000169_render000001.png,stimuli/rgb_scene000169_render000004.png,1,195,405,176,"[0, 1]",left,0,17,21,f,y,y,2019_Jul_16_1017,2AFC_task,59.97404323193473,
stimuli/rgb_scene000056_render000005.png,stimuli/rgb_scene000056_render000006.png,1,196,406,62,"[0, 1]",right,1,17,21,f,y,y,2019_Jul_16_1017,2AFC_task,59.97404323193473,
stimuli/rgb_scene000042_render000002.png,stimuli/rgb_scene000042_render000005.png,1,197,407,13,"[1, 0]",left,1,17,21,f,y,y,2019_Jul_16_1017,2AFC_task,59.97404323193473,
stimuli/rgb_scene000196_render000001.png,stimuli/rgb_scene000196_render000002.png,1,198,408,195,"[0, 1]",left,0,17,21,f,y,y,2019_Jul_16_1017,2AFC_task,59.97404323193473,
stimuli/rgb_scene000165_render000002.png,stimuli/rgb_scene000165_render000006.png,1,199,409,161,"[0, 1]",right,1,17,21,f,y,y,2019_Jul_16_1017,2AFC_task,59.97404323193473,
stimuli/rgb_scene000165_render000001.png,stimuli/rgb_scene000165_render000003.png,1,200,410,154,"[1, 0]",left,1,17,21,f,y,y,2019_Jul_16_1017,2AFC_task,59.97404323193473,
stimuli/rgb_scene000056_render000000.png,stimuli/rgb_scene000056_render000003.png,1,201,411,44,"[1, 0]",left,1,17,21,f,y,y,2019_Jul_16_1017,2AFC_task,59.97404323193473,
stimuli/rgb_scene000047_render000000.png,stimuli/rgb_scene000047_render000005.png,1,202,412,25,"[1, 0]",left,1,17,21,f,y,y,2019_Jul_16_1017,2AFC_task,59.97404323193473,
stimuli/rgb_scene000150_render000002.png,stimuli/rgb_scene000150_render000003.png,1,203,413,116,"[0, 1]",right,1,17,21,f,y,y,2019_Jul_16_1017,2AFC_task,59.97404323193473,
stimuli/rgb_scene000150_render000001.png,stimuli/rgb_scene000150_render000005.png,1,204,414,114,"[1, 0]",left,1,17,21,f,y,y,2019_Jul_16_1017,2AFC_task,59.97404323193473,
stimuli/rgb_scene000165_render000004.png,stimuli/rgb_scene000165_render000006.png,1,205,415,166,"[0, 1]",right,1,17,21,f,y,y,2019_Jul_16_1017,2AFC_task,59.97404323193473,
stimuli/rgb_scene000047_render000002.png,stimuli/rgb_scene000047_render000003.png,1,206,416,32,"[0, 1]",right,1,17,21,f,y,y,2019_Jul_16_1017,2AFC_task,59.97404323193473,
stimuli/rgb_scene000147_render000001.png,stimuli/rgb_scene000147_render000006.png,1,207,417,94,"[1, 0]",left,1,17,21,f,y,y,2019_Jul_16_1017,2AFC_task,59.97404323193473,
stimuli/rgb_scene000165_render000000.png,stimuli/rgb_scene000165_render000006.png,1,208,418,152,"[0, 1]",right,1,17,21,f,y,y,2019_Jul_16_1017,2AFC_task,59.97404323193473,
stimuli/rgb_scene000056_render000000.png,stimuli/rgb_scene000056_render000002.png,1,209,419,43,"[1, 0]",left,1,17,21,f,y,y,2019_Jul_16_1017,2AFC_task,59.97404323193473,
