stimOne,stimTwo,trials_1.thisRepN,trials_1.thisTrialN,trials_1.thisN,trials_1.thisIndex,presentation_positions,resp_key,corresponding_image,participant ID (two digits, e.g. 01),age,gender (m/f/-),normal or corrected-to-normal vision (y/n),normal colour vision (y/n),date,expName,frameRate,
stimuli/rgb_scene000150_render000000.png,stimuli/rgb_scene000150_render000001.png,0,0,0,105,"[0, 1]",right,1,19,26,f,y,y,2019_Jul_16_1228,2AFC_task,59.9638298216623,
stimuli/rgb_scene000066_render000001.png,stimuli/rgb_scene000066_render000005.png,0,1,1,72,"[0, 1]",right,1,19,26,f,y,y,2019_Jul_16_1228,2AFC_task,59.9638298216623,
stimuli/rgb_scene000042_render000001.png,stimuli/rgb_scene000042_render000005.png,0,2,2,9,"[1, 0]",left,1,19,26,f,y,y,2019_Jul_16_1228,2AFC_task,59.9638298216623,
stimuli/rgb_scene000165_render000001.png,stimuli/rgb_scene000165_render000002.png,0,3,3,153,"[0, 1]",right,1,19,26,f,y,y,2019_Jul_16_1228,2AFC_task,59.9638298216623,
stimuli/rgb_scene000042_render000002.png,stimuli/rgb_scene000042_render000004.png,0,4,4,12,"[0, 1]",right,1,19,26,f,y,y,2019_Jul_16_1228,2AFC_task,59.9638298216623,
stimuli/rgb_scene000150_render000000.png,stimuli/rgb_scene000150_render000005.png,0,5,5,109,"[1, 0]",left,1,19,26,f,y,y,2019_Jul_16_1228,2AFC_task,59.9638298216623,
stimuli/rgb_scene000147_render000001.png,stimuli/rgb_scene000147_render000005.png,0,6,6,93,"[1, 0]",left,1,19,26,f,y,y,2019_Jul_16_1228,2AFC_task,59.9638298216623,
stimuli/rgb_scene000042_render000003.png,stimuli/rgb_scene000042_render000004.png,0,7,7,15,"[0, 1]",right,1,19,26,f,y,y,2019_Jul_16_1228,2AFC_task,59.9638298216623,
stimuli/rgb_scene000147_render000001.png,stimuli/rgb_scene000147_render000003.png,0,8,8,91,"[1, 0]",left,1,19,26,f,y,y,2019_Jul_16_1228,2AFC_task,59.9638298216623,
stimuli/rgb_scene000196_render000002.png,stimuli/rgb_scene000196_render000003.png,0,9,9,200,"[1, 0]",left,1,19,26,f,y,y,2019_Jul_16_1228,2AFC_task,59.9638298216623,
stimuli/rgb_scene000066_render000002.png,stimuli/rgb_scene000066_render000003.png,0,10,10,74,"[1, 0]",left,1,19,26,f,y,y,2019_Jul_16_1228,2AFC_task,59.9638298216623,
stimuli/rgb_scene000160_render000003.png,stimuli/rgb_scene000160_render000005.png,0,11,11,142,"[0, 1]",right,1,19,26,f,y,y,2019_Jul_16_1228,2AFC_task,59.9638298216623,
stimuli/rgb_scene000169_render000003.png,stimuli/rgb_scene000169_render000005.png,0,12,12,184,"[1, 0]",left,1,19,26,f,y,y,2019_Jul_16_1228,2AFC_task,59.9638298216623,
stimuli/rgb_scene000047_render000005.png,stimuli/rgb_scene000047_render000006.png,0,13,13,41,"[1, 0]",left,1,19,26,f,y,y,2019_Jul_16_1228,2AFC_task,59.9638298216623,
stimuli/rgb_scene000196_render000002.png,stimuli/rgb_scene000196_render000006.png,0,14,14,203,"[0, 1]",right,1,19,26,f,y,y,2019_Jul_16_1228,2AFC_task,59.9638298216623,
stimuli/rgb_scene000160_render000000.png,stimuli/rgb_scene000160_render000001.png,0,15,15,126,"[0, 1]",right,1,19,26,f,y,y,2019_Jul_16_1228,2AFC_task,59.9638298216623,
stimuli/rgb_scene000169_render000002.png,stimuli/rgb_scene000169_render000003.png,0,16,16,179,"[1, 0]",left,1,19,26,f,y,y,2019_Jul_16_1228,2AFC_task,59.9638298216623,
stimuli/rgb_scene000066_render000003.png,stimuli/rgb_scene000066_render000006.png,0,17,17,80,"[1, 0]",left,1,19,26,f,y,y,2019_Jul_16_1228,2AFC_task,59.9638298216623,
stimuli/rgb_scene000160_render000000.png,stimuli/rgb_scene000160_render000003.png,0,18,18,128,"[0, 1]",right,1,19,26,f,y,y,2019_Jul_16_1228,2AFC_task,59.9638298216623,
stimuli/rgb_scene000147_render000000.png,stimuli/rgb_scene000147_render000006.png,0,19,19,89,"[0, 1]",right,1,19,26,f,y,y,2019_Jul_16_1228,2AFC_task,59.9638298216623,
stimuli/rgb_scene000047_render000000.png,stimuli/rgb_scene000047_render000006.png,0,20,20,26,"[1, 0]",left,1,19,26,f,y,y,2019_Jul_16_1228,2AFC_task,59.9638298216623,
stimuli/rgb_scene000042_render000000.png,stimuli/rgb_scene000042_render000006.png,0,21,21,5,"[1, 0]",left,1,19,26,f,y,y,2019_Jul_16_1228,2AFC_task,59.9638298216623,
stimuli/rgb_scene000160_render000002.png,stimuli/rgb_scene000160_render000004.png,0,22,22,138,"[1, 0]",left,1,19,26,f,y,y,2019_Jul_16_1228,2AFC_task,59.9638298216623,
stimuli/rgb_scene000165_render000001.png,stimuli/rgb_scene000165_render000004.png,0,23,23,155,"[0, 1]",right,1,19,26,f,y,y,2019_Jul_16_1228,2AFC_task,59.9638298216623,
stimuli/rgb_scene000047_render000003.png,stimuli/rgb_scene000047_render000004.png,0,24,24,36,"[0, 1]",right,1,19,26,f,y,y,2019_Jul_16_1228,2AFC_task,59.9638298216623,
stimuli/rgb_scene000147_render000001.png,stimuli/rgb_scene000147_render000002.png,0,25,25,90,"[0, 1]",right,1,19,26,f,y,y,2019_Jul_16_1228,2AFC_task,59.9638298216623,
stimuli/rgb_scene000160_render000000.png,stimuli/rgb_scene000160_render000004.png,0,26,26,129,"[0, 1]",right,1,19,26,f,y,y,2019_Jul_16_1228,2AFC_task,59.9638298216623,
stimuli/rgb_scene000160_render000002.png,stimuli/rgb_scene000160_render000003.png,0,27,27,137,"[1, 0]",left,1,19,26,f,y,y,2019_Jul_16_1228,2AFC_task,59.9638298216623,
stimuli/rgb_scene000047_render000001.png,stimuli/rgb_scene000047_render000003.png,0,28,28,28,"[1, 0]",left,1,19,26,f,y,y,2019_Jul_16_1228,2AFC_task,59.9638298216623,
stimuli/rgb_scene000056_render000002.png,stimuli/rgb_scene000056_render000004.png,0,29,29,54,"[0, 1]",right,1,19,26,f,y,y,2019_Jul_16_1228,2AFC_task,59.9638298216623,
stimuli/rgb_scene000056_render000001.png,stimuli/rgb_scene000056_render000006.png,0,30,30,52,"[1, 0]",left,1,19,26,f,y,y,2019_Jul_16_1228,2AFC_task,59.9638298216623,
stimuli/rgb_scene000160_render000000.png,stimuli/rgb_scene000160_render000006.png,0,31,31,131,"[1, 0]",left,1,19,26,f,y,y,2019_Jul_16_1228,2AFC_task,59.9638298216623,
stimuli/rgb_scene000169_render000000.png,stimuli/rgb_scene000169_render000002.png,0,32,32,169,"[1, 0]",left,1,19,26,f,y,y,2019_Jul_16_1228,2AFC_task,59.9638298216623,
stimuli/rgb_scene000165_render000000.png,stimuli/rgb_scene000165_render000004.png,0,33,33,150,"[1, 0]",left,1,19,26,f,y,y,2019_Jul_16_1228,2AFC_task,59.9638298216623,
stimuli/rgb_scene000169_render000000.png,stimuli/rgb_scene000169_render000003.png,0,34,34,170,"[1, 0]",left,1,19,26,f,y,y,2019_Jul_16_1228,2AFC_task,59.9638298216623,
stimuli/rgb_scene000147_render000000.png,stimuli/rgb_scene000147_render000003.png,0,35,35,86,"[1, 0]",left,1,19,26,f,y,y,2019_Jul_16_1228,2AFC_task,59.9638298216623,
stimuli/rgb_scene000147_render000004.png,stimuli/rgb_scene000147_render000005.png,0,36,36,102,"[1, 0]",left,1,19,26,f,y,y,2019_Jul_16_1228,2AFC_task,59.9638298216623,
stimuli/rgb_scene000169_render000000.png,stimuli/rgb_scene000169_render000006.png,0,37,37,173,"[0, 1]",right,1,19,26,f,y,y,2019_Jul_16_1228,2AFC_task,59.9638298216623,
stimuli/rgb_scene000160_render000004.png,stimuli/rgb_scene000160_render000006.png,0,38,38,145,"[1, 0]",left,1,19,26,f,y,y,2019_Jul_16_1228,2AFC_task,59.9638298216623,
stimuli/rgb_scene000150_render000001.png,stimuli/rgb_scene000150_render000006.png,0,39,39,115,"[0, 1]",right,1,19,26,f,y,y,2019_Jul_16_1228,2AFC_task,59.9638298216623,
stimuli/rgb_scene000056_render000002.png,stimuli/rgb_scene000056_render000005.png,0,40,40,55,"[1, 0]",left,1,19,26,f,y,y,2019_Jul_16_1228,2AFC_task,59.9638298216623,
stimuli/rgb_scene000160_render000001.png,stimuli/rgb_scene000160_render000002.png,0,41,41,132,"[1, 0]",left,1,19,26,f,y,y,2019_Jul_16_1228,2AFC_task,59.9638298216623,
stimuli/rgb_scene000169_render000005.png,stimuli/rgb_scene000169_render000006.png,0,42,42,188,"[1, 0]",right,0,19,26,f,y,y,2019_Jul_16_1228,2AFC_task,59.9638298216623,
stimuli/rgb_scene000056_render000002.png,stimuli/rgb_scene000056_render000003.png,0,43,43,53,"[0, 1]",right,1,19,26,f,y,y,2019_Jul_16_1228,2AFC_task,59.9638298216623,
stimuli/rgb_scene000165_render000003.png,stimuli/rgb_scene000165_render000005.png,0,44,44,163,"[0, 1]",right,1,19,26,f,y,y,2019_Jul_16_1228,2AFC_task,59.9638298216623,
stimuli/rgb_scene000196_render000000.png,stimuli/rgb_scene000196_render000002.png,0,45,45,190,"[0, 1]",right,1,19,26,f,y,y,2019_Jul_16_1228,2AFC_task,59.9638298216623,
stimuli/rgb_scene000160_render000003.png,stimuli/rgb_scene000160_render000006.png,0,46,46,143,"[0, 1]",right,1,19,26,f,y,y,2019_Jul_16_1228,2AFC_task,59.9638298216623,
stimuli/rgb_scene000066_render000005.png,stimuli/rgb_scene000066_render000006.png,0,47,47,83,"[1, 0]",left,1,19,26,f,y,y,2019_Jul_16_1228,2AFC_task,59.9638298216623,
stimuli/rgb_scene000160_render000000.png,stimuli/rgb_scene000160_render000002.png,0,48,48,127,"[1, 0]",left,1,19,26,f,y,y,2019_Jul_16_1228,2AFC_task,59.9638298216623,
stimuli/rgb_scene000165_render000000.png,stimuli/rgb_scene000165_render000001.png,0,49,49,147,"[0, 1]",right,1,19,26,f,y,y,2019_Jul_16_1228,2AFC_task,59.9638298216623,
stimuli/rgb_scene000042_render000000.png,stimuli/rgb_scene000042_render000005.png,0,50,50,4,"[1, 0]",left,1,19,26,f,y,y,2019_Jul_16_1228,2AFC_task,59.9638298216623,
stimuli/rgb_scene000165_render000004.png,stimuli/rgb_scene000165_render000006.png,0,51,51,166,"[0, 1]",right,1,19,26,f,y,y,2019_Jul_16_1228,2AFC_task,59.9638298216623,
stimuli/rgb_scene000066_render000000.png,stimuli/rgb_scene000066_render000005.png,0,52,52,67,"[0, 1]",right,1,19,26,f,y,y,2019_Jul_16_1228,2AFC_task,59.9638298216623,
stimuli/rgb_scene000165_render000001.png,stimuli/rgb_scene000165_render000003.png,0,53,53,154,"[0, 1]",right,1,19,26,f,y,y,2019_Jul_16_1228,2AFC_task,59.9638298216623,
stimuli/rgb_scene000150_render000003.png,stimuli/rgb_scene000150_render000004.png,0,54,54,120,"[1, 0]",left,1,19,26,f,y,y,2019_Jul_16_1228,2AFC_task,59.9638298216623,
stimuli/rgb_scene000147_render000002.png,stimuli/rgb_scene000147_render000004.png,0,55,55,96,"[1, 0]",left,1,19,26,f,y,y,2019_Jul_16_1228,2AFC_task,59.9638298216623,
stimuli/rgb_scene000150_render000001.png,stimuli/rgb_scene000150_render000005.png,0,56,56,114,"[0, 1]",right,1,19,26,f,y,y,2019_Jul_16_1228,2AFC_task,59.9638298216623,
stimuli/rgb_scene000042_render000002.png,stimuli/rgb_scene000042_render000003.png,0,57,57,11,"[1, 0]",left,1,19,26,f,y,y,2019_Jul_16_1228,2AFC_task,59.9638298216623,
stimuli/rgb_scene000056_render000001.png,stimuli/rgb_scene000056_render000005.png,0,58,58,51,"[1, 0]",left,1,19,26,f,y,y,2019_Jul_16_1228,2AFC_task,59.9638298216623,
stimuli/rgb_scene000056_render000000.png,stimuli/rgb_scene000056_render000004.png,0,59,59,45,"[1, 0]",left,1,19,26,f,y,y,2019_Jul_16_1228,2AFC_task,59.9638298216623,
stimuli/rgb_scene000165_render000005.png,stimuli/rgb_scene000165_render000006.png,0,60,60,167,"[0, 1]",right,1,19,26,f,y,y,2019_Jul_16_1228,2AFC_task,59.9638298216623,
stimuli/rgb_scene000196_render000001.png,stimuli/rgb_scene000196_render000005.png,0,61,61,198,"[1, 0]",left,1,19,26,f,y,y,2019_Jul_16_1228,2AFC_task,59.9638298216623,
stimuli/rgb_scene000056_render000000.png,stimuli/rgb_scene000056_render000003.png,0,62,62,44,"[0, 1]",right,1,19,26,f,y,y,2019_Jul_16_1228,2AFC_task,59.9638298216623,
stimuli/rgb_scene000196_render000003.png,stimuli/rgb_scene000196_render000005.png,0,63,63,205,"[1, 0]",left,1,19,26,f,y,y,2019_Jul_16_1228,2AFC_task,59.9638298216623,
stimuli/rgb_scene000042_render000004.png,stimuli/rgb_scene000042_render000005.png,0,64,64,18,"[0, 1]",right,1,19,26,f,y,y,2019_Jul_16_1228,2AFC_task,59.9638298216623,
stimuli/rgb_scene000042_render000000.png,stimuli/rgb_scene000042_render000002.png,0,65,65,1,"[0, 1]",right,1,19,26,f,y,y,2019_Jul_16_1228,2AFC_task,59.9638298216623,
stimuli/rgb_scene000160_render000000.png,stimuli/rgb_scene000160_render000005.png,0,66,66,130,"[1, 0]",left,1,19,26,f,y,y,2019_Jul_16_1228,2AFC_task,59.9638298216623,
stimuli/rgb_scene000047_render000003.png,stimuli/rgb_scene000047_render000006.png,0,67,67,38,"[0, 1]",right,1,19,26,f,y,y,2019_Jul_16_1228,2AFC_task,59.9638298216623,
stimuli/rgb_scene000196_render000000.png,stimuli/rgb_scene000196_render000006.png,0,68,68,194,"[1, 0]",left,1,19,26,f,y,y,2019_Jul_16_1228,2AFC_task,59.9638298216623,
stimuli/rgb_scene000147_render000000.png,stimuli/rgb_scene000147_render000005.png,0,69,69,88,"[0, 1]",right,1,19,26,f,y,y,2019_Jul_16_1228,2AFC_task,59.9638298216623,
stimuli/rgb_scene000169_render000002.png,stimuli/rgb_scene000169_render000004.png,0,70,70,180,"[0, 1]",right,1,19,26,f,y,y,2019_Jul_16_1228,2AFC_task,59.9638298216623,
stimuli/rgb_scene000150_render000003.png,stimuli/rgb_scene000150_render000006.png,0,71,71,122,"[0, 1]",right,1,19,26,f,y,y,2019_Jul_16_1228,2AFC_task,59.9638298216623,
stimuli/rgb_scene000196_render000001.png,stimuli/rgb_scene000196_render000004.png,0,72,72,197,"[1, 0]",left,1,19,26,f,y,y,2019_Jul_16_1228,2AFC_task,59.9638298216623,
stimuli/rgb_scene000196_render000002.png,stimuli/rgb_scene000196_render000004.png,0,73,73,201,"[0, 1]",right,1,19,26,f,y,y,2019_Jul_16_1228,2AFC_task,59.9638298216623,
stimuli/rgb_scene000160_render000003.png,stimuli/rgb_scene000160_render000004.png,0,74,74,141,"[1, 0]",left,1,19,26,f,y,y,2019_Jul_16_1228,2AFC_task,59.9638298216623,
stimuli/rgb_scene000066_render000004.png,stimuli/rgb_scene000066_render000006.png,0,75,75,82,"[1, 0]",left,1,19,26,f,y,y,2019_Jul_16_1228,2AFC_task,59.9638298216623,
stimuli/rgb_scene000042_render000002.png,stimuli/rgb_scene000042_render000006.png,0,76,76,14,"[0, 1]",right,1,19,26,f,y,y,2019_Jul_16_1228,2AFC_task,59.9638298216623,
stimuli/rgb_scene000042_render000001.png,stimuli/rgb_scene000042_render000004.png,0,77,77,8,"[0, 1]",right,1,19,26,f,y,y,2019_Jul_16_1228,2AFC_task,59.9638298216623,
stimuli/rgb_scene000160_render000004.png,stimuli/rgb_scene000160_render000005.png,0,78,78,144,"[1, 0]",left,1,19,26,f,y,y,2019_Jul_16_1228,2AFC_task,59.9638298216623,
stimuli/rgb_scene000150_render000002.png,stimuli/rgb_scene000150_render000004.png,0,79,79,117,"[1, 0]",left,1,19,26,f,y,y,2019_Jul_16_1228,2AFC_task,59.9638298216623,
stimuli/rgb_scene000150_render000002.png,stimuli/rgb_scene000150_render000003.png,0,80,80,116,"[1, 0]",left,1,19,26,f,y,y,2019_Jul_16_1228,2AFC_task,59.9638298216623,
stimuli/rgb_scene000066_render000000.png,stimuli/rgb_scene000066_render000004.png,0,81,81,66,"[1, 0]",left,1,19,26,f,y,y,2019_Jul_16_1228,2AFC_task,59.9638298216623,
stimuli/rgb_scene000147_render000000.png,stimuli/rgb_scene000147_render000004.png,0,82,82,87,"[0, 1]",right,1,19,26,f,y,y,2019_Jul_16_1228,2AFC_task,59.9638298216623,
stimuli/rgb_scene000042_render000001.png,stimuli/rgb_scene000042_render000003.png,0,83,83,7,"[0, 1]",right,1,19,26,f,y,y,2019_Jul_16_1228,2AFC_task,59.9638298216623,
stimuli/rgb_scene000165_render000003.png,stimuli/rgb_scene000165_render000006.png,0,84,84,164,"[1, 0]",left,1,19,26,f,y,y,2019_Jul_16_1228,2AFC_task,59.9638298216623,
stimuli/rgb_scene000056_render000005.png,stimuli/rgb_scene000056_render000006.png,0,85,85,62,"[0, 1]",right,1,19,26,f,y,y,2019_Jul_16_1228,2AFC_task,59.9638298216623,
stimuli/rgb_scene000042_render000000.png,stimuli/rgb_scene000042_render000001.png,0,86,86,0,"[1, 0]",left,1,19,26,f,y,y,2019_Jul_16_1228,2AFC_task,59.9638298216623,
stimuli/rgb_scene000169_render000001.png,stimuli/rgb_scene000169_render000005.png,0,87,87,177,"[1, 0]",left,1,19,26,f,y,y,2019_Jul_16_1228,2AFC_task,59.9638298216623,
stimuli/rgb_scene000160_render000001.png,stimuli/rgb_scene000160_render000006.png,0,88,88,136,"[1, 0]",left,1,19,26,f,y,y,2019_Jul_16_1228,2AFC_task,59.9638298216623,
stimuli/rgb_scene000150_render000002.png,stimuli/rgb_scene000150_render000005.png,0,89,89,118,"[0, 1]",left,0,19,26,f,y,y,2019_Jul_16_1228,2AFC_task,59.9638298216623,
stimuli/rgb_scene000056_render000004.png,stimuli/rgb_scene000056_render000005.png,0,90,90,60,"[0, 1]",right,1,19,26,f,y,y,2019_Jul_16_1228,2AFC_task,59.9638298216623,
stimuli/rgb_scene000066_render000001.png,stimuli/rgb_scene000066_render000004.png,0,91,91,71,"[0, 1]",right,1,19,26,f,y,y,2019_Jul_16_1228,2AFC_task,59.9638298216623,
stimuli/rgb_scene000169_render000002.png,stimuli/rgb_scene000169_render000005.png,0,92,92,181,"[1, 0]",left,1,19,26,f,y,y,2019_Jul_16_1228,2AFC_task,59.9638298216623,
stimuli/rgb_scene000047_render000002.png,stimuli/rgb_scene000047_render000005.png,0,93,93,34,"[0, 1]",right,1,19,26,f,y,y,2019_Jul_16_1228,2AFC_task,59.9638298216623,
stimuli/rgb_scene000042_render000003.png,stimuli/rgb_scene000042_render000005.png,0,94,94,16,"[1, 0]",left,1,19,26,f,y,y,2019_Jul_16_1228,2AFC_task,59.9638298216623,
stimuli/rgb_scene000196_render000001.png,stimuli/rgb_scene000196_render000002.png,0,95,95,195,"[0, 1]",right,1,19,26,f,y,y,2019_Jul_16_1228,2AFC_task,59.9638298216623,
stimuli/rgb_scene000169_render000003.png,stimuli/rgb_scene000169_render000006.png,0,96,96,185,"[1, 0]",left,1,19,26,f,y,y,2019_Jul_16_1228,2AFC_task,59.9638298216623,
stimuli/rgb_scene000169_render000001.png,stimuli/rgb_scene000169_render000006.png,0,97,97,178,"[1, 0]",left,1,19,26,f,y,y,2019_Jul_16_1228,2AFC_task,59.9638298216623,
stimuli/rgb_scene000047_render000004.png,stimuli/rgb_scene000047_render000005.png,0,98,98,39,"[1, 0]",left,1,19,26,f,y,y,2019_Jul_16_1228,2AFC_task,59.9638298216623,
stimuli/rgb_scene000147_render000005.png,stimuli/rgb_scene000147_render000006.png,0,99,99,104,"[1, 0]",left,1,19,26,f,y,y,2019_Jul_16_1228,2AFC_task,59.9638298216623,
stimuli/rgb_scene000169_render000000.png,stimuli/rgb_scene000169_render000001.png,0,100,100,168,"[1, 0]",left,1,19,26,f,y,y,2019_Jul_16_1228,2AFC_task,59.9638298216623,
stimuli/rgb_scene000165_render000000.png,stimuli/rgb_scene000165_render000002.png,0,101,101,148,"[1, 0]",left,1,19,26,f,y,y,2019_Jul_16_1228,2AFC_task,59.9638298216623,
stimuli/rgb_scene000165_render000000.png,stimuli/rgb_scene000165_render000005.png,0,102,102,151,"[0, 1]",right,1,19,26,f,y,y,2019_Jul_16_1228,2AFC_task,59.9638298216623,
stimuli/rgb_scene000165_render000003.png,stimuli/rgb_scene000165_render000004.png,0,103,103,162,"[0, 1]",left,0,19,26,f,y,y,2019_Jul_16_1228,2AFC_task,59.9638298216623,
stimuli/rgb_scene000196_render000000.png,stimuli/rgb_scene000196_render000001.png,0,104,104,189,"[0, 1]",right,1,19,26,f,y,y,2019_Jul_16_1228,2AFC_task,59.9638298216623,
stimuli/rgb_scene000047_render000001.png,stimuli/rgb_scene000047_render000002.png,0,105,105,27,"[1, 0]",left,1,19,26,f,y,y,2019_Jul_16_1228,2AFC_task,59.9638298216623,
stimuli/rgb_scene000056_render000000.png,stimuli/rgb_scene000056_render000006.png,0,106,106,47,"[1, 0]",left,1,19,26,f,y,y,2019_Jul_16_1228,2AFC_task,59.9638298216623,
stimuli/rgb_scene000147_render000002.png,stimuli/rgb_scene000147_render000003.png,0,107,107,95,"[1, 0]",left,1,19,26,f,y,y,2019_Jul_16_1228,2AFC_task,59.9638298216623,
stimuli/rgb_scene000196_render000000.png,stimuli/rgb_scene000196_render000005.png,0,108,108,193,"[0, 1]",right,1,19,26,f,y,y,2019_Jul_16_1228,2AFC_task,59.9638298216623,
stimuli/rgb_scene000147_render000001.png,stimuli/rgb_scene000147_render000004.png,0,109,109,92,"[1, 0]",left,1,19,26,f,y,y,2019_Jul_16_1228,2AFC_task,59.9638298216623,
stimuli/rgb_scene000150_render000001.png,stimuli/rgb_scene000150_render000004.png,0,110,110,113,"[0, 1]",right,1,19,26,f,y,y,2019_Jul_16_1228,2AFC_task,59.9638298216623,
stimuli/rgb_scene000165_render000001.png,stimuli/rgb_scene000165_render000006.png,0,111,111,157,"[0, 1]",right,1,19,26,f,y,y,2019_Jul_16_1228,2AFC_task,59.9638298216623,
stimuli/rgb_scene000169_render000000.png,stimuli/rgb_scene000169_render000004.png,0,112,112,171,"[1, 0]",left,1,19,26,f,y,y,2019_Jul_16_1228,2AFC_task,59.9638298216623,
stimuli/rgb_scene000066_render000000.png,stimuli/rgb_scene000066_render000002.png,0,113,113,64,"[1, 0]",left,1,19,26,f,y,y,2019_Jul_16_1228,2AFC_task,59.9638298216623,
stimuli/rgb_scene000147_render000003.png,stimuli/rgb_scene000147_render000006.png,0,114,114,101,"[0, 1]",right,1,19,26,f,y,y,2019_Jul_16_1228,2AFC_task,59.9638298216623,
stimuli/rgb_scene000196_render000005.png,stimuli/rgb_scene000196_render000006.png,0,115,115,209,"[0, 1]",right,1,19,26,f,y,y,2019_Jul_16_1228,2AFC_task,59.9638298216623,
stimuli/rgb_scene000066_render000001.png,stimuli/rgb_scene000066_render000003.png,0,116,116,70,"[1, 0]",left,1,19,26,f,y,y,2019_Jul_16_1228,2AFC_task,59.9638298216623,
stimuli/rgb_scene000165_render000002.png,stimuli/rgb_scene000165_render000004.png,0,117,117,159,"[1, 0]",left,1,19,26,f,y,y,2019_Jul_16_1228,2AFC_task,59.9638298216623,
stimuli/rgb_scene000056_render000002.png,stimuli/rgb_scene000056_render000006.png,0,118,118,56,"[0, 1]",right,1,19,26,f,y,y,2019_Jul_16_1228,2AFC_task,59.9638298216623,
stimuli/rgb_scene000169_render000002.png,stimuli/rgb_scene000169_render000006.png,0,119,119,182,"[1, 0]",left,1,19,26,f,y,y,2019_Jul_16_1228,2AFC_task,59.9638298216623,
stimuli/rgb_scene000147_render000003.png,stimuli/rgb_scene000147_render000005.png,0,120,120,100,"[0, 1]",right,1,19,26,f,y,y,2019_Jul_16_1228,2AFC_task,59.9638298216623,
stimuli/rgb_scene000147_render000002.png,stimuli/rgb_scene000147_render000005.png,0,121,121,97,"[0, 1]",right,1,19,26,f,y,y,2019_Jul_16_1228,2AFC_task,59.9638298216623,
stimuli/rgb_scene000147_render000003.png,stimuli/rgb_scene000147_render000004.png,0,122,122,99,"[0, 1]",right,1,19,26,f,y,y,2019_Jul_16_1228,2AFC_task,59.9638298216623,
stimuli/rgb_scene000150_render000000.png,stimuli/rgb_scene000150_render000003.png,0,123,123,107,"[0, 1]",right,1,19,26,f,y,y,2019_Jul_16_1228,2AFC_task,59.9638298216623,
stimuli/rgb_scene000169_render000001.png,stimuli/rgb_scene000169_render000004.png,0,124,124,176,"[1, 0]",left,1,19,26,f,y,y,2019_Jul_16_1228,2AFC_task,59.9638298216623,
stimuli/rgb_scene000066_render000000.png,stimuli/rgb_scene000066_render000001.png,0,125,125,63,"[1, 0]",left,1,19,26,f,y,y,2019_Jul_16_1228,2AFC_task,59.9638298216623,
stimuli/rgb_scene000196_render000001.png,stimuli/rgb_scene000196_render000003.png,0,126,126,196,"[0, 1]",right,1,19,26,f,y,y,2019_Jul_16_1228,2AFC_task,59.9638298216623,
stimuli/rgb_scene000165_render000000.png,stimuli/rgb_scene000165_render000003.png,0,127,127,149,"[0, 1]",right,1,19,26,f,y,y,2019_Jul_16_1228,2AFC_task,59.9638298216623,
stimuli/rgb_scene000047_render000000.png,stimuli/rgb_scene000047_render000004.png,0,128,128,24,"[0, 1]",right,1,19,26,f,y,y,2019_Jul_16_1228,2AFC_task,59.9638298216623,
stimuli/rgb_scene000047_render000002.png,stimuli/rgb_scene000047_render000004.png,0,129,129,33,"[1, 0]",left,1,19,26,f,y,y,2019_Jul_16_1228,2AFC_task,59.9638298216623,
stimuli/rgb_scene000196_render000000.png,stimuli/rgb_scene000196_render000003.png,0,130,130,191,"[0, 1]",right,1,19,26,f,y,y,2019_Jul_16_1228,2AFC_task,59.9638298216623,
stimuli/rgb_scene000066_render000004.png,stimuli/rgb_scene000066_render000005.png,0,131,131,81,"[0, 1]",right,1,19,26,f,y,y,2019_Jul_16_1228,2AFC_task,59.9638298216623,
stimuli/rgb_scene000056_render000000.png,stimuli/rgb_scene000056_render000001.png,0,132,132,42,"[0, 1]",right,1,19,26,f,y,y,2019_Jul_16_1228,2AFC_task,59.9638298216623,
stimuli/rgb_scene000047_render000002.png,stimuli/rgb_scene000047_render000006.png,0,133,133,35,"[1, 0]",left,1,19,26,f,y,y,2019_Jul_16_1228,2AFC_task,59.9638298216623,
stimuli/rgb_scene000066_render000002.png,stimuli/rgb_scene000066_render000004.png,0,134,134,75,"[1, 0]",left,1,19,26,f,y,y,2019_Jul_16_1228,2AFC_task,59.9638298216623,
stimuli/rgb_scene000047_render000001.png,stimuli/rgb_scene000047_render000006.png,0,135,135,31,"[1, 0]",left,1,19,26,f,y,y,2019_Jul_16_1228,2AFC_task,59.9638298216623,
stimuli/rgb_scene000169_render000001.png,stimuli/rgb_scene000169_render000003.png,0,136,136,175,"[0, 1]",right,1,19,26,f,y,y,2019_Jul_16_1228,2AFC_task,59.9638298216623,
stimuli/rgb_scene000066_render000003.png,stimuli/rgb_scene000066_render000004.png,0,137,137,78,"[1, 0]",left,1,19,26,f,y,y,2019_Jul_16_1228,2AFC_task,59.9638298216623,
stimuli/rgb_scene000160_render000001.png,stimuli/rgb_scene000160_render000004.png,0,138,138,134,"[0, 1]",right,1,19,26,f,y,y,2019_Jul_16_1228,2AFC_task,59.9638298216623,
stimuli/rgb_scene000196_render000002.png,stimuli/rgb_scene000196_render000005.png,0,139,139,202,"[1, 0]",left,1,19,26,f,y,y,2019_Jul_16_1228,2AFC_task,59.9638298216623,
stimuli/rgb_scene000056_render000003.png,stimuli/rgb_scene000056_render000004.png,0,140,140,57,"[1, 0]",left,1,19,26,f,y,y,2019_Jul_16_1228,2AFC_task,59.9638298216623,
stimuli/rgb_scene000042_render000004.png,stimuli/rgb_scene000042_render000006.png,0,141,141,19,"[1, 0]",left,1,19,26,f,y,y,2019_Jul_16_1228,2AFC_task,59.9638298216623,
stimuli/rgb_scene000196_render000004.png,stimuli/rgb_scene000196_render000006.png,0,142,142,208,"[1, 0]",right,0,19,26,f,y,y,2019_Jul_16_1228,2AFC_task,59.9638298216623,
stimuli/rgb_scene000047_render000000.png,stimuli/rgb_scene000047_render000001.png,0,143,143,21,"[1, 0]",left,1,19,26,f,y,y,2019_Jul_16_1228,2AFC_task,59.9638298216623,
stimuli/rgb_scene000169_render000004.png,stimuli/rgb_scene000169_render000006.png,0,144,144,187,"[1, 0]",left,1,19,26,f,y,y,2019_Jul_16_1228,2AFC_task,59.9638298216623,
stimuli/rgb_scene000056_render000004.png,stimuli/rgb_scene000056_render000006.png,0,145,145,61,"[0, 1]",right,1,19,26,f,y,y,2019_Jul_16_1228,2AFC_task,59.9638298216623,
stimuli/rgb_scene000150_render000001.png,stimuli/rgb_scene000150_render000003.png,0,146,146,112,"[0, 1]",right,1,19,26,f,y,y,2019_Jul_16_1228,2AFC_task,59.9638298216623,
stimuli/rgb_scene000056_render000001.png,stimuli/rgb_scene000056_render000004.png,0,147,147,50,"[1, 0]",left,1,19,26,f,y,y,2019_Jul_16_1228,2AFC_task,59.9638298216623,
stimuli/rgb_scene000047_render000000.png,stimuli/rgb_scene000047_render000002.png,0,148,148,22,"[1, 0]",left,1,19,26,f,y,y,2019_Jul_16_1228,2AFC_task,59.9638298216623,
stimuli/rgb_scene000066_render000000.png,stimuli/rgb_scene000066_render000006.png,0,149,149,68,"[0, 1]",right,1,19,26,f,y,y,2019_Jul_16_1228,2AFC_task,59.9638298216623,
stimuli/rgb_scene000056_render000000.png,stimuli/rgb_scene000056_render000002.png,0,150,150,43,"[1, 0]",left,1,19,26,f,y,y,2019_Jul_16_1228,2AFC_task,59.9638298216623,
stimuli/rgb_scene000169_render000003.png,stimuli/rgb_scene000169_render000004.png,0,151,151,183,"[0, 1]",right,1,19,26,f,y,y,2019_Jul_16_1228,2AFC_task,59.9638298216623,
stimuli/rgb_scene000165_render000004.png,stimuli/rgb_scene000165_render000005.png,0,152,152,165,"[1, 0]",left,1,19,26,f,y,y,2019_Jul_16_1228,2AFC_task,59.9638298216623,
stimuli/rgb_scene000165_render000002.png,stimuli/rgb_scene000165_render000006.png,0,153,153,161,"[0, 1]",right,1,19,26,f,y,y,2019_Jul_16_1228,2AFC_task,59.9638298216623,
stimuli/rgb_scene000150_render000000.png,stimuli/rgb_scene000150_render000004.png,0,154,154,108,"[0, 1]",right,1,19,26,f,y,y,2019_Jul_16_1228,2AFC_task,59.9638298216623,
stimuli/rgb_scene000042_render000005.png,stimuli/rgb_scene000042_render000006.png,0,155,155,20,"[0, 1]",right,1,19,26,f,y,y,2019_Jul_16_1228,2AFC_task,59.9638298216623,
stimuli/rgb_scene000147_render000000.png,stimuli/rgb_scene000147_render000001.png,0,156,156,84,"[1, 0]",left,1,19,26,f,y,y,2019_Jul_16_1228,2AFC_task,59.9638298216623,
stimuli/rgb_scene000047_render000002.png,stimuli/rgb_scene000047_render000003.png,0,157,157,32,"[1, 0]",left,1,19,26,f,y,y,2019_Jul_16_1228,2AFC_task,59.9638298216623,
stimuli/rgb_scene000056_render000001.png,stimuli/rgb_scene000056_render000002.png,0,158,158,48,"[1, 0]",left,1,19,26,f,y,y,2019_Jul_16_1228,2AFC_task,59.9638298216623,
stimuli/rgb_scene000047_render000003.png,stimuli/rgb_scene000047_render000005.png,0,159,159,37,"[1, 0]",left,1,19,26,f,y,y,2019_Jul_16_1228,2AFC_task,59.9638298216623,
stimuli/rgb_scene000047_render000000.png,stimuli/rgb_scene000047_render000003.png,0,160,160,23,"[1, 0]",left,1,19,26,f,y,y,2019_Jul_16_1228,2AFC_task,59.9638298216623,
stimuli/rgb_scene000066_render000000.png,stimuli/rgb_scene000066_render000003.png,0,161,161,65,"[1, 0]",left,1,19,26,f,y,y,2019_Jul_16_1228,2AFC_task,59.9638298216623,
stimuli/rgb_scene000160_render000002.png,stimuli/rgb_scene000160_render000005.png,0,162,162,139,"[1, 0]",left,1,19,26,f,y,y,2019_Jul_16_1228,2AFC_task,59.9638298216623,
stimuli/rgb_scene000150_render000004.png,stimuli/rgb_scene000150_render000006.png,0,163,163,124,"[1, 0]",left,1,19,26,f,y,y,2019_Jul_16_1228,2AFC_task,59.9638298216623,
stimuli/rgb_scene000047_render000000.png,stimuli/rgb_scene000047_render000005.png,0,164,164,25,"[0, 1]",right,1,19,26,f,y,y,2019_Jul_16_1228,2AFC_task,59.9638298216623,
stimuli/rgb_scene000042_render000001.png,stimuli/rgb_scene000042_render000002.png,0,165,165,6,"[1, 0]",left,1,19,26,f,y,y,2019_Jul_16_1228,2AFC_task,59.9638298216623,
stimuli/rgb_scene000169_render000001.png,stimuli/rgb_scene000169_render000002.png,0,166,166,174,"[0, 1]",right,1,19,26,f,y,y,2019_Jul_16_1228,2AFC_task,59.9638298216623,
stimuli/rgb_scene000169_render000004.png,stimuli/rgb_scene000169_render000005.png,0,167,167,186,"[0, 1]",right,1,19,26,f,y,y,2019_Jul_16_1228,2AFC_task,59.9638298216623,
stimuli/rgb_scene000042_render000002.png,stimuli/rgb_scene000042_render000005.png,0,168,168,13,"[1, 0]",left,1,19,26,f,y,y,2019_Jul_16_1228,2AFC_task,59.9638298216623,
stimuli/rgb_scene000150_render000004.png,stimuli/rgb_scene000150_render000005.png,0,169,169,123,"[0, 1]",right,1,19,26,f,y,y,2019_Jul_16_1228,2AFC_task,59.9638298216623,
stimuli/rgb_scene000047_render000004.png,stimuli/rgb_scene000047_render000006.png,0,170,170,40,"[0, 1]",right,1,19,26,f,y,y,2019_Jul_16_1228,2AFC_task,59.9638298216623,
stimuli/rgb_scene000056_render000003.png,stimuli/rgb_scene000056_render000005.png,0,171,171,58,"[1, 0]",left,1,19,26,f,y,y,2019_Jul_16_1228,2AFC_task,59.9638298216623,
stimuli/rgb_scene000066_render000002.png,stimuli/rgb_scene000066_render000006.png,0,172,172,77,"[1, 0]",left,1,19,26,f,y,y,2019_Jul_16_1228,2AFC_task,59.9638298216623,
stimuli/rgb_scene000165_render000002.png,stimuli/rgb_scene000165_render000003.png,0,173,173,158,"[1, 0]",left,1,19,26,f,y,y,2019_Jul_16_1228,2AFC_task,59.9638298216623,
stimuli/rgb_scene000165_render000001.png,stimuli/rgb_scene000165_render000005.png,0,174,174,156,"[0, 1]",right,1,19,26,f,y,y,2019_Jul_16_1228,2AFC_task,59.9638298216623,
stimuli/rgb_scene000066_render000002.png,stimuli/rgb_scene000066_render000005.png,0,175,175,76,"[0, 1]",right,1,19,26,f,y,y,2019_Jul_16_1228,2AFC_task,59.9638298216623,
stimuli/rgb_scene000047_render000001.png,stimuli/rgb_scene000047_render000005.png,0,176,176,30,"[0, 1]",right,1,19,26,f,y,y,2019_Jul_16_1228,2AFC_task,59.9638298216623,
stimuli/rgb_scene000165_render000000.png,stimuli/rgb_scene000165_render000006.png,0,177,177,152,"[1, 0]",left,1,19,26,f,y,y,2019_Jul_16_1228,2AFC_task,59.9638298216623,
stimuli/rgb_scene000196_render000000.png,stimuli/rgb_scene000196_render000004.png,0,178,178,192,"[0, 1]",right,1,19,26,f,y,y,2019_Jul_16_1228,2AFC_task,59.9638298216623,
stimuli/rgb_scene000196_render000001.png,stimuli/rgb_scene000196_render000006.png,0,179,179,199,"[0, 1]",right,1,19,26,f,y,y,2019_Jul_16_1228,2AFC_task,59.9638298216623,
stimuli/rgb_scene000150_render000005.png,stimuli/rgb_scene000150_render000006.png,0,180,180,125,"[1, 0]",left,1,19,26,f,y,y,2019_Jul_16_1228,2AFC_task,59.9638298216623,
stimuli/rgb_scene000196_render000003.png,stimuli/rgb_scene000196_render000006.png,0,181,181,206,"[0, 1]",right,1,19,26,f,y,y,2019_Jul_16_1228,2AFC_task,59.9638298216623,
stimuli/rgb_scene000160_render000001.png,stimuli/rgb_scene000160_render000003.png,0,182,182,133,"[1, 0]",left,1,19,26,f,y,y,2019_Jul_16_1228,2AFC_task,59.9638298216623,
stimuli/rgb_scene000150_render000002.png,stimuli/rgb_scene000150_render000006.png,0,183,183,119,"[0, 1]",right,1,19,26,f,y,y,2019_Jul_16_1228,2AFC_task,59.9638298216623,
stimuli/rgb_scene000150_render000001.png,stimuli/rgb_scene000150_render000002.png,0,184,184,111,"[0, 1]",right,1,19,26,f,y,y,2019_Jul_16_1228,2AFC_task,59.9638298216623,
stimuli/rgb_scene000147_render000001.png,stimuli/rgb_scene000147_render000006.png,0,185,185,94,"[1, 0]",left,1,19,26,f,y,y,2019_Jul_16_1228,2AFC_task,59.9638298216623,
stimuli/rgb_scene000160_render000005.png,stimuli/rgb_scene000160_render000006.png,0,186,186,146,"[1, 0]",left,1,19,26,f,y,y,2019_Jul_16_1228,2AFC_task,59.9638298216623,
stimuli/rgb_scene000147_render000002.png,stimuli/rgb_scene000147_render000006.png,0,187,187,98,"[0, 1]",right,1,19,26,f,y,y,2019_Jul_16_1228,2AFC_task,59.9638298216623,
stimuli/rgb_scene000196_render000003.png,stimuli/rgb_scene000196_render000004.png,0,188,188,204,"[1, 0]",left,1,19,26,f,y,y,2019_Jul_16_1228,2AFC_task,59.9638298216623,
stimuli/rgb_scene000169_render000000.png,stimuli/rgb_scene000169_render000005.png,0,189,189,172,"[0, 1]",right,1,19,26,f,y,y,2019_Jul_16_1228,2AFC_task,59.9638298216623,
stimuli/rgb_scene000042_render000003.png,stimuli/rgb_scene000042_render000006.png,0,190,190,17,"[0, 1]",right,1,19,26,f,y,y,2019_Jul_16_1228,2AFC_task,59.9638298216623,
stimuli/rgb_scene000165_render000002.png,stimuli/rgb_scene000165_render000005.png,0,191,191,160,"[0, 1]",right,1,19,26,f,y,y,2019_Jul_16_1228,2AFC_task,59.9638298216623,
stimuli/rgb_scene000042_render000000.png,stimuli/rgb_scene000042_render000003.png,0,192,192,2,"[0, 1]",right,1,19,26,f,y,y,2019_Jul_16_1228,2AFC_task,59.9638298216623,
stimuli/rgb_scene000150_render000003.png,stimuli/rgb_scene000150_render000005.png,0,193,193,121,"[1, 0]",left,1,19,26,f,y,y,2019_Jul_16_1228,2AFC_task,59.9638298216623,
stimuli/rgb_scene000056_render000000.png,stimuli/rgb_scene000056_render000005.png,0,194,194,46,"[1, 0]",left,1,19,26,f,y,y,2019_Jul_16_1228,2AFC_task,59.9638298216623,
stimuli/rgb_scene000150_render000000.png,stimuli/rgb_scene000150_render000002.png,0,195,195,106,"[0, 1]",right,1,19,26,f,y,y,2019_Jul_16_1228,2AFC_task,59.9638298216623,
stimuli/rgb_scene000196_render000004.png,stimuli/rgb_scene000196_render000005.png,0,196,196,207,"[1, 0]",left,1,19,26,f,y,y,2019_Jul_16_1228,2AFC_task,59.9638298216623,
stimuli/rgb_scene000066_render000001.png,stimuli/rgb_scene000066_render000002.png,0,197,197,69,"[1, 0]",left,1,19,26,f,y,y,2019_Jul_16_1228,2AFC_task,59.9638298216623,
stimuli/rgb_scene000047_render000001.png,stimuli/rgb_scene000047_render000004.png,0,198,198,29,"[0, 1]",right,1,19,26,f,y,y,2019_Jul_16_1228,2AFC_task,59.9638298216623,
stimuli/rgb_scene000066_render000003.png,stimuli/rgb_scene000066_render000005.png,0,199,199,79,"[0, 1]",right,1,19,26,f,y,y,2019_Jul_16_1228,2AFC_task,59.9638298216623,
stimuli/rgb_scene000160_render000002.png,stimuli/rgb_scene000160_render000006.png,0,200,200,140,"[0, 1]",right,1,19,26,f,y,y,2019_Jul_16_1228,2AFC_task,59.9638298216623,
stimuli/rgb_scene000160_render000001.png,stimuli/rgb_scene000160_render000005.png,0,201,201,135,"[1, 0]",left,1,19,26,f,y,y,2019_Jul_16_1228,2AFC_task,59.9638298216623,
stimuli/rgb_scene000042_render000001.png,stimuli/rgb_scene000042_render000006.png,0,202,202,10,"[0, 1]",right,1,19,26,f,y,y,2019_Jul_16_1228,2AFC_task,59.9638298216623,
stimuli/rgb_scene000147_render000000.png,stimuli/rgb_scene000147_render000002.png,0,203,203,85,"[0, 1]",right,1,19,26,f,y,y,2019_Jul_16_1228,2AFC_task,59.9638298216623,
stimuli/rgb_scene000150_render000000.png,stimuli/rgb_scene000150_render000006.png,0,204,204,110,"[1, 0]",left,1,19,26,f,y,y,2019_Jul_16_1228,2AFC_task,59.9638298216623,
stimuli/rgb_scene000056_render000003.png,stimuli/rgb_scene000056_render000006.png,0,205,205,59,"[1, 0]",left,1,19,26,f,y,y,2019_Jul_16_1228,2AFC_task,59.9638298216623,
stimuli/rgb_scene000056_render000001.png,stimuli/rgb_scene000056_render000003.png,0,206,206,49,"[1, 0]",left,1,19,26,f,y,y,2019_Jul_16_1228,2AFC_task,59.9638298216623,
stimuli/rgb_scene000066_render000001.png,stimuli/rgb_scene000066_render000006.png,0,207,207,73,"[1, 0]",left,1,19,26,f,y,y,2019_Jul_16_1228,2AFC_task,59.9638298216623,
stimuli/rgb_scene000147_render000004.png,stimuli/rgb_scene000147_render000006.png,0,208,208,103,"[1, 0]",left,1,19,26,f,y,y,2019_Jul_16_1228,2AFC_task,59.9638298216623,
stimuli/rgb_scene000042_render000000.png,stimuli/rgb_scene000042_render000004.png,0,209,209,3,"[0, 1]",right,1,19,26,f,y,y,2019_Jul_16_1228,2AFC_task,59.9638298216623,
stimuli/rgb_scene000056_render000000.png,stimuli/rgb_scene000056_render000004.png,1,0,210,45,"[1, 0]",left,1,19,26,f,y,y,2019_Jul_16_1228,2AFC_task,59.9638298216623,
stimuli/rgb_scene000066_render000000.png,stimuli/rgb_scene000066_render000001.png,1,1,211,63,"[1, 0]",left,1,19,26,f,y,y,2019_Jul_16_1228,2AFC_task,59.9638298216623,
stimuli/rgb_scene000160_render000004.png,stimuli/rgb_scene000160_render000005.png,1,2,212,144,"[1, 0]",left,1,19,26,f,y,y,2019_Jul_16_1228,2AFC_task,59.9638298216623,
stimuli/rgb_scene000150_render000000.png,stimuli/rgb_scene000150_render000003.png,1,3,213,107,"[0, 1]",right,1,19,26,f,y,y,2019_Jul_16_1228,2AFC_task,59.9638298216623,
stimuli/rgb_scene000147_render000000.png,stimuli/rgb_scene000147_render000005.png,1,4,214,88,"[0, 1]",right,1,19,26,f,y,y,2019_Jul_16_1228,2AFC_task,59.9638298216623,
stimuli/rgb_scene000056_render000001.png,stimuli/rgb_scene000056_render000002.png,1,5,215,48,"[1, 0]",left,1,19,26,f,y,y,2019_Jul_16_1228,2AFC_task,59.9638298216623,
stimuli/rgb_scene000196_render000001.png,stimuli/rgb_scene000196_render000004.png,1,6,216,197,"[0, 1]",right,1,19,26,f,y,y,2019_Jul_16_1228,2AFC_task,59.9638298216623,
stimuli/rgb_scene000160_render000000.png,stimuli/rgb_scene000160_render000003.png,1,7,217,128,"[1, 0]",left,1,19,26,f,y,y,2019_Jul_16_1228,2AFC_task,59.9638298216623,
stimuli/rgb_scene000147_render000002.png,stimuli/rgb_scene000147_render000006.png,1,8,218,98,"[1, 0]",left,1,19,26,f,y,y,2019_Jul_16_1228,2AFC_task,59.9638298216623,
stimuli/rgb_scene000147_render000005.png,stimuli/rgb_scene000147_render000006.png,1,9,219,104,"[1, 0]",left,1,19,26,f,y,y,2019_Jul_16_1228,2AFC_task,59.9638298216623,
stimuli/rgb_scene000056_render000000.png,stimuli/rgb_scene000056_render000001.png,1,10,220,42,"[0, 1]",right,1,19,26,f,y,y,2019_Jul_16_1228,2AFC_task,59.9638298216623,
stimuli/rgb_scene000047_render000002.png,stimuli/rgb_scene000047_render000005.png,1,11,221,34,"[1, 0]",left,1,19,26,f,y,y,2019_Jul_16_1228,2AFC_task,59.9638298216623,
stimuli/rgb_scene000160_render000002.png,stimuli/rgb_scene000160_render000006.png,1,12,222,140,"[0, 1]",right,1,19,26,f,y,y,2019_Jul_16_1228,2AFC_task,59.9638298216623,
stimuli/rgb_scene000147_render000004.png,stimuli/rgb_scene000147_render000006.png,1,13,223,103,"[1, 0]",left,1,19,26,f,y,y,2019_Jul_16_1228,2AFC_task,59.9638298216623,
stimuli/rgb_scene000042_render000000.png,stimuli/rgb_scene000042_render000005.png,1,14,224,4,"[0, 1]",right,1,19,26,f,y,y,2019_Jul_16_1228,2AFC_task,59.9638298216623,
stimuli/rgb_scene000042_render000002.png,stimuli/rgb_scene000042_render000005.png,1,15,225,13,"[0, 1]",right,1,19,26,f,y,y,2019_Jul_16_1228,2AFC_task,59.9638298216623,
stimuli/rgb_scene000042_render000005.png,stimuli/rgb_scene000042_render000006.png,1,16,226,20,"[1, 0]",left,1,19,26,f,y,y,2019_Jul_16_1228,2AFC_task,59.9638298216623,
stimuli/rgb_scene000165_render000002.png,stimuli/rgb_scene000165_render000004.png,1,17,227,159,"[1, 0]",left,1,19,26,f,y,y,2019_Jul_16_1228,2AFC_task,59.9638298216623,
stimuli/rgb_scene000147_render000002.png,stimuli/rgb_scene000147_render000005.png,1,18,228,97,"[1, 0]",left,1,19,26,f,y,y,2019_Jul_16_1228,2AFC_task,59.9638298216623,
stimuli/rgb_scene000150_render000003.png,stimuli/rgb_scene000150_render000004.png,1,19,229,120,"[1, 0]",left,1,19,26,f,y,y,2019_Jul_16_1228,2AFC_task,59.9638298216623,
stimuli/rgb_scene000169_render000001.png,stimuli/rgb_scene000169_render000005.png,1,20,230,177,"[1, 0]",left,1,19,26,f,y,y,2019_Jul_16_1228,2AFC_task,59.9638298216623,
stimuli/rgb_scene000150_render000002.png,stimuli/rgb_scene000150_render000005.png,1,21,231,118,"[1, 0]",left,1,19,26,f,y,y,2019_Jul_16_1228,2AFC_task,59.9638298216623,
stimuli/rgb_scene000042_render000000.png,stimuli/rgb_scene000042_render000001.png,1,22,232,0,"[0, 1]",right,1,19,26,f,y,y,2019_Jul_16_1228,2AFC_task,59.9638298216623,
stimuli/rgb_scene000165_render000000.png,stimuli/rgb_scene000165_render000004.png,1,23,233,150,"[0, 1]",right,1,19,26,f,y,y,2019_Jul_16_1228,2AFC_task,59.9638298216623,
stimuli/rgb_scene000150_render000002.png,stimuli/rgb_scene000150_render000004.png,1,24,234,117,"[1, 0]",left,1,19,26,f,y,y,2019_Jul_16_1228,2AFC_task,59.9638298216623,
stimuli/rgb_scene000047_render000005.png,stimuli/rgb_scene000047_render000006.png,1,25,235,41,"[1, 0]",left,1,19,26,f,y,y,2019_Jul_16_1228,2AFC_task,59.9638298216623,
stimuli/rgb_scene000160_render000002.png,stimuli/rgb_scene000160_render000004.png,1,26,236,138,"[1, 0]",left,1,19,26,f,y,y,2019_Jul_16_1228,2AFC_task,59.9638298216623,
stimuli/rgb_scene000169_render000000.png,stimuli/rgb_scene000169_render000001.png,1,27,237,168,"[0, 1]",left,0,19,26,f,y,y,2019_Jul_16_1228,2AFC_task,59.9638298216623,
stimuli/rgb_scene000169_render000001.png,stimuli/rgb_scene000169_render000004.png,1,28,238,176,"[0, 1]",right,1,19,26,f,y,y,2019_Jul_16_1228,2AFC_task,59.9638298216623,
stimuli/rgb_scene000042_render000001.png,stimuli/rgb_scene000042_render000003.png,1,29,239,7,"[1, 0]",left,1,19,26,f,y,y,2019_Jul_16_1228,2AFC_task,59.9638298216623,
stimuli/rgb_scene000160_render000001.png,stimuli/rgb_scene000160_render000005.png,1,30,240,135,"[1, 0]",left,1,19,26,f,y,y,2019_Jul_16_1228,2AFC_task,59.9638298216623,
stimuli/rgb_scene000066_render000000.png,stimuli/rgb_scene000066_render000006.png,1,31,241,68,"[1, 0]",left,1,19,26,f,y,y,2019_Jul_16_1228,2AFC_task,59.9638298216623,
stimuli/rgb_scene000196_render000002.png,stimuli/rgb_scene000196_render000003.png,1,32,242,200,"[1, 0]",right,0,19,26,f,y,y,2019_Jul_16_1228,2AFC_task,59.9638298216623,
stimuli/rgb_scene000056_render000000.png,stimuli/rgb_scene000056_render000005.png,1,33,243,46,"[0, 1]",right,1,19,26,f,y,y,2019_Jul_16_1228,2AFC_task,59.9638298216623,
stimuli/rgb_scene000042_render000001.png,stimuli/rgb_scene000042_render000002.png,1,34,244,6,"[0, 1]",right,1,19,26,f,y,y,2019_Jul_16_1228,2AFC_task,59.9638298216623,
stimuli/rgb_scene000066_render000000.png,stimuli/rgb_scene000066_render000005.png,1,35,245,67,"[0, 1]",right,1,19,26,f,y,y,2019_Jul_16_1228,2AFC_task,59.9638298216623,
stimuli/rgb_scene000042_render000000.png,stimuli/rgb_scene000042_render000003.png,1,36,246,2,"[1, 0]",left,1,19,26,f,y,y,2019_Jul_16_1228,2AFC_task,59.9638298216623,
stimuli/rgb_scene000147_render000003.png,stimuli/rgb_scene000147_render000004.png,1,37,247,99,"[1, 0]",left,1,19,26,f,y,y,2019_Jul_16_1228,2AFC_task,59.9638298216623,
stimuli/rgb_scene000066_render000004.png,stimuli/rgb_scene000066_render000005.png,1,38,248,81,"[0, 1]",right,1,19,26,f,y,y,2019_Jul_16_1228,2AFC_task,59.9638298216623,
stimuli/rgb_scene000169_render000002.png,stimuli/rgb_scene000169_render000003.png,1,39,249,179,"[0, 1]",right,1,19,26,f,y,y,2019_Jul_16_1228,2AFC_task,59.9638298216623,
stimuli/rgb_scene000169_render000004.png,stimuli/rgb_scene000169_render000005.png,1,40,250,186,"[0, 1]",right,1,19,26,f,y,y,2019_Jul_16_1228,2AFC_task,59.9638298216623,
stimuli/rgb_scene000160_render000001.png,stimuli/rgb_scene000160_render000004.png,1,41,251,134,"[1, 0]",left,1,19,26,f,y,y,2019_Jul_16_1228,2AFC_task,59.9638298216623,
stimuli/rgb_scene000169_render000002.png,stimuli/rgb_scene000169_render000004.png,1,42,252,180,"[0, 1]",right,1,19,26,f,y,y,2019_Jul_16_1228,2AFC_task,59.9638298216623,
stimuli/rgb_scene000042_render000000.png,stimuli/rgb_scene000042_render000006.png,1,43,253,5,"[1, 0]",left,1,19,26,f,y,y,2019_Jul_16_1228,2AFC_task,59.9638298216623,
stimuli/rgb_scene000047_render000003.png,stimuli/rgb_scene000047_render000004.png,1,44,254,36,"[1, 0]",right,0,19,26,f,y,y,2019_Jul_16_1228,2AFC_task,59.9638298216623,
stimuli/rgb_scene000047_render000000.png,stimuli/rgb_scene000047_render000002.png,1,45,255,22,"[0, 1]",right,1,19,26,f,y,y,2019_Jul_16_1228,2AFC_task,59.9638298216623,
stimuli/rgb_scene000169_render000002.png,stimuli/rgb_scene000169_render000006.png,1,46,256,182,"[1, 0]",left,1,19,26,f,y,y,2019_Jul_16_1228,2AFC_task,59.9638298216623,
stimuli/rgb_scene000066_render000002.png,stimuli/rgb_scene000066_render000005.png,1,47,257,76,"[1, 0]",left,1,19,26,f,y,y,2019_Jul_16_1228,2AFC_task,59.9638298216623,
stimuli/rgb_scene000160_render000001.png,stimuli/rgb_scene000160_render000003.png,1,48,258,133,"[1, 0]",left,1,19,26,f,y,y,2019_Jul_16_1228,2AFC_task,59.9638298216623,
stimuli/rgb_scene000147_render000001.png,stimuli/rgb_scene000147_render000004.png,1,49,259,92,"[0, 1]",right,1,19,26,f,y,y,2019_Jul_16_1228,2AFC_task,59.9638298216623,
stimuli/rgb_scene000150_render000004.png,stimuli/rgb_scene000150_render000005.png,1,50,260,123,"[1, 0]",left,1,19,26,f,y,y,2019_Jul_16_1228,2AFC_task,59.9638298216623,
stimuli/rgb_scene000147_render000003.png,stimuli/rgb_scene000147_render000006.png,1,51,261,101,"[0, 1]",right,1,19,26,f,y,y,2019_Jul_16_1228,2AFC_task,59.9638298216623,
stimuli/rgb_scene000196_render000002.png,stimuli/rgb_scene000196_render000004.png,1,52,262,201,"[1, 0]",left,1,19,26,f,y,y,2019_Jul_16_1228,2AFC_task,59.9638298216623,
stimuli/rgb_scene000047_render000000.png,stimuli/rgb_scene000047_render000001.png,1,53,263,21,"[0, 1]",right,1,19,26,f,y,y,2019_Jul_16_1228,2AFC_task,59.9638298216623,
stimuli/rgb_scene000150_render000000.png,stimuli/rgb_scene000150_render000004.png,1,54,264,108,"[1, 0]",left,1,19,26,f,y,y,2019_Jul_16_1228,2AFC_task,59.9638298216623,
stimuli/rgb_scene000150_render000005.png,stimuli/rgb_scene000150_render000006.png,1,55,265,125,"[1, 0]",right,0,19,26,f,y,y,2019_Jul_16_1228,2AFC_task,59.9638298216623,
stimuli/rgb_scene000160_render000000.png,stimuli/rgb_scene000160_render000001.png,1,56,266,126,"[0, 1]",right,1,19,26,f,y,y,2019_Jul_16_1228,2AFC_task,59.9638298216623,
stimuli/rgb_scene000056_render000002.png,stimuli/rgb_scene000056_render000005.png,1,57,267,55,"[1, 0]",left,1,19,26,f,y,y,2019_Jul_16_1228,2AFC_task,59.9638298216623,
stimuli/rgb_scene000147_render000000.png,stimuli/rgb_scene000147_render000006.png,1,58,268,89,"[1, 0]",left,1,19,26,f,y,y,2019_Jul_16_1228,2AFC_task,59.9638298216623,
stimuli/rgb_scene000196_render000000.png,stimuli/rgb_scene000196_render000002.png,1,59,269,190,"[0, 1]",right,1,19,26,f,y,y,2019_Jul_16_1228,2AFC_task,59.9638298216623,
stimuli/rgb_scene000066_render000001.png,stimuli/rgb_scene000066_render000006.png,1,60,270,73,"[0, 1]",right,1,19,26,f,y,y,2019_Jul_16_1228,2AFC_task,59.9638298216623,
stimuli/rgb_scene000150_render000002.png,stimuli/rgb_scene000150_render000003.png,1,61,271,116,"[0, 1]",right,1,19,26,f,y,y,2019_Jul_16_1228,2AFC_task,59.9638298216623,
stimuli/rgb_scene000047_render000002.png,stimuli/rgb_scene000047_render000003.png,1,62,272,32,"[0, 1]",right,1,19,26,f,y,y,2019_Jul_16_1228,2AFC_task,59.9638298216623,
stimuli/rgb_scene000150_render000001.png,stimuli/rgb_scene000150_render000002.png,1,63,273,111,"[1, 0]",left,1,19,26,f,y,y,2019_Jul_16_1228,2AFC_task,59.9638298216623,
stimuli/rgb_scene000150_render000000.png,stimuli/rgb_scene000150_render000006.png,1,64,274,110,"[0, 1]",right,1,19,26,f,y,y,2019_Jul_16_1228,2AFC_task,59.9638298216623,
stimuli/rgb_scene000160_render000000.png,stimuli/rgb_scene000160_render000004.png,1,65,275,129,"[1, 0]",left,1,19,26,f,y,y,2019_Jul_16_1228,2AFC_task,59.9638298216623,
stimuli/rgb_scene000042_render000000.png,stimuli/rgb_scene000042_render000002.png,1,66,276,1,"[0, 1]",right,1,19,26,f,y,y,2019_Jul_16_1228,2AFC_task,59.9638298216623,
stimuli/rgb_scene000147_render000001.png,stimuli/rgb_scene000147_render000005.png,1,67,277,93,"[1, 0]",left,1,19,26,f,y,y,2019_Jul_16_1228,2AFC_task,59.9638298216623,
stimuli/rgb_scene000160_render000001.png,stimuli/rgb_scene000160_render000002.png,1,68,278,132,"[0, 1]",right,1,19,26,f,y,y,2019_Jul_16_1228,2AFC_task,59.9638298216623,
stimuli/rgb_scene000196_render000003.png,stimuli/rgb_scene000196_render000004.png,1,69,279,204,"[1, 0]",left,1,19,26,f,y,y,2019_Jul_16_1228,2AFC_task,59.9638298216623,
stimuli/rgb_scene000066_render000001.png,stimuli/rgb_scene000066_render000005.png,1,70,280,72,"[1, 0]",left,1,19,26,f,y,y,2019_Jul_16_1228,2AFC_task,59.9638298216623,
stimuli/rgb_scene000150_render000002.png,stimuli/rgb_scene000150_render000006.png,1,71,281,119,"[1, 0]",left,1,19,26,f,y,y,2019_Jul_16_1228,2AFC_task,59.9638298216623,
stimuli/rgb_scene000042_render000003.png,stimuli/rgb_scene000042_render000004.png,1,72,282,15,"[1, 0]",left,1,19,26,f,y,y,2019_Jul_16_1228,2AFC_task,59.9638298216623,
stimuli/rgb_scene000169_render000000.png,stimuli/rgb_scene000169_render000005.png,1,73,283,172,"[0, 1]",right,1,19,26,f,y,y,2019_Jul_16_1228,2AFC_task,59.9638298216623,
stimuli/rgb_scene000147_render000001.png,stimuli/rgb_scene000147_render000003.png,1,74,284,91,"[1, 0]",left,1,19,26,f,y,y,2019_Jul_16_1228,2AFC_task,59.9638298216623,
stimuli/rgb_scene000056_render000004.png,stimuli/rgb_scene000056_render000005.png,1,75,285,60,"[1, 0]",left,1,19,26,f,y,y,2019_Jul_16_1228,2AFC_task,59.9638298216623,
stimuli/rgb_scene000165_render000002.png,stimuli/rgb_scene000165_render000003.png,1,76,286,158,"[0, 1]",right,1,19,26,f,y,y,2019_Jul_16_1228,2AFC_task,59.9638298216623,
stimuli/rgb_scene000066_render000002.png,stimuli/rgb_scene000066_render000003.png,1,77,287,74,"[0, 1]",right,1,19,26,f,y,y,2019_Jul_16_1228,2AFC_task,59.9638298216623,
stimuli/rgb_scene000165_render000002.png,stimuli/rgb_scene000165_render000006.png,1,78,288,161,"[1, 0]",left,1,19,26,f,y,y,2019_Jul_16_1228,2AFC_task,59.9638298216623,
stimuli/rgb_scene000147_render000004.png,stimuli/rgb_scene000147_render000005.png,1,79,289,102,"[1, 0]",left,1,19,26,f,y,y,2019_Jul_16_1228,2AFC_task,59.9638298216623,
stimuli/rgb_scene000160_render000005.png,stimuli/rgb_scene000160_render000006.png,1,80,290,146,"[0, 1]",right,1,19,26,f,y,y,2019_Jul_16_1228,2AFC_task,59.9638298216623,
stimuli/rgb_scene000196_render000000.png,stimuli/rgb_scene000196_render000004.png,1,81,291,192,"[1, 0]",left,1,19,26,f,y,y,2019_Jul_16_1228,2AFC_task,59.9638298216623,
stimuli/rgb_scene000169_render000000.png,stimuli/rgb_scene000169_render000002.png,1,82,292,169,"[0, 1]",right,1,19,26,f,y,y,2019_Jul_16_1228,2AFC_task,59.9638298216623,
stimuli/rgb_scene000042_render000000.png,stimuli/rgb_scene000042_render000004.png,1,83,293,3,"[0, 1]",right,1,19,26,f,y,y,2019_Jul_16_1228,2AFC_task,59.9638298216623,
stimuli/rgb_scene000160_render000004.png,stimuli/rgb_scene000160_render000006.png,1,84,294,145,"[0, 1]",right,1,19,26,f,y,y,2019_Jul_16_1228,2AFC_task,59.9638298216623,
stimuli/rgb_scene000056_render000005.png,stimuli/rgb_scene000056_render000006.png,1,85,295,62,"[0, 1]",left,0,19,26,f,y,y,2019_Jul_16_1228,2AFC_task,59.9638298216623,
stimuli/rgb_scene000196_render000000.png,stimuli/rgb_scene000196_render000003.png,1,86,296,191,"[0, 1]",right,1,19,26,f,y,y,2019_Jul_16_1228,2AFC_task,59.9638298216623,
stimuli/rgb_scene000056_render000001.png,stimuli/rgb_scene000056_render000003.png,1,87,297,49,"[0, 1]",right,1,19,26,f,y,y,2019_Jul_16_1228,2AFC_task,59.9638298216623,
stimuli/rgb_scene000047_render000002.png,stimuli/rgb_scene000047_render000004.png,1,88,298,33,"[1, 0]",left,1,19,26,f,y,y,2019_Jul_16_1228,2AFC_task,59.9638298216623,
stimuli/rgb_scene000056_render000002.png,stimuli/rgb_scene000056_render000003.png,1,89,299,53,"[0, 1]",right,1,19,26,f,y,y,2019_Jul_16_1228,2AFC_task,59.9638298216623,
stimuli/rgb_scene000047_render000000.png,stimuli/rgb_scene000047_render000006.png,1,90,300,26,"[1, 0]",left,1,19,26,f,y,y,2019_Jul_16_1228,2AFC_task,59.9638298216623,
stimuli/rgb_scene000047_render000000.png,stimuli/rgb_scene000047_render000005.png,1,91,301,25,"[0, 1]",right,1,19,26,f,y,y,2019_Jul_16_1228,2AFC_task,59.9638298216623,
stimuli/rgb_scene000169_render000003.png,stimuli/rgb_scene000169_render000006.png,1,92,302,185,"[1, 0]",left,1,19,26,f,y,y,2019_Jul_16_1228,2AFC_task,59.9638298216623,
stimuli/rgb_scene000160_render000003.png,stimuli/rgb_scene000160_render000004.png,1,93,303,141,"[1, 0]",left,1,19,26,f,y,y,2019_Jul_16_1228,2AFC_task,59.9638298216623,
stimuli/rgb_scene000066_render000001.png,stimuli/rgb_scene000066_render000003.png,1,94,304,70,"[0, 1]",right,1,19,26,f,y,y,2019_Jul_16_1228,2AFC_task,59.9638298216623,
stimuli/rgb_scene000147_render000001.png,stimuli/rgb_scene000147_render000002.png,1,95,305,90,"[0, 1]",right,1,19,26,f,y,y,2019_Jul_16_1228,2AFC_task,59.9638298216623,
stimuli/rgb_scene000147_render000000.png,stimuli/rgb_scene000147_render000001.png,1,96,306,84,"[0, 1]",right,1,19,26,f,y,y,2019_Jul_16_1228,2AFC_task,59.9638298216623,
stimuli/rgb_scene000150_render000000.png,stimuli/rgb_scene000150_render000005.png,1,97,307,109,"[1, 0]",left,1,19,26,f,y,y,2019_Jul_16_1228,2AFC_task,59.9638298216623,
stimuli/rgb_scene000196_render000002.png,stimuli/rgb_scene000196_render000005.png,1,98,308,202,"[0, 1]",right,1,19,26,f,y,y,2019_Jul_16_1228,2AFC_task,59.9638298216623,
stimuli/rgb_scene000165_render000001.png,stimuli/rgb_scene000165_render000002.png,1,99,309,153,"[1, 0]",left,1,19,26,f,y,y,2019_Jul_16_1228,2AFC_task,59.9638298216623,
stimuli/rgb_scene000047_render000001.png,stimuli/rgb_scene000047_render000005.png,1,100,310,30,"[0, 1]",right,1,19,26,f,y,y,2019_Jul_16_1228,2AFC_task,59.9638298216623,
stimuli/rgb_scene000150_render000001.png,stimuli/rgb_scene000150_render000005.png,1,101,311,114,"[0, 1]",right,1,19,26,f,y,y,2019_Jul_16_1228,2AFC_task,59.9638298216623,
stimuli/rgb_scene000196_render000005.png,stimuli/rgb_scene000196_render000006.png,1,102,312,209,"[1, 0]",right,0,19,26,f,y,y,2019_Jul_16_1228,2AFC_task,59.9638298216623,
stimuli/rgb_scene000169_render000001.png,stimuli/rgb_scene000169_render000002.png,1,103,313,174,"[0, 1]",right,1,19,26,f,y,y,2019_Jul_16_1228,2AFC_task,59.9638298216623,
stimuli/rgb_scene000169_render000003.png,stimuli/rgb_scene000169_render000005.png,1,104,314,184,"[1, 0]",left,1,19,26,f,y,y,2019_Jul_16_1228,2AFC_task,59.9638298216623,
stimuli/rgb_scene000150_render000000.png,stimuli/rgb_scene000150_render000001.png,1,105,315,105,"[1, 0]",left,1,19,26,f,y,y,2019_Jul_16_1228,2AFC_task,59.9638298216623,
stimuli/rgb_scene000165_render000001.png,stimuli/rgb_scene000165_render000004.png,1,106,316,155,"[1, 0]",left,1,19,26,f,y,y,2019_Jul_16_1228,2AFC_task,59.9638298216623,
stimuli/rgb_scene000056_render000000.png,stimuli/rgb_scene000056_render000006.png,1,107,317,47,"[0, 1]",right,1,19,26,f,y,y,2019_Jul_16_1228,2AFC_task,59.9638298216623,
stimuli/rgb_scene000047_render000004.png,stimuli/rgb_scene000047_render000005.png,1,108,318,39,"[0, 1]",right,1,19,26,f,y,y,2019_Jul_16_1228,2AFC_task,59.9638298216623,
stimuli/rgb_scene000196_render000000.png,stimuli/rgb_scene000196_render000006.png,1,109,319,194,"[1, 0]",left,1,19,26,f,y,y,2019_Jul_16_1228,2AFC_task,59.9638298216623,
stimuli/rgb_scene000196_render000002.png,stimuli/rgb_scene000196_render000006.png,1,110,320,203,"[1, 0]",right,0,19,26,f,y,y,2019_Jul_16_1228,2AFC_task,59.9638298216623,
stimuli/rgb_scene000165_render000000.png,stimuli/rgb_scene000165_render000001.png,1,111,321,147,"[0, 1]",right,1,19,26,f,y,y,2019_Jul_16_1228,2AFC_task,59.9638298216623,
stimuli/rgb_scene000196_render000003.png,stimuli/rgb_scene000196_render000005.png,1,112,322,205,"[1, 0]",left,1,19,26,f,y,y,2019_Jul_16_1228,2AFC_task,59.9638298216623,
stimuli/rgb_scene000066_render000003.png,stimuli/rgb_scene000066_render000004.png,1,113,323,78,"[0, 1]",right,1,19,26,f,y,y,2019_Jul_16_1228,2AFC_task,59.9638298216623,
stimuli/rgb_scene000169_render000003.png,stimuli/rgb_scene000169_render000004.png,1,114,324,183,"[1, 0]",left,1,19,26,f,y,y,2019_Jul_16_1228,2AFC_task,59.9638298216623,
stimuli/rgb_scene000066_render000003.png,stimuli/rgb_scene000066_render000005.png,1,115,325,79,"[0, 1]",right,1,19,26,f,y,y,2019_Jul_16_1228,2AFC_task,59.9638298216623,
stimuli/rgb_scene000196_render000004.png,stimuli/rgb_scene000196_render000006.png,1,116,326,208,"[1, 0]",right,0,19,26,f,y,y,2019_Jul_16_1228,2AFC_task,59.9638298216623,
stimuli/rgb_scene000150_render000003.png,stimuli/rgb_scene000150_render000006.png,1,117,327,122,"[1, 0]",left,1,19,26,f,y,y,2019_Jul_16_1228,2AFC_task,59.9638298216623,
stimuli/rgb_scene000160_render000002.png,stimuli/rgb_scene000160_render000005.png,1,118,328,139,"[0, 1]",right,1,19,26,f,y,y,2019_Jul_16_1228,2AFC_task,59.9638298216623,
stimuli/rgb_scene000165_render000000.png,stimuli/rgb_scene000165_render000003.png,1,119,329,149,"[1, 0]",left,1,19,26,f,y,y,2019_Jul_16_1228,2AFC_task,59.9638298216623,
stimuli/rgb_scene000150_render000001.png,stimuli/rgb_scene000150_render000006.png,1,120,330,115,"[0, 1]",right,1,19,26,f,y,y,2019_Jul_16_1228,2AFC_task,59.9638298216623,
stimuli/rgb_scene000066_render000000.png,stimuli/rgb_scene000066_render000004.png,1,121,331,66,"[1, 0]",left,1,19,26,f,y,y,2019_Jul_16_1228,2AFC_task,59.9638298216623,
stimuli/rgb_scene000169_render000000.png,stimuli/rgb_scene000169_render000006.png,1,122,332,173,"[1, 0]",left,1,19,26,f,y,y,2019_Jul_16_1228,2AFC_task,59.9638298216623,
stimuli/rgb_scene000047_render000000.png,stimuli/rgb_scene000047_render000004.png,1,123,333,24,"[1, 0]",left,1,19,26,f,y,y,2019_Jul_16_1228,2AFC_task,59.9638298216623,
stimuli/rgb_scene000147_render000000.png,stimuli/rgb_scene000147_render000003.png,1,124,334,86,"[1, 0]",left,1,19,26,f,y,y,2019_Jul_16_1228,2AFC_task,59.9638298216623,
stimuli/rgb_scene000047_render000002.png,stimuli/rgb_scene000047_render000006.png,1,125,335,35,"[0, 1]",right,1,19,26,f,y,y,2019_Jul_16_1228,2AFC_task,59.9638298216623,
stimuli/rgb_scene000147_render000002.png,stimuli/rgb_scene000147_render000003.png,1,126,336,95,"[1, 0]",left,1,19,26,f,y,y,2019_Jul_16_1228,2AFC_task,59.9638298216623,
stimuli/rgb_scene000160_render000001.png,stimuli/rgb_scene000160_render000006.png,1,127,337,136,"[1, 0]",left,1,19,26,f,y,y,2019_Jul_16_1228,2AFC_task,59.9638298216623,
stimuli/rgb_scene000147_render000000.png,stimuli/rgb_scene000147_render000004.png,1,128,338,87,"[1, 0]",left,1,19,26,f,y,y,2019_Jul_16_1228,2AFC_task,59.9638298216623,
stimuli/rgb_scene000056_render000001.png,stimuli/rgb_scene000056_render000005.png,1,129,339,51,"[0, 1]",right,1,19,26,f,y,y,2019_Jul_16_1228,2AFC_task,59.9638298216623,
stimuli/rgb_scene000169_render000005.png,stimuli/rgb_scene000169_render000006.png,1,130,340,188,"[0, 1]",right,1,19,26,f,y,y,2019_Jul_16_1228,2AFC_task,59.9638298216623,
stimuli/rgb_scene000042_render000001.png,stimuli/rgb_scene000042_render000006.png,1,131,341,10,"[0, 1]",right,1,19,26,f,y,y,2019_Jul_16_1228,2AFC_task,59.9638298216623,
stimuli/rgb_scene000066_render000000.png,stimuli/rgb_scene000066_render000003.png,1,132,342,65,"[0, 1]",right,1,19,26,f,y,y,2019_Jul_16_1228,2AFC_task,59.9638298216623,
stimuli/rgb_scene000150_render000001.png,stimuli/rgb_scene000150_render000004.png,1,133,343,113,"[1, 0]",left,1,19,26,f,y,y,2019_Jul_16_1228,2AFC_task,59.9638298216623,
stimuli/rgb_scene000047_render000003.png,stimuli/rgb_scene000047_render000005.png,1,134,344,37,"[0, 1]",right,1,19,26,f,y,y,2019_Jul_16_1228,2AFC_task,59.9638298216623,
stimuli/rgb_scene000165_render000000.png,stimuli/rgb_scene000165_render000005.png,1,135,345,151,"[1, 0]",left,1,19,26,f,y,y,2019_Jul_16_1228,2AFC_task,59.9638298216623,
stimuli/rgb_scene000196_render000003.png,stimuli/rgb_scene000196_render000006.png,1,136,346,206,"[1, 0]",right,0,19,26,f,y,y,2019_Jul_16_1228,2AFC_task,59.9638298216623,
stimuli/rgb_scene000042_render000002.png,stimuli/rgb_scene000042_render000006.png,1,137,347,14,"[1, 0]",left,1,19,26,f,y,y,2019_Jul_16_1228,2AFC_task,59.9638298216623,
stimuli/rgb_scene000047_render000001.png,stimuli/rgb_scene000047_render000003.png,1,138,348,28,"[0, 1]",right,1,19,26,f,y,y,2019_Jul_16_1228,2AFC_task,59.9638298216623,
stimuli/rgb_scene000150_render000003.png,stimuli/rgb_scene000150_render000005.png,1,139,349,121,"[0, 1]",right,1,19,26,f,y,y,2019_Jul_16_1228,2AFC_task,59.9638298216623,
stimuli/rgb_scene000150_render000001.png,stimuli/rgb_scene000150_render000003.png,1,140,350,112,"[0, 1]",right,1,19,26,f,y,y,2019_Jul_16_1228,2AFC_task,59.9638298216623,
stimuli/rgb_scene000160_render000000.png,stimuli/rgb_scene000160_render000006.png,1,141,351,131,"[0, 1]",right,1,19,26,f,y,y,2019_Jul_16_1228,2AFC_task,59.9638298216623,
stimuli/rgb_scene000056_render000004.png,stimuli/rgb_scene000056_render000006.png,1,142,352,61,"[0, 1]",right,1,19,26,f,y,y,2019_Jul_16_1228,2AFC_task,59.9638298216623,
stimuli/rgb_scene000047_render000003.png,stimuli/rgb_scene000047_render000006.png,1,143,353,38,"[1, 0]",left,1,19,26,f,y,y,2019_Jul_16_1228,2AFC_task,59.9638298216623,
stimuli/rgb_scene000169_render000000.png,stimuli/rgb_scene000169_render000004.png,1,144,354,171,"[0, 1]",right,1,19,26,f,y,y,2019_Jul_16_1228,2AFC_task,59.9638298216623,
stimuli/rgb_scene000047_render000001.png,stimuli/rgb_scene000047_render000002.png,1,145,355,27,"[0, 1]",right,1,19,26,f,y,y,2019_Jul_16_1228,2AFC_task,59.9638298216623,
stimuli/rgb_scene000160_render000003.png,stimuli/rgb_scene000160_render000005.png,1,146,356,142,"[1, 0]",left,1,19,26,f,y,y,2019_Jul_16_1228,2AFC_task,59.9638298216623,
stimuli/rgb_scene000165_render000003.png,stimuli/rgb_scene000165_render000004.png,1,147,357,162,"[0, 1]",right,1,19,26,f,y,y,2019_Jul_16_1228,2AFC_task,59.9638298216623,
stimuli/rgb_scene000056_render000002.png,stimuli/rgb_scene000056_render000004.png,1,148,358,54,"[0, 1]",right,1,19,26,f,y,y,2019_Jul_16_1228,2AFC_task,59.9638298216623,
stimuli/rgb_scene000169_render000004.png,stimuli/rgb_scene000169_render000006.png,1,149,359,187,"[0, 1]",right,1,19,26,f,y,y,2019_Jul_16_1228,2AFC_task,59.9638298216623,
stimuli/rgb_scene000165_render000005.png,stimuli/rgb_scene000165_render000006.png,1,150,360,167,"[0, 1]",right,1,19,26,f,y,y,2019_Jul_16_1228,2AFC_task,59.9638298216623,
stimuli/rgb_scene000160_render000000.png,stimuli/rgb_scene000160_render000002.png,1,151,361,127,"[1, 0]",left,1,19,26,f,y,y,2019_Jul_16_1228,2AFC_task,59.9638298216623,
stimuli/rgb_scene000169_render000001.png,stimuli/rgb_scene000169_render000003.png,1,152,362,175,"[1, 0]",left,1,19,26,f,y,y,2019_Jul_16_1228,2AFC_task,59.9638298216623,
stimuli/rgb_scene000066_render000005.png,stimuli/rgb_scene000066_render000006.png,1,153,363,83,"[1, 0]",left,1,19,26,f,y,y,2019_Jul_16_1228,2AFC_task,59.9638298216623,
stimuli/rgb_scene000165_render000003.png,stimuli/rgb_scene000165_render000005.png,1,154,364,163,"[1, 0]",left,1,19,26,f,y,y,2019_Jul_16_1228,2AFC_task,59.9638298216623,
stimuli/rgb_scene000165_render000002.png,stimuli/rgb_scene000165_render000005.png,1,155,365,160,"[1, 0]",left,1,19,26,f,y,y,2019_Jul_16_1228,2AFC_task,59.9638298216623,
stimuli/rgb_scene000056_render000001.png,stimuli/rgb_scene000056_render000006.png,1,156,366,52,"[0, 1]",right,1,19,26,f,y,y,2019_Jul_16_1228,2AFC_task,59.9638298216623,
stimuli/rgb_scene000147_render000001.png,stimuli/rgb_scene000147_render000006.png,1,157,367,94,"[1, 0]",left,1,19,26,f,y,y,2019_Jul_16_1228,2AFC_task,59.9638298216623,
stimuli/rgb_scene000165_render000001.png,stimuli/rgb_scene000165_render000005.png,1,158,368,156,"[1, 0]",left,1,19,26,f,y,y,2019_Jul_16_1228,2AFC_task,59.9638298216623,
stimuli/rgb_scene000042_render000002.png,stimuli/rgb_scene000042_render000003.png,1,159,369,11,"[1, 0]",left,1,19,26,f,y,y,2019_Jul_16_1228,2AFC_task,59.9638298216623,
stimuli/rgb_scene000066_render000004.png,stimuli/rgb_scene000066_render000006.png,1,160,370,82,"[1, 0]",left,1,19,26,f,y,y,2019_Jul_16_1228,2AFC_task,59.9638298216623,
stimuli/rgb_scene000165_render000003.png,stimuli/rgb_scene000165_render000006.png,1,161,371,164,"[0, 1]",right,1,19,26,f,y,y,2019_Jul_16_1228,2AFC_task,59.9638298216623,
stimuli/rgb_scene000196_render000004.png,stimuli/rgb_scene000196_render000005.png,1,162,372,207,"[1, 0]",left,1,19,26,f,y,y,2019_Jul_16_1228,2AFC_task,59.9638298216623,
stimuli/rgb_scene000150_render000000.png,stimuli/rgb_scene000150_render000002.png,1,163,373,106,"[0, 1]",right,1,19,26,f,y,y,2019_Jul_16_1228,2AFC_task,59.9638298216623,
stimuli/rgb_scene000165_render000001.png,stimuli/rgb_scene000165_render000006.png,1,164,374,157,"[0, 1]",right,1,19,26,f,y,y,2019_Jul_16_1228,2AFC_task,59.9638298216623,
stimuli/rgb_scene000056_render000003.png,stimuli/rgb_scene000056_render000004.png,1,165,375,57,"[0, 1]",right,1,19,26,f,y,y,2019_Jul_16_1228,2AFC_task,59.9638298216623,
stimuli/rgb_scene000042_render000003.png,stimuli/rgb_scene000042_render000006.png,1,166,376,17,"[1, 0]",left,1,19,26,f,y,y,2019_Jul_16_1228,2AFC_task,59.9638298216623,
stimuli/rgb_scene000066_render000003.png,stimuli/rgb_scene000066_render000006.png,1,167,377,80,"[0, 1]",right,1,19,26,f,y,y,2019_Jul_16_1228,2AFC_task,59.9638298216623,
stimuli/rgb_scene000160_render000002.png,stimuli/rgb_scene000160_render000003.png,1,168,378,137,"[1, 0]",left,1,19,26,f,y,y,2019_Jul_16_1228,2AFC_task,59.9638298216623,
stimuli/rgb_scene000066_render000002.png,stimuli/rgb_scene000066_render000004.png,1,169,379,75,"[0, 1]",right,1,19,26,f,y,y,2019_Jul_16_1228,2AFC_task,59.9638298216623,
stimuli/rgb_scene000147_render000002.png,stimuli/rgb_scene000147_render000004.png,1,170,380,96,"[1, 0]",left,1,19,26,f,y,y,2019_Jul_16_1228,2AFC_task,59.9638298216623,
stimuli/rgb_scene000165_render000004.png,stimuli/rgb_scene000165_render000005.png,1,171,381,165,"[1, 0]",left,1,19,26,f,y,y,2019_Jul_16_1228,2AFC_task,59.9638298216623,
stimuli/rgb_scene000169_render000001.png,stimuli/rgb_scene000169_render000006.png,1,172,382,178,"[1, 0]",left,1,19,26,f,y,y,2019_Jul_16_1228,2AFC_task,59.9638298216623,
stimuli/rgb_scene000147_render000000.png,stimuli/rgb_scene000147_render000002.png,1,173,383,85,"[0, 1]",right,1,19,26,f,y,y,2019_Jul_16_1228,2AFC_task,59.9638298216623,
stimuli/rgb_scene000160_render000003.png,stimuli/rgb_scene000160_render000006.png,1,174,384,143,"[0, 1]",right,1,19,26,f,y,y,2019_Jul_16_1228,2AFC_task,59.9638298216623,
stimuli/rgb_scene000047_render000001.png,stimuli/rgb_scene000047_render000006.png,1,175,385,31,"[0, 1]",right,1,19,26,f,y,y,2019_Jul_16_1228,2AFC_task,59.9638298216623,
stimuli/rgb_scene000042_render000004.png,stimuli/rgb_scene000042_render000006.png,1,176,386,19,"[1, 0]",left,1,19,26,f,y,y,2019_Jul_16_1228,2AFC_task,59.9638298216623,
stimuli/rgb_scene000150_render000004.png,stimuli/rgb_scene000150_render000006.png,1,177,387,124,"[1, 0]",left,1,19,26,f,y,y,2019_Jul_16_1228,2AFC_task,59.9638298216623,
stimuli/rgb_scene000196_render000001.png,stimuli/rgb_scene000196_render000002.png,1,178,388,195,"[0, 1]",right,1,19,26,f,y,y,2019_Jul_16_1228,2AFC_task,59.9638298216623,
stimuli/rgb_scene000196_render000001.png,stimuli/rgb_scene000196_render000003.png,1,179,389,196,"[1, 0]",left,1,19,26,f,y,y,2019_Jul_16_1228,2AFC_task,59.9638298216623,
stimuli/rgb_scene000042_render000001.png,stimuli/rgb_scene000042_render000005.png,1,180,390,9,"[0, 1]",right,1,19,26,f,y,y,2019_Jul_16_1228,2AFC_task,59.9638298216623,
stimuli/rgb_scene000160_render000000.png,stimuli/rgb_scene000160_render000005.png,1,181,391,130,"[0, 1]",right,1,19,26,f,y,y,2019_Jul_16_1228,2AFC_task,59.9638298216623,
stimuli/rgb_scene000047_render000001.png,stimuli/rgb_scene000047_render000004.png,1,182,392,29,"[0, 1]",right,1,19,26,f,y,y,2019_Jul_16_1228,2AFC_task,59.9638298216623,
stimuli/rgb_scene000165_render000000.png,stimuli/rgb_scene000165_render000006.png,1,183,393,152,"[0, 1]",right,1,19,26,f,y,y,2019_Jul_16_1228,2AFC_task,59.9638298216623,
stimuli/rgb_scene000147_render000003.png,stimuli/rgb_scene000147_render000005.png,1,184,394,100,"[0, 1]",right,1,19,26,f,y,y,2019_Jul_16_1228,2AFC_task,59.9638298216623,
stimuli/rgb_scene000066_render000002.png,stimuli/rgb_scene000066_render000006.png,1,185,395,77,"[1, 0]",left,1,19,26,f,y,y,2019_Jul_16_1228,2AFC_task,59.9638298216623,
stimuli/rgb_scene000169_render000000.png,stimuli/rgb_scene000169_render000003.png,1,186,396,170,"[0, 1]",right,1,19,26,f,y,y,2019_Jul_16_1228,2AFC_task,59.9638298216623,
stimuli/rgb_scene000056_render000000.png,stimuli/rgb_scene000056_render000003.png,1,187,397,44,"[0, 1]",right,1,19,26,f,y,y,2019_Jul_16_1228,2AFC_task,59.9638298216623,
stimuli/rgb_scene000042_render000003.png,stimuli/rgb_scene000042_render000005.png,1,188,398,16,"[1, 0]",left,1,19,26,f,y,y,2019_Jul_16_1228,2AFC_task,59.9638298216623,
stimuli/rgb_scene000042_render000001.png,stimuli/rgb_scene000042_render000004.png,1,189,399,8,"[1, 0]",left,1,19,26,f,y,y,2019_Jul_16_1228,2AFC_task,59.9638298216623,
stimuli/rgb_scene000196_render000000.png,stimuli/rgb_scene000196_render000001.png,1,190,400,189,"[1, 0]",left,1,19,26,f,y,y,2019_Jul_16_1228,2AFC_task,59.9638298216623,
stimuli/rgb_scene000056_render000002.png,stimuli/rgb_scene000056_render000006.png,1,191,401,56,"[0, 1]",right,1,19,26,f,y,y,2019_Jul_16_1228,2AFC_task,59.9638298216623,
stimuli/rgb_scene000047_render000000.png,stimuli/rgb_scene000047_render000003.png,1,192,402,23,"[1, 0]",left,1,19,26,f,y,y,2019_Jul_16_1228,2AFC_task,59.9638298216623,
stimuli/rgb_scene000042_render000004.png,stimuli/rgb_scene000042_render000005.png,1,193,403,18,"[1, 0]",left,1,19,26,f,y,y,2019_Jul_16_1228,2AFC_task,59.9638298216623,
stimuli/rgb_scene000056_render000001.png,stimuli/rgb_scene000056_render000004.png,1,194,404,50,"[0, 1]",right,1,19,26,f,y,y,2019_Jul_16_1228,2AFC_task,59.9638298216623,
stimuli/rgb_scene000056_render000000.png,stimuli/rgb_scene000056_render000002.png,1,195,405,43,"[0, 1]",right,1,19,26,f,y,y,2019_Jul_16_1228,2AFC_task,59.9638298216623,
stimuli/rgb_scene000066_render000000.png,stimuli/rgb_scene000066_render000002.png,1,196,406,64,"[0, 1]",right,1,19,26,f,y,y,2019_Jul_16_1228,2AFC_task,59.9638298216623,
stimuli/rgb_scene000056_render000003.png,stimuli/rgb_scene000056_render000006.png,1,197,407,59,"[0, 1]",right,1,19,26,f,y,y,2019_Jul_16_1228,2AFC_task,59.9638298216623,
stimuli/rgb_scene000042_render000002.png,stimuli/rgb_scene000042_render000004.png,1,198,408,12,"[0, 1]",right,1,19,26,f,y,y,2019_Jul_16_1228,2AFC_task,59.9638298216623,
stimuli/rgb_scene000047_render000004.png,stimuli/rgb_scene000047_render000006.png,1,199,409,40,"[0, 1]",right,1,19,26,f,y,y,2019_Jul_16_1228,2AFC_task,59.9638298216623,
stimuli/rgb_scene000196_render000000.png,stimuli/rgb_scene000196_render000005.png,1,200,410,193,"[1, 0]",left,1,19,26,f,y,y,2019_Jul_16_1228,2AFC_task,59.9638298216623,
stimuli/rgb_scene000196_render000001.png,stimuli/rgb_scene000196_render000005.png,1,201,411,198,"[1, 0]",left,1,19,26,f,y,y,2019_Jul_16_1228,2AFC_task,59.9638298216623,
stimuli/rgb_scene000165_render000001.png,stimuli/rgb_scene000165_render000003.png,1,202,412,154,"[0, 1]",right,1,19,26,f,y,y,2019_Jul_16_1228,2AFC_task,59.9638298216623,
stimuli/rgb_scene000165_render000000.png,stimuli/rgb_scene000165_render000002.png,1,203,413,148,"[1, 0]",left,1,19,26,f,y,y,2019_Jul_16_1228,2AFC_task,59.9638298216623,
stimuli/rgb_scene000066_render000001.png,stimuli/rgb_scene000066_render000004.png,1,204,414,71,"[0, 1]",right,1,19,26,f,y,y,2019_Jul_16_1228,2AFC_task,59.9638298216623,
stimuli/rgb_scene000056_render000003.png,stimuli/rgb_scene000056_render000005.png,1,205,415,58,"[0, 1]",right,1,19,26,f,y,y,2019_Jul_16_1228,2AFC_task,59.9638298216623,
stimuli/rgb_scene000165_render000004.png,stimuli/rgb_scene000165_render000006.png,1,206,416,166,"[0, 1]",right,1,19,26,f,y,y,2019_Jul_16_1228,2AFC_task,59.9638298216623,
stimuli/rgb_scene000196_render000001.png,stimuli/rgb_scene000196_render000006.png,1,207,417,199,"[0, 1]",right,1,19,26,f,y,y,2019_Jul_16_1228,2AFC_task,59.9638298216623,
stimuli/rgb_scene000066_render000001.png,stimuli/rgb_scene000066_render000002.png,1,208,418,69,"[1, 0]",left,1,19,26,f,y,y,2019_Jul_16_1228,2AFC_task,59.9638298216623,
stimuli/rgb_scene000169_render000002.png,stimuli/rgb_scene000169_render000005.png,1,209,419,181,"[1, 0]",left,1,19,26,f,y,y,2019_Jul_16_1228,2AFC_task,59.9638298216623,
