stimOne,stimTwo,trials_1.thisRepN,trials_1.thisTrialN,trials_1.thisN,trials_1.thisIndex,presentation_positions,resp_key,corresponding_image,participant ID (two digits, e.g. 01),age,gender (m/f/-),normal or corrected-to-normal vision (y/n),normal colour vision (y/n),date,expName,frameRate,
stimuli/rgb_scene000147_render000003.png,stimuli/rgb_scene000147_render000004.png,0,0,0,99,"[0, 1]",right,1,20,20,f,y,y,2019_Jul_11_1451,2AFC_task,59.962355583859924,
stimuli/rgb_scene000169_render000004.png,stimuli/rgb_scene000169_render000006.png,0,1,1,187,"[0, 1]",right,1,20,20,f,y,y,2019_Jul_11_1451,2AFC_task,59.962355583859924,
stimuli/rgb_scene000165_render000000.png,stimuli/rgb_scene000165_render000005.png,0,2,2,151,"[0, 1]",right,1,20,20,f,y,y,2019_Jul_11_1451,2AFC_task,59.962355583859924,
stimuli/rgb_scene000165_render000001.png,stimuli/rgb_scene000165_render000003.png,0,3,3,154,"[0, 1]",right,1,20,20,f,y,y,2019_Jul_11_1451,2AFC_task,59.962355583859924,
stimuli/rgb_scene000150_render000003.png,stimuli/rgb_scene000150_render000004.png,0,4,4,120,"[0, 1]",right,1,20,20,f,y,y,2019_Jul_11_1451,2AFC_task,59.962355583859924,
stimuli/rgb_scene000066_render000002.png,stimuli/rgb_scene000066_render000005.png,0,5,5,76,"[0, 1]",right,1,20,20,f,y,y,2019_Jul_11_1451,2AFC_task,59.962355583859924,
stimuli/rgb_scene000160_render000001.png,stimuli/rgb_scene000160_render000003.png,0,6,6,133,"[1, 0]",left,1,20,20,f,y,y,2019_Jul_11_1451,2AFC_task,59.962355583859924,
stimuli/rgb_scene000042_render000001.png,stimuli/rgb_scene000042_render000002.png,0,7,7,6,"[0, 1]",right,1,20,20,f,y,y,2019_Jul_11_1451,2AFC_task,59.962355583859924,
stimuli/rgb_scene000150_render000002.png,stimuli/rgb_scene000150_render000003.png,0,8,8,116,"[0, 1]",right,1,20,20,f,y,y,2019_Jul_11_1451,2AFC_task,59.962355583859924,
stimuli/rgb_scene000147_render000001.png,stimuli/rgb_scene000147_render000005.png,0,9,9,93,"[1, 0]",left,1,20,20,f,y,y,2019_Jul_11_1451,2AFC_task,59.962355583859924,
stimuli/rgb_scene000169_render000000.png,stimuli/rgb_scene000169_render000002.png,0,10,10,169,"[0, 1]",right,1,20,20,f,y,y,2019_Jul_11_1451,2AFC_task,59.962355583859924,
stimuli/rgb_scene000047_render000001.png,stimuli/rgb_scene000047_render000003.png,0,11,11,28,"[1, 0]",left,1,20,20,f,y,y,2019_Jul_11_1451,2AFC_task,59.962355583859924,
stimuli/rgb_scene000196_render000000.png,stimuli/rgb_scene000196_render000001.png,0,12,12,189,"[1, 0]",left,1,20,20,f,y,y,2019_Jul_11_1451,2AFC_task,59.962355583859924,
stimuli/rgb_scene000196_render000000.png,stimuli/rgb_scene000196_render000002.png,0,13,13,190,"[1, 0]",left,1,20,20,f,y,y,2019_Jul_11_1451,2AFC_task,59.962355583859924,
stimuli/rgb_scene000042_render000005.png,stimuli/rgb_scene000042_render000006.png,0,14,14,20,"[0, 1]",right,1,20,20,f,y,y,2019_Jul_11_1451,2AFC_task,59.962355583859924,
stimuli/rgb_scene000056_render000003.png,stimuli/rgb_scene000056_render000004.png,0,15,15,57,"[0, 1]",right,1,20,20,f,y,y,2019_Jul_11_1451,2AFC_task,59.962355583859924,
stimuli/rgb_scene000066_render000002.png,stimuli/rgb_scene000066_render000006.png,0,16,16,77,"[0, 1]",right,1,20,20,f,y,y,2019_Jul_11_1451,2AFC_task,59.962355583859924,
stimuli/rgb_scene000042_render000004.png,stimuli/rgb_scene000042_render000005.png,0,17,17,18,"[0, 1]",right,1,20,20,f,y,y,2019_Jul_11_1451,2AFC_task,59.962355583859924,
stimuli/rgb_scene000150_render000004.png,stimuli/rgb_scene000150_render000006.png,0,18,18,124,"[1, 0]",left,1,20,20,f,y,y,2019_Jul_11_1451,2AFC_task,59.962355583859924,
stimuli/rgb_scene000056_render000003.png,stimuli/rgb_scene000056_render000005.png,0,19,19,58,"[0, 1]",right,1,20,20,f,y,y,2019_Jul_11_1451,2AFC_task,59.962355583859924,
stimuli/rgb_scene000196_render000004.png,stimuli/rgb_scene000196_render000005.png,0,20,20,207,"[1, 0]",right,0,20,20,f,y,y,2019_Jul_11_1451,2AFC_task,59.962355583859924,
stimuli/rgb_scene000160_render000005.png,stimuli/rgb_scene000160_render000006.png,0,21,21,146,"[0, 1]",right,1,20,20,f,y,y,2019_Jul_11_1451,2AFC_task,59.962355583859924,
stimuli/rgb_scene000165_render000003.png,stimuli/rgb_scene000165_render000006.png,0,22,22,164,"[1, 0]",left,1,20,20,f,y,y,2019_Jul_11_1451,2AFC_task,59.962355583859924,
stimuli/rgb_scene000147_render000000.png,stimuli/rgb_scene000147_render000004.png,0,23,23,87,"[0, 1]",right,1,20,20,f,y,y,2019_Jul_11_1451,2AFC_task,59.962355583859924,
stimuli/rgb_scene000147_render000002.png,stimuli/rgb_scene000147_render000006.png,0,24,24,98,"[1, 0]",left,1,20,20,f,y,y,2019_Jul_11_1451,2AFC_task,59.962355583859924,
stimuli/rgb_scene000196_render000001.png,stimuli/rgb_scene000196_render000006.png,0,25,25,199,"[0, 1]",left,0,20,20,f,y,y,2019_Jul_11_1451,2AFC_task,59.962355583859924,
stimuli/rgb_scene000047_render000002.png,stimuli/rgb_scene000047_render000003.png,0,26,26,32,"[0, 1]",right,1,20,20,f,y,y,2019_Jul_11_1451,2AFC_task,59.962355583859924,
stimuli/rgb_scene000169_render000000.png,stimuli/rgb_scene000169_render000006.png,0,27,27,173,"[1, 0]",left,1,20,20,f,y,y,2019_Jul_11_1451,2AFC_task,59.962355583859924,
stimuli/rgb_scene000056_render000001.png,stimuli/rgb_scene000056_render000002.png,0,28,28,48,"[0, 1]",right,1,20,20,f,y,y,2019_Jul_11_1451,2AFC_task,59.962355583859924,
stimuli/rgb_scene000160_render000004.png,stimuli/rgb_scene000160_render000006.png,0,29,29,145,"[1, 0]",left,1,20,20,f,y,y,2019_Jul_11_1451,2AFC_task,59.962355583859924,
stimuli/rgb_scene000056_render000004.png,stimuli/rgb_scene000056_render000006.png,0,30,30,61,"[1, 0]",left,1,20,20,f,y,y,2019_Jul_11_1451,2AFC_task,59.962355583859924,
stimuli/rgb_scene000196_render000000.png,stimuli/rgb_scene000196_render000004.png,0,31,31,192,"[0, 1]",right,1,20,20,f,y,y,2019_Jul_11_1451,2AFC_task,59.962355583859924,
stimuli/rgb_scene000056_render000001.png,stimuli/rgb_scene000056_render000005.png,0,32,32,51,"[0, 1]",right,1,20,20,f,y,y,2019_Jul_11_1451,2AFC_task,59.962355583859924,
stimuli/rgb_scene000165_render000000.png,stimuli/rgb_scene000165_render000006.png,0,33,33,152,"[1, 0]",left,1,20,20,f,y,y,2019_Jul_11_1451,2AFC_task,59.962355583859924,
stimuli/rgb_scene000047_render000002.png,stimuli/rgb_scene000047_render000005.png,0,34,34,34,"[1, 0]",left,1,20,20,f,y,y,2019_Jul_11_1451,2AFC_task,59.962355583859924,
stimuli/rgb_scene000047_render000000.png,stimuli/rgb_scene000047_render000006.png,0,35,35,26,"[1, 0]",left,1,20,20,f,y,y,2019_Jul_11_1451,2AFC_task,59.962355583859924,
stimuli/rgb_scene000160_render000002.png,stimuli/rgb_scene000160_render000004.png,0,36,36,138,"[1, 0]",left,1,20,20,f,y,y,2019_Jul_11_1451,2AFC_task,59.962355583859924,
stimuli/rgb_scene000056_render000000.png,stimuli/rgb_scene000056_render000003.png,0,37,37,44,"[1, 0]",right,0,20,20,f,y,y,2019_Jul_11_1451,2AFC_task,59.962355583859924,
stimuli/rgb_scene000056_render000002.png,stimuli/rgb_scene000056_render000004.png,0,38,38,54,"[1, 0]",left,1,20,20,f,y,y,2019_Jul_11_1451,2AFC_task,59.962355583859924,
stimuli/rgb_scene000165_render000002.png,stimuli/rgb_scene000165_render000005.png,0,39,39,160,"[1, 0]",left,1,20,20,f,y,y,2019_Jul_11_1451,2AFC_task,59.962355583859924,
stimuli/rgb_scene000169_render000002.png,stimuli/rgb_scene000169_render000004.png,0,40,40,180,"[1, 0]",left,1,20,20,f,y,y,2019_Jul_11_1451,2AFC_task,59.962355583859924,
stimuli/rgb_scene000066_render000001.png,stimuli/rgb_scene000066_render000004.png,0,41,41,71,"[1, 0]",left,1,20,20,f,y,y,2019_Jul_11_1451,2AFC_task,59.962355583859924,
stimuli/rgb_scene000196_render000002.png,stimuli/rgb_scene000196_render000005.png,0,42,42,202,"[0, 1]",right,1,20,20,f,y,y,2019_Jul_11_1451,2AFC_task,59.962355583859924,
stimuli/rgb_scene000066_render000002.png,stimuli/rgb_scene000066_render000003.png,0,43,43,74,"[0, 1]",right,1,20,20,f,y,y,2019_Jul_11_1451,2AFC_task,59.962355583859924,
stimuli/rgb_scene000042_render000003.png,stimuli/rgb_scene000042_render000005.png,0,44,44,16,"[0, 1]",right,1,20,20,f,y,y,2019_Jul_11_1451,2AFC_task,59.962355583859924,
stimuli/rgb_scene000169_render000003.png,stimuli/rgb_scene000169_render000006.png,0,45,45,185,"[1, 0]",left,1,20,20,f,y,y,2019_Jul_11_1451,2AFC_task,59.962355583859924,
stimuli/rgb_scene000160_render000002.png,stimuli/rgb_scene000160_render000003.png,0,46,46,137,"[0, 1]",right,1,20,20,f,y,y,2019_Jul_11_1451,2AFC_task,59.962355583859924,
stimuli/rgb_scene000165_render000001.png,stimuli/rgb_scene000165_render000005.png,0,47,47,156,"[1, 0]",left,1,20,20,f,y,y,2019_Jul_11_1451,2AFC_task,59.962355583859924,
stimuli/rgb_scene000150_render000000.png,stimuli/rgb_scene000150_render000004.png,0,48,48,108,"[0, 1]",right,1,20,20,f,y,y,2019_Jul_11_1451,2AFC_task,59.962355583859924,
stimuli/rgb_scene000169_render000004.png,stimuli/rgb_scene000169_render000005.png,0,49,49,186,"[1, 0]",left,1,20,20,f,y,y,2019_Jul_11_1451,2AFC_task,59.962355583859924,
stimuli/rgb_scene000160_render000003.png,stimuli/rgb_scene000160_render000004.png,0,50,50,141,"[1, 0]",left,1,20,20,f,y,y,2019_Jul_11_1451,2AFC_task,59.962355583859924,
stimuli/rgb_scene000147_render000000.png,stimuli/rgb_scene000147_render000003.png,0,51,51,86,"[1, 0]",left,1,20,20,f,y,y,2019_Jul_11_1451,2AFC_task,59.962355583859924,
stimuli/rgb_scene000160_render000000.png,stimuli/rgb_scene000160_render000005.png,0,52,52,130,"[1, 0]",left,1,20,20,f,y,y,2019_Jul_11_1451,2AFC_task,59.962355583859924,
stimuli/rgb_scene000066_render000004.png,stimuli/rgb_scene000066_render000006.png,0,53,53,82,"[1, 0]",left,1,20,20,f,y,y,2019_Jul_11_1451,2AFC_task,59.962355583859924,
stimuli/rgb_scene000160_render000000.png,stimuli/rgb_scene000160_render000006.png,0,54,54,131,"[0, 1]",right,1,20,20,f,y,y,2019_Jul_11_1451,2AFC_task,59.962355583859924,
stimuli/rgb_scene000147_render000004.png,stimuli/rgb_scene000147_render000006.png,0,55,55,103,"[0, 1]",right,1,20,20,f,y,y,2019_Jul_11_1451,2AFC_task,59.962355583859924,
stimuli/rgb_scene000047_render000003.png,stimuli/rgb_scene000047_render000005.png,0,56,56,37,"[0, 1]",right,1,20,20,f,y,y,2019_Jul_11_1451,2AFC_task,59.962355583859924,
stimuli/rgb_scene000196_render000001.png,stimuli/rgb_scene000196_render000004.png,0,57,57,197,"[0, 1]",right,1,20,20,f,y,y,2019_Jul_11_1451,2AFC_task,59.962355583859924,
stimuli/rgb_scene000160_render000002.png,stimuli/rgb_scene000160_render000005.png,0,58,58,139,"[0, 1]",right,1,20,20,f,y,y,2019_Jul_11_1451,2AFC_task,59.962355583859924,
stimuli/rgb_scene000165_render000003.png,stimuli/rgb_scene000165_render000005.png,0,59,59,163,"[1, 0]",left,1,20,20,f,y,y,2019_Jul_11_1451,2AFC_task,59.962355583859924,
stimuli/rgb_scene000196_render000000.png,stimuli/rgb_scene000196_render000006.png,0,60,60,194,"[1, 0]",left,1,20,20,f,y,y,2019_Jul_11_1451,2AFC_task,59.962355583859924,
stimuli/rgb_scene000056_render000001.png,stimuli/rgb_scene000056_render000003.png,0,61,61,49,"[0, 1]",right,1,20,20,f,y,y,2019_Jul_11_1451,2AFC_task,59.962355583859924,
stimuli/rgb_scene000196_render000005.png,stimuli/rgb_scene000196_render000006.png,0,62,62,209,"[0, 1]",left,0,20,20,f,y,y,2019_Jul_11_1451,2AFC_task,59.962355583859924,
stimuli/rgb_scene000147_render000004.png,stimuli/rgb_scene000147_render000005.png,0,63,63,102,"[0, 1]",right,1,20,20,f,y,y,2019_Jul_11_1451,2AFC_task,59.962355583859924,
stimuli/rgb_scene000165_render000001.png,stimuli/rgb_scene000165_render000006.png,0,64,64,157,"[1, 0]",left,1,20,20,f,y,y,2019_Jul_11_1451,2AFC_task,59.962355583859924,
stimuli/rgb_scene000196_render000002.png,stimuli/rgb_scene000196_render000006.png,0,65,65,203,"[0, 1]",right,1,20,20,f,y,y,2019_Jul_11_1451,2AFC_task,59.962355583859924,
stimuli/rgb_scene000147_render000001.png,stimuli/rgb_scene000147_render000004.png,0,66,66,92,"[0, 1]",right,1,20,20,f,y,y,2019_Jul_11_1451,2AFC_task,59.962355583859924,
stimuli/rgb_scene000066_render000000.png,stimuli/rgb_scene000066_render000001.png,0,67,67,63,"[0, 1]",right,1,20,20,f,y,y,2019_Jul_11_1451,2AFC_task,59.962355583859924,
stimuli/rgb_scene000047_render000001.png,stimuli/rgb_scene000047_render000004.png,0,68,68,29,"[1, 0]",left,1,20,20,f,y,y,2019_Jul_11_1451,2AFC_task,59.962355583859924,
stimuli/rgb_scene000042_render000004.png,stimuli/rgb_scene000042_render000006.png,0,69,69,19,"[1, 0]",left,1,20,20,f,y,y,2019_Jul_11_1451,2AFC_task,59.962355583859924,
stimuli/rgb_scene000047_render000000.png,stimuli/rgb_scene000047_render000005.png,0,70,70,25,"[1, 0]",left,1,20,20,f,y,y,2019_Jul_11_1451,2AFC_task,59.962355583859924,
stimuli/rgb_scene000150_render000003.png,stimuli/rgb_scene000150_render000005.png,0,71,71,121,"[1, 0]",left,1,20,20,f,y,y,2019_Jul_11_1451,2AFC_task,59.962355583859924,
stimuli/rgb_scene000165_render000002.png,stimuli/rgb_scene000165_render000006.png,0,72,72,161,"[1, 0]",left,1,20,20,f,y,y,2019_Jul_11_1451,2AFC_task,59.962355583859924,
stimuli/rgb_scene000047_render000000.png,stimuli/rgb_scene000047_render000003.png,0,73,73,23,"[0, 1]",right,1,20,20,f,y,y,2019_Jul_11_1451,2AFC_task,59.962355583859924,
stimuli/rgb_scene000047_render000000.png,stimuli/rgb_scene000047_render000002.png,0,74,74,22,"[1, 0]",left,1,20,20,f,y,y,2019_Jul_11_1451,2AFC_task,59.962355583859924,
stimuli/rgb_scene000147_render000003.png,stimuli/rgb_scene000147_render000006.png,0,75,75,101,"[1, 0]",left,1,20,20,f,y,y,2019_Jul_11_1451,2AFC_task,59.962355583859924,
stimuli/rgb_scene000042_render000001.png,stimuli/rgb_scene000042_render000005.png,0,76,76,9,"[0, 1]",right,1,20,20,f,y,y,2019_Jul_11_1451,2AFC_task,59.962355583859924,
stimuli/rgb_scene000047_render000002.png,stimuli/rgb_scene000047_render000004.png,0,77,77,33,"[0, 1]",right,1,20,20,f,y,y,2019_Jul_11_1451,2AFC_task,59.962355583859924,
stimuli/rgb_scene000160_render000001.png,stimuli/rgb_scene000160_render000005.png,0,78,78,135,"[0, 1]",right,1,20,20,f,y,y,2019_Jul_11_1451,2AFC_task,59.962355583859924,
stimuli/rgb_scene000066_render000001.png,stimuli/rgb_scene000066_render000003.png,0,79,79,70,"[1, 0]",left,1,20,20,f,y,y,2019_Jul_11_1451,2AFC_task,59.962355583859924,
stimuli/rgb_scene000042_render000002.png,stimuli/rgb_scene000042_render000005.png,0,80,80,13,"[1, 0]",left,1,20,20,f,y,y,2019_Jul_11_1451,2AFC_task,59.962355583859924,
stimuli/rgb_scene000147_render000003.png,stimuli/rgb_scene000147_render000005.png,0,81,81,100,"[1, 0]",left,1,20,20,f,y,y,2019_Jul_11_1451,2AFC_task,59.962355583859924,
stimuli/rgb_scene000042_render000001.png,stimuli/rgb_scene000042_render000004.png,0,82,82,8,"[0, 1]",right,1,20,20,f,y,y,2019_Jul_11_1451,2AFC_task,59.962355583859924,
stimuli/rgb_scene000047_render000002.png,stimuli/rgb_scene000047_render000006.png,0,83,83,35,"[0, 1]",right,1,20,20,f,y,y,2019_Jul_11_1451,2AFC_task,59.962355583859924,
stimuli/rgb_scene000056_render000002.png,stimuli/rgb_scene000056_render000003.png,0,84,84,53,"[1, 0]",left,1,20,20,f,y,y,2019_Jul_11_1451,2AFC_task,59.962355583859924,
stimuli/rgb_scene000150_render000001.png,stimuli/rgb_scene000150_render000002.png,0,85,85,111,"[0, 1]",right,1,20,20,f,y,y,2019_Jul_11_1451,2AFC_task,59.962355583859924,
stimuli/rgb_scene000169_render000000.png,stimuli/rgb_scene000169_render000001.png,0,86,86,168,"[1, 0]",right,0,20,20,f,y,y,2019_Jul_11_1451,2AFC_task,59.962355583859924,
stimuli/rgb_scene000056_render000000.png,stimuli/rgb_scene000056_render000005.png,0,87,87,46,"[0, 1]",right,1,20,20,f,y,y,2019_Jul_11_1451,2AFC_task,59.962355583859924,
stimuli/rgb_scene000047_render000003.png,stimuli/rgb_scene000047_render000006.png,0,88,88,38,"[1, 0]",left,1,20,20,f,y,y,2019_Jul_11_1451,2AFC_task,59.962355583859924,
stimuli/rgb_scene000150_render000000.png,stimuli/rgb_scene000150_render000006.png,0,89,89,110,"[1, 0]",left,1,20,20,f,y,y,2019_Jul_11_1451,2AFC_task,59.962355583859924,
stimuli/rgb_scene000169_render000001.png,stimuli/rgb_scene000169_render000003.png,0,90,90,175,"[1, 0]",left,1,20,20,f,y,y,2019_Jul_11_1451,2AFC_task,59.962355583859924,
stimuli/rgb_scene000150_render000000.png,stimuli/rgb_scene000150_render000002.png,0,91,91,106,"[0, 1]",right,1,20,20,f,y,y,2019_Jul_11_1451,2AFC_task,59.962355583859924,
stimuli/rgb_scene000160_render000002.png,stimuli/rgb_scene000160_render000006.png,0,92,92,140,"[1, 0]",left,1,20,20,f,y,y,2019_Jul_11_1451,2AFC_task,59.962355583859924,
stimuli/rgb_scene000066_render000000.png,stimuli/rgb_scene000066_render000005.png,0,93,93,67,"[0, 1]",right,1,20,20,f,y,y,2019_Jul_11_1451,2AFC_task,59.962355583859924,
stimuli/rgb_scene000056_render000001.png,stimuli/rgb_scene000056_render000004.png,0,94,94,50,"[0, 1]",right,1,20,20,f,y,y,2019_Jul_11_1451,2AFC_task,59.962355583859924,
stimuli/rgb_scene000047_render000000.png,stimuli/rgb_scene000047_render000004.png,0,95,95,24,"[0, 1]",right,1,20,20,f,y,y,2019_Jul_11_1451,2AFC_task,59.962355583859924,
stimuli/rgb_scene000165_render000002.png,stimuli/rgb_scene000165_render000003.png,0,96,96,158,"[0, 1]",right,1,20,20,f,y,y,2019_Jul_11_1451,2AFC_task,59.962355583859924,
stimuli/rgb_scene000150_render000005.png,stimuli/rgb_scene000150_render000006.png,0,97,97,125,"[0, 1]",right,1,20,20,f,y,y,2019_Jul_11_1451,2AFC_task,59.962355583859924,
stimuli/rgb_scene000042_render000001.png,stimuli/rgb_scene000042_render000006.png,0,98,98,10,"[1, 0]",left,1,20,20,f,y,y,2019_Jul_11_1451,2AFC_task,59.962355583859924,
stimuli/rgb_scene000056_render000000.png,stimuli/rgb_scene000056_render000006.png,0,99,99,47,"[1, 0]",left,1,20,20,f,y,y,2019_Jul_11_1451,2AFC_task,59.962355583859924,
stimuli/rgb_scene000165_render000000.png,stimuli/rgb_scene000165_render000002.png,0,100,100,148,"[0, 1]",right,1,20,20,f,y,y,2019_Jul_11_1451,2AFC_task,59.962355583859924,
stimuli/rgb_scene000169_render000001.png,stimuli/rgb_scene000169_render000005.png,0,101,101,177,"[1, 0]",left,1,20,20,f,y,y,2019_Jul_11_1451,2AFC_task,59.962355583859924,
stimuli/rgb_scene000165_render000000.png,stimuli/rgb_scene000165_render000004.png,0,102,102,150,"[1, 0]",left,1,20,20,f,y,y,2019_Jul_11_1451,2AFC_task,59.962355583859924,
stimuli/rgb_scene000147_render000000.png,stimuli/rgb_scene000147_render000002.png,0,103,103,85,"[0, 1]",right,1,20,20,f,y,y,2019_Jul_11_1451,2AFC_task,59.962355583859924,
stimuli/rgb_scene000165_render000003.png,stimuli/rgb_scene000165_render000004.png,0,104,104,162,"[0, 1]",right,1,20,20,f,y,y,2019_Jul_11_1451,2AFC_task,59.962355583859924,
stimuli/rgb_scene000147_render000000.png,stimuli/rgb_scene000147_render000006.png,0,105,105,89,"[0, 1]",right,1,20,20,f,y,y,2019_Jul_11_1451,2AFC_task,59.962355583859924,
stimuli/rgb_scene000160_render000000.png,stimuli/rgb_scene000160_render000002.png,0,106,106,127,"[1, 0]",left,1,20,20,f,y,y,2019_Jul_11_1451,2AFC_task,59.962355583859924,
stimuli/rgb_scene000147_render000002.png,stimuli/rgb_scene000147_render000003.png,0,107,107,95,"[0, 1]",right,1,20,20,f,y,y,2019_Jul_11_1451,2AFC_task,59.962355583859924,
stimuli/rgb_scene000169_render000002.png,stimuli/rgb_scene000169_render000006.png,0,108,108,182,"[1, 0]",left,1,20,20,f,y,y,2019_Jul_11_1451,2AFC_task,59.962355583859924,
stimuli/rgb_scene000042_render000000.png,stimuli/rgb_scene000042_render000004.png,0,109,109,3,"[1, 0]",left,1,20,20,f,y,y,2019_Jul_11_1451,2AFC_task,59.962355583859924,
stimuli/rgb_scene000169_render000002.png,stimuli/rgb_scene000169_render000003.png,0,110,110,179,"[0, 1]",right,1,20,20,f,y,y,2019_Jul_11_1451,2AFC_task,59.962355583859924,
stimuli/rgb_scene000047_render000004.png,stimuli/rgb_scene000047_render000005.png,0,111,111,39,"[0, 1]",left,0,20,20,f,y,y,2019_Jul_11_1451,2AFC_task,59.962355583859924,
stimuli/rgb_scene000047_render000005.png,stimuli/rgb_scene000047_render000006.png,0,112,112,41,"[1, 0]",left,1,20,20,f,y,y,2019_Jul_11_1451,2AFC_task,59.962355583859924,
stimuli/rgb_scene000047_render000001.png,stimuli/rgb_scene000047_render000006.png,0,113,113,31,"[1, 0]",left,1,20,20,f,y,y,2019_Jul_11_1451,2AFC_task,59.962355583859924,
stimuli/rgb_scene000160_render000000.png,stimuli/rgb_scene000160_render000004.png,0,114,114,129,"[0, 1]",right,1,20,20,f,y,y,2019_Jul_11_1451,2AFC_task,59.962355583859924,
stimuli/rgb_scene000147_render000000.png,stimuli/rgb_scene000147_render000005.png,0,115,115,88,"[0, 1]",right,1,20,20,f,y,y,2019_Jul_11_1451,2AFC_task,59.962355583859924,
stimuli/rgb_scene000169_render000001.png,stimuli/rgb_scene000169_render000002.png,0,116,116,174,"[0, 1]",right,1,20,20,f,y,y,2019_Jul_11_1451,2AFC_task,59.962355583859924,
stimuli/rgb_scene000165_render000001.png,stimuli/rgb_scene000165_render000004.png,0,117,117,155,"[1, 0]",left,1,20,20,f,y,y,2019_Jul_11_1451,2AFC_task,59.962355583859924,
stimuli/rgb_scene000047_render000001.png,stimuli/rgb_scene000047_render000002.png,0,118,118,27,"[0, 1]",right,1,20,20,f,y,y,2019_Jul_11_1451,2AFC_task,59.962355583859924,
stimuli/rgb_scene000066_render000001.png,stimuli/rgb_scene000066_render000005.png,0,119,119,72,"[1, 0]",left,1,20,20,f,y,y,2019_Jul_11_1451,2AFC_task,59.962355583859924,
stimuli/rgb_scene000165_render000004.png,stimuli/rgb_scene000165_render000005.png,0,120,120,165,"[0, 1]",right,1,20,20,f,y,y,2019_Jul_11_1451,2AFC_task,59.962355583859924,
stimuli/rgb_scene000056_render000000.png,stimuli/rgb_scene000056_render000004.png,0,121,121,45,"[0, 1]",right,1,20,20,f,y,y,2019_Jul_11_1451,2AFC_task,59.962355583859924,
stimuli/rgb_scene000165_render000001.png,stimuli/rgb_scene000165_render000002.png,0,122,122,153,"[1, 0]",left,1,20,20,f,y,y,2019_Jul_11_1451,2AFC_task,59.962355583859924,
stimuli/rgb_scene000056_render000004.png,stimuli/rgb_scene000056_render000005.png,0,123,123,60,"[0, 1]",right,1,20,20,f,y,y,2019_Jul_11_1451,2AFC_task,59.962355583859924,
stimuli/rgb_scene000042_render000001.png,stimuli/rgb_scene000042_render000003.png,0,124,124,7,"[0, 1]",right,1,20,20,f,y,y,2019_Jul_11_1451,2AFC_task,59.962355583859924,
stimuli/rgb_scene000066_render000000.png,stimuli/rgb_scene000066_render000002.png,0,125,125,64,"[1, 0]",left,1,20,20,f,y,y,2019_Jul_11_1451,2AFC_task,59.962355583859924,
stimuli/rgb_scene000066_render000003.png,stimuli/rgb_scene000066_render000006.png,0,126,126,80,"[1, 0]",left,1,20,20,f,y,y,2019_Jul_11_1451,2AFC_task,59.962355583859924,
stimuli/rgb_scene000066_render000003.png,stimuli/rgb_scene000066_render000005.png,0,127,127,79,"[1, 0]",left,1,20,20,f,y,y,2019_Jul_11_1451,2AFC_task,59.962355583859924,
stimuli/rgb_scene000169_render000001.png,stimuli/rgb_scene000169_render000006.png,0,128,128,178,"[1, 0]",left,1,20,20,f,y,y,2019_Jul_11_1451,2AFC_task,59.962355583859924,
stimuli/rgb_scene000196_render000003.png,stimuli/rgb_scene000196_render000006.png,0,129,129,206,"[0, 1]",right,1,20,20,f,y,y,2019_Jul_11_1451,2AFC_task,59.962355583859924,
stimuli/rgb_scene000169_render000002.png,stimuli/rgb_scene000169_render000005.png,0,130,130,181,"[1, 0]",left,1,20,20,f,y,y,2019_Jul_11_1451,2AFC_task,59.962355583859924,
stimuli/rgb_scene000196_render000002.png,stimuli/rgb_scene000196_render000004.png,0,131,131,201,"[1, 0]",left,1,20,20,f,y,y,2019_Jul_11_1451,2AFC_task,59.962355583859924,
stimuli/rgb_scene000150_render000003.png,stimuli/rgb_scene000150_render000006.png,0,132,132,122,"[1, 0]",left,1,20,20,f,y,y,2019_Jul_11_1451,2AFC_task,59.962355583859924,
stimuli/rgb_scene000147_render000001.png,stimuli/rgb_scene000147_render000002.png,0,133,133,90,"[0, 1]",right,1,20,20,f,y,y,2019_Jul_11_1451,2AFC_task,59.962355583859924,
stimuli/rgb_scene000150_render000001.png,stimuli/rgb_scene000150_render000005.png,0,134,134,114,"[0, 1]",right,1,20,20,f,y,y,2019_Jul_11_1451,2AFC_task,59.962355583859924,
stimuli/rgb_scene000169_render000000.png,stimuli/rgb_scene000169_render000005.png,0,135,135,172,"[0, 1]",right,1,20,20,f,y,y,2019_Jul_11_1451,2AFC_task,59.962355583859924,
stimuli/rgb_scene000047_render000000.png,stimuli/rgb_scene000047_render000001.png,0,136,136,21,"[1, 0]",left,1,20,20,f,y,y,2019_Jul_11_1451,2AFC_task,59.962355583859924,
stimuli/rgb_scene000066_render000001.png,stimuli/rgb_scene000066_render000006.png,0,137,137,73,"[0, 1]",right,1,20,20,f,y,y,2019_Jul_11_1451,2AFC_task,59.962355583859924,
stimuli/rgb_scene000196_render000002.png,stimuli/rgb_scene000196_render000003.png,0,138,138,200,"[1, 0]",right,0,20,20,f,y,y,2019_Jul_11_1451,2AFC_task,59.962355583859924,
stimuli/rgb_scene000169_render000005.png,stimuli/rgb_scene000169_render000006.png,0,139,139,188,"[0, 1]",right,1,20,20,f,y,y,2019_Jul_11_1451,2AFC_task,59.962355583859924,
stimuli/rgb_scene000042_render000000.png,stimuli/rgb_scene000042_render000002.png,0,140,140,1,"[0, 1]",right,1,20,20,f,y,y,2019_Jul_11_1451,2AFC_task,59.962355583859924,
stimuli/rgb_scene000056_render000002.png,stimuli/rgb_scene000056_render000005.png,0,141,141,55,"[0, 1]",right,1,20,20,f,y,y,2019_Jul_11_1451,2AFC_task,59.962355583859924,
stimuli/rgb_scene000160_render000003.png,stimuli/rgb_scene000160_render000005.png,0,142,142,142,"[0, 1]",right,1,20,20,f,y,y,2019_Jul_11_1451,2AFC_task,59.962355583859924,
stimuli/rgb_scene000196_render000000.png,stimuli/rgb_scene000196_render000003.png,0,143,143,191,"[0, 1]",right,1,20,20,f,y,y,2019_Jul_11_1451,2AFC_task,59.962355583859924,
stimuli/rgb_scene000066_render000000.png,stimuli/rgb_scene000066_render000003.png,0,144,144,65,"[0, 1]",right,1,20,20,f,y,y,2019_Jul_11_1451,2AFC_task,59.962355583859924,
stimuli/rgb_scene000056_render000000.png,stimuli/rgb_scene000056_render000002.png,0,145,145,43,"[1, 0]",left,1,20,20,f,y,y,2019_Jul_11_1451,2AFC_task,59.962355583859924,
stimuli/rgb_scene000042_render000003.png,stimuli/rgb_scene000042_render000004.png,0,146,146,15,"[1, 0]",left,1,20,20,f,y,y,2019_Jul_11_1451,2AFC_task,59.962355583859924,
stimuli/rgb_scene000066_render000002.png,stimuli/rgb_scene000066_render000004.png,0,147,147,75,"[1, 0]",left,1,20,20,f,y,y,2019_Jul_11_1451,2AFC_task,59.962355583859924,
stimuli/rgb_scene000160_render000001.png,stimuli/rgb_scene000160_render000004.png,0,148,148,134,"[1, 0]",left,1,20,20,f,y,y,2019_Jul_11_1451,2AFC_task,59.962355583859924,
stimuli/rgb_scene000160_render000001.png,stimuli/rgb_scene000160_render000002.png,0,149,149,132,"[1, 0]",left,1,20,20,f,y,y,2019_Jul_11_1451,2AFC_task,59.962355583859924,
stimuli/rgb_scene000169_render000003.png,stimuli/rgb_scene000169_render000005.png,0,150,150,184,"[0, 1]",right,1,20,20,f,y,y,2019_Jul_11_1451,2AFC_task,59.962355583859924,
stimuli/rgb_scene000066_render000000.png,stimuli/rgb_scene000066_render000006.png,0,151,151,68,"[0, 1]",right,1,20,20,f,y,y,2019_Jul_11_1451,2AFC_task,59.962355583859924,
stimuli/rgb_scene000160_render000003.png,stimuli/rgb_scene000160_render000006.png,0,152,152,143,"[1, 0]",left,1,20,20,f,y,y,2019_Jul_11_1451,2AFC_task,59.962355583859924,
stimuli/rgb_scene000196_render000003.png,stimuli/rgb_scene000196_render000004.png,0,153,153,204,"[1, 0]",right,0,20,20,f,y,y,2019_Jul_11_1451,2AFC_task,59.962355583859924,
stimuli/rgb_scene000165_render000005.png,stimuli/rgb_scene000165_render000006.png,0,154,154,167,"[0, 1]",right,1,20,20,f,y,y,2019_Jul_11_1451,2AFC_task,59.962355583859924,
stimuli/rgb_scene000047_render000001.png,stimuli/rgb_scene000047_render000005.png,0,155,155,30,"[1, 0]",left,1,20,20,f,y,y,2019_Jul_11_1451,2AFC_task,59.962355583859924,
stimuli/rgb_scene000056_render000005.png,stimuli/rgb_scene000056_render000006.png,0,156,156,62,"[1, 0]",left,1,20,20,f,y,y,2019_Jul_11_1451,2AFC_task,59.962355583859924,
stimuli/rgb_scene000165_render000000.png,stimuli/rgb_scene000165_render000001.png,0,157,157,147,"[1, 0]",left,1,20,20,f,y,y,2019_Jul_11_1451,2AFC_task,59.962355583859924,
stimuli/rgb_scene000147_render000000.png,stimuli/rgb_scene000147_render000001.png,0,158,158,84,"[1, 0]",left,1,20,20,f,y,y,2019_Jul_11_1451,2AFC_task,59.962355583859924,
stimuli/rgb_scene000196_render000001.png,stimuli/rgb_scene000196_render000002.png,0,159,159,195,"[1, 0]",left,1,20,20,f,y,y,2019_Jul_11_1451,2AFC_task,59.962355583859924,
stimuli/rgb_scene000042_render000002.png,stimuli/rgb_scene000042_render000006.png,0,160,160,14,"[0, 1]",right,1,20,20,f,y,y,2019_Jul_11_1451,2AFC_task,59.962355583859924,
stimuli/rgb_scene000042_render000000.png,stimuli/rgb_scene000042_render000001.png,0,161,161,0,"[0, 1]",right,1,20,20,f,y,y,2019_Jul_11_1451,2AFC_task,59.962355583859924,
stimuli/rgb_scene000147_render000001.png,stimuli/rgb_scene000147_render000003.png,0,162,162,91,"[1, 0]",left,1,20,20,f,y,y,2019_Jul_11_1451,2AFC_task,59.962355583859924,
stimuli/rgb_scene000042_render000002.png,stimuli/rgb_scene000042_render000003.png,0,163,163,11,"[1, 0]",left,1,20,20,f,y,y,2019_Jul_11_1451,2AFC_task,59.962355583859924,
stimuli/rgb_scene000196_render000001.png,stimuli/rgb_scene000196_render000005.png,0,164,164,198,"[1, 0]",left,1,20,20,f,y,y,2019_Jul_11_1451,2AFC_task,59.962355583859924,
stimuli/rgb_scene000047_render000003.png,stimuli/rgb_scene000047_render000004.png,0,165,165,36,"[0, 1]",right,1,20,20,f,y,y,2019_Jul_11_1451,2AFC_task,59.962355583859924,
stimuli/rgb_scene000150_render000000.png,stimuli/rgb_scene000150_render000003.png,0,166,166,107,"[1, 0]",left,1,20,20,f,y,y,2019_Jul_11_1451,2AFC_task,59.962355583859924,
stimuli/rgb_scene000169_render000000.png,stimuli/rgb_scene000169_render000004.png,0,167,167,171,"[0, 1]",right,1,20,20,f,y,y,2019_Jul_11_1451,2AFC_task,59.962355583859924,
stimuli/rgb_scene000150_render000002.png,stimuli/rgb_scene000150_render000005.png,0,168,168,118,"[1, 0]",left,1,20,20,f,y,y,2019_Jul_11_1451,2AFC_task,59.962355583859924,
stimuli/rgb_scene000042_render000003.png,stimuli/rgb_scene000042_render000006.png,0,169,169,17,"[1, 0]",right,0,20,20,f,y,y,2019_Jul_11_1451,2AFC_task,59.962355583859924,
stimuli/rgb_scene000147_render000002.png,stimuli/rgb_scene000147_render000004.png,0,170,170,96,"[0, 1]",left,0,20,20,f,y,y,2019_Jul_11_1451,2AFC_task,59.962355583859924,
stimuli/rgb_scene000147_render000002.png,stimuli/rgb_scene000147_render000005.png,0,171,171,97,"[0, 1]",left,0,20,20,f,y,y,2019_Jul_11_1451,2AFC_task,59.962355583859924,
stimuli/rgb_scene000169_render000001.png,stimuli/rgb_scene000169_render000004.png,0,172,172,176,"[1, 0]",left,1,20,20,f,y,y,2019_Jul_11_1451,2AFC_task,59.962355583859924,
stimuli/rgb_scene000169_render000003.png,stimuli/rgb_scene000169_render000004.png,0,173,173,183,"[1, 0]",right,0,20,20,f,y,y,2019_Jul_11_1451,2AFC_task,59.962355583859924,
stimuli/rgb_scene000147_render000001.png,stimuli/rgb_scene000147_render000006.png,0,174,174,94,"[0, 1]",right,1,20,20,f,y,y,2019_Jul_11_1451,2AFC_task,59.962355583859924,
stimuli/rgb_scene000150_render000004.png,stimuli/rgb_scene000150_render000005.png,0,175,175,123,"[0, 1]",left,0,20,20,f,y,y,2019_Jul_11_1451,2AFC_task,59.962355583859924,
stimuli/rgb_scene000160_render000004.png,stimuli/rgb_scene000160_render000005.png,0,176,176,144,"[1, 0]",right,0,20,20,f,y,y,2019_Jul_11_1451,2AFC_task,59.962355583859924,
stimuli/rgb_scene000150_render000001.png,stimuli/rgb_scene000150_render000004.png,0,177,177,113,"[0, 1]",right,1,20,20,f,y,y,2019_Jul_11_1451,2AFC_task,59.962355583859924,
stimuli/rgb_scene000165_render000002.png,stimuli/rgb_scene000165_render000004.png,0,178,178,159,"[0, 1]",right,1,20,20,f,y,y,2019_Jul_11_1451,2AFC_task,59.962355583859924,
stimuli/rgb_scene000169_render000000.png,stimuli/rgb_scene000169_render000003.png,0,179,179,170,"[0, 1]",right,1,20,20,f,y,y,2019_Jul_11_1451,2AFC_task,59.962355583859924,
stimuli/rgb_scene000056_render000003.png,stimuli/rgb_scene000056_render000006.png,0,180,180,59,"[0, 1]",right,1,20,20,f,y,y,2019_Jul_11_1451,2AFC_task,59.962355583859924,
stimuli/rgb_scene000056_render000001.png,stimuli/rgb_scene000056_render000006.png,0,181,181,52,"[1, 0]",left,1,20,20,f,y,y,2019_Jul_11_1451,2AFC_task,59.962355583859924,
stimuli/rgb_scene000147_render000005.png,stimuli/rgb_scene000147_render000006.png,0,182,182,104,"[0, 1]",right,1,20,20,f,y,y,2019_Jul_11_1451,2AFC_task,59.962355583859924,
stimuli/rgb_scene000042_render000000.png,stimuli/rgb_scene000042_render000006.png,0,183,183,5,"[0, 1]",right,1,20,20,f,y,y,2019_Jul_11_1451,2AFC_task,59.962355583859924,
stimuli/rgb_scene000150_render000001.png,stimuli/rgb_scene000150_render000006.png,0,184,184,115,"[0, 1]",right,1,20,20,f,y,y,2019_Jul_11_1451,2AFC_task,59.962355583859924,
stimuli/rgb_scene000196_render000001.png,stimuli/rgb_scene000196_render000003.png,0,185,185,196,"[1, 0]",right,0,20,20,f,y,y,2019_Jul_11_1451,2AFC_task,59.962355583859924,
stimuli/rgb_scene000196_render000000.png,stimuli/rgb_scene000196_render000005.png,0,186,186,193,"[0, 1]",right,1,20,20,f,y,y,2019_Jul_11_1451,2AFC_task,59.962355583859924,
stimuli/rgb_scene000160_render000000.png,stimuli/rgb_scene000160_render000003.png,0,187,187,128,"[1, 0]",left,1,20,20,f,y,y,2019_Jul_11_1451,2AFC_task,59.962355583859924,
stimuli/rgb_scene000042_render000000.png,stimuli/rgb_scene000042_render000005.png,0,188,188,4,"[0, 1]",right,1,20,20,f,y,y,2019_Jul_11_1451,2AFC_task,59.962355583859924,
stimuli/rgb_scene000066_render000004.png,stimuli/rgb_scene000066_render000005.png,0,189,189,81,"[1, 0]",left,1,20,20,f,y,y,2019_Jul_11_1451,2AFC_task,59.962355583859924,
stimuli/rgb_scene000196_render000004.png,stimuli/rgb_scene000196_render000006.png,0,190,190,208,"[1, 0]",right,0,20,20,f,y,y,2019_Jul_11_1451,2AFC_task,59.962355583859924,
stimuli/rgb_scene000066_render000003.png,stimuli/rgb_scene000066_render000004.png,0,191,191,78,"[1, 0]",left,1,20,20,f,y,y,2019_Jul_11_1451,2AFC_task,59.962355583859924,
stimuli/rgb_scene000042_render000000.png,stimuli/rgb_scene000042_render000003.png,0,192,192,2,"[1, 0]",right,0,20,20,f,y,y,2019_Jul_11_1451,2AFC_task,59.962355583859924,
stimuli/rgb_scene000066_render000001.png,stimuli/rgb_scene000066_render000002.png,0,193,193,69,"[1, 0]",left,1,20,20,f,y,y,2019_Jul_11_1451,2AFC_task,59.962355583859924,
stimuli/rgb_scene000047_render000004.png,stimuli/rgb_scene000047_render000006.png,0,194,194,40,"[0, 1]",right,1,20,20,f,y,y,2019_Jul_11_1451,2AFC_task,59.962355583859924,
stimuli/rgb_scene000056_render000002.png,stimuli/rgb_scene000056_render000006.png,0,195,195,56,"[1, 0]",left,1,20,20,f,y,y,2019_Jul_11_1451,2AFC_task,59.962355583859924,
stimuli/rgb_scene000196_render000003.png,stimuli/rgb_scene000196_render000005.png,0,196,196,205,"[1, 0]",right,0,20,20,f,y,y,2019_Jul_11_1451,2AFC_task,59.962355583859924,
stimuli/rgb_scene000160_render000000.png,stimuli/rgb_scene000160_render000001.png,0,197,197,126,"[0, 1]",right,1,20,20,f,y,y,2019_Jul_11_1451,2AFC_task,59.962355583859924,
stimuli/rgb_scene000150_render000000.png,stimuli/rgb_scene000150_render000005.png,0,198,198,109,"[1, 0]",left,1,20,20,f,y,y,2019_Jul_11_1451,2AFC_task,59.962355583859924,
stimuli/rgb_scene000056_render000000.png,stimuli/rgb_scene000056_render000001.png,0,199,199,42,"[1, 0]",left,1,20,20,f,y,y,2019_Jul_11_1451,2AFC_task,59.962355583859924,
stimuli/rgb_scene000042_render000002.png,stimuli/rgb_scene000042_render000004.png,0,200,200,12,"[0, 1]",right,1,20,20,f,y,y,2019_Jul_11_1451,2AFC_task,59.962355583859924,
stimuli/rgb_scene000150_render000002.png,stimuli/rgb_scene000150_render000004.png,0,201,201,117,"[1, 0]",left,1,20,20,f,y,y,2019_Jul_11_1451,2AFC_task,59.962355583859924,
stimuli/rgb_scene000150_render000002.png,stimuli/rgb_scene000150_render000006.png,0,202,202,119,"[1, 0]",left,1,20,20,f,y,y,2019_Jul_11_1451,2AFC_task,59.962355583859924,
stimuli/rgb_scene000066_render000005.png,stimuli/rgb_scene000066_render000006.png,0,203,203,83,"[0, 1]",right,1,20,20,f,y,y,2019_Jul_11_1451,2AFC_task,59.962355583859924,
stimuli/rgb_scene000165_render000004.png,stimuli/rgb_scene000165_render000006.png,0,204,204,166,"[1, 0]",left,1,20,20,f,y,y,2019_Jul_11_1451,2AFC_task,59.962355583859924,
stimuli/rgb_scene000160_render000001.png,stimuli/rgb_scene000160_render000006.png,0,205,205,136,"[0, 1]",right,1,20,20,f,y,y,2019_Jul_11_1451,2AFC_task,59.962355583859924,
stimuli/rgb_scene000150_render000001.png,stimuli/rgb_scene000150_render000003.png,0,206,206,112,"[1, 0]",left,1,20,20,f,y,y,2019_Jul_11_1451,2AFC_task,59.962355583859924,
stimuli/rgb_scene000066_render000000.png,stimuli/rgb_scene000066_render000004.png,0,207,207,66,"[0, 1]",right,1,20,20,f,y,y,2019_Jul_11_1451,2AFC_task,59.962355583859924,
stimuli/rgb_scene000165_render000000.png,stimuli/rgb_scene000165_render000003.png,0,208,208,149,"[1, 0]",left,1,20,20,f,y,y,2019_Jul_11_1451,2AFC_task,59.962355583859924,
stimuli/rgb_scene000150_render000000.png,stimuli/rgb_scene000150_render000001.png,0,209,209,105,"[1, 0]",right,0,20,20,f,y,y,2019_Jul_11_1451,2AFC_task,59.962355583859924,
stimuli/rgb_scene000150_render000003.png,stimuli/rgb_scene000150_render000004.png,1,0,210,120,"[0, 1]",right,1,20,20,f,y,y,2019_Jul_11_1451,2AFC_task,59.962355583859924,
stimuli/rgb_scene000160_render000004.png,stimuli/rgb_scene000160_render000006.png,1,1,211,145,"[1, 0]",left,1,20,20,f,y,y,2019_Jul_11_1451,2AFC_task,59.962355583859924,
stimuli/rgb_scene000165_render000000.png,stimuli/rgb_scene000165_render000001.png,1,2,212,147,"[1, 0]",right,0,20,20,f,y,y,2019_Jul_11_1451,2AFC_task,59.962355583859924,
stimuli/rgb_scene000150_render000002.png,stimuli/rgb_scene000150_render000004.png,1,3,213,117,"[1, 0]",left,1,20,20,f,y,y,2019_Jul_11_1451,2AFC_task,59.962355583859924,
stimuli/rgb_scene000169_render000000.png,stimuli/rgb_scene000169_render000004.png,1,4,214,171,"[1, 0]",left,1,20,20,f,y,y,2019_Jul_11_1451,2AFC_task,59.962355583859924,
stimuli/rgb_scene000147_render000000.png,stimuli/rgb_scene000147_render000002.png,1,5,215,85,"[1, 0]",left,1,20,20,f,y,y,2019_Jul_11_1451,2AFC_task,59.962355583859924,
stimuli/rgb_scene000056_render000003.png,stimuli/rgb_scene000056_render000006.png,1,6,216,59,"[0, 1]",right,1,20,20,f,y,y,2019_Jul_11_1451,2AFC_task,59.962355583859924,
stimuli/rgb_scene000042_render000000.png,stimuli/rgb_scene000042_render000002.png,1,7,217,1,"[1, 0]",left,1,20,20,f,y,y,2019_Jul_11_1451,2AFC_task,59.962355583859924,
stimuli/rgb_scene000165_render000002.png,stimuli/rgb_scene000165_render000005.png,1,8,218,160,"[0, 1]",right,1,20,20,f,y,y,2019_Jul_11_1451,2AFC_task,59.962355583859924,
stimuli/rgb_scene000150_render000000.png,stimuli/rgb_scene000150_render000005.png,1,9,219,109,"[1, 0]",left,1,20,20,f,y,y,2019_Jul_11_1451,2AFC_task,59.962355583859924,
stimuli/rgb_scene000047_render000004.png,stimuli/rgb_scene000047_render000005.png,1,10,220,39,"[1, 0]",left,1,20,20,f,y,y,2019_Jul_11_1451,2AFC_task,59.962355583859924,
stimuli/rgb_scene000165_render000005.png,stimuli/rgb_scene000165_render000006.png,1,11,221,167,"[1, 0]",left,1,20,20,f,y,y,2019_Jul_11_1451,2AFC_task,59.962355583859924,
stimuli/rgb_scene000196_render000003.png,stimuli/rgb_scene000196_render000005.png,1,12,222,205,"[1, 0]",right,0,20,20,f,y,y,2019_Jul_11_1451,2AFC_task,59.962355583859924,
stimuli/rgb_scene000169_render000002.png,stimuli/rgb_scene000169_render000005.png,1,13,223,181,"[0, 1]",right,1,20,20,f,y,y,2019_Jul_11_1451,2AFC_task,59.962355583859924,
stimuli/rgb_scene000042_render000003.png,stimuli/rgb_scene000042_render000006.png,1,14,224,17,"[0, 1]",right,1,20,20,f,y,y,2019_Jul_11_1451,2AFC_task,59.962355583859924,
stimuli/rgb_scene000196_render000001.png,stimuli/rgb_scene000196_render000006.png,1,15,225,199,"[1, 0]",right,0,20,20,f,y,y,2019_Jul_11_1451,2AFC_task,59.962355583859924,
stimuli/rgb_scene000147_render000005.png,stimuli/rgb_scene000147_render000006.png,1,16,226,104,"[1, 0]",left,1,20,20,f,y,y,2019_Jul_11_1451,2AFC_task,59.962355583859924,
stimuli/rgb_scene000047_render000002.png,stimuli/rgb_scene000047_render000005.png,1,17,227,34,"[0, 1]",right,1,20,20,f,y,y,2019_Jul_11_1451,2AFC_task,59.962355583859924,
stimuli/rgb_scene000196_render000005.png,stimuli/rgb_scene000196_render000006.png,1,18,228,209,"[0, 1]",right,1,20,20,f,y,y,2019_Jul_11_1451,2AFC_task,59.962355583859924,
stimuli/rgb_scene000169_render000004.png,stimuli/rgb_scene000169_render000005.png,1,19,229,186,"[1, 0]",left,1,20,20,f,y,y,2019_Jul_11_1451,2AFC_task,59.962355583859924,
stimuli/rgb_scene000169_render000000.png,stimuli/rgb_scene000169_render000006.png,1,20,230,173,"[1, 0]",left,1,20,20,f,y,y,2019_Jul_11_1451,2AFC_task,59.962355583859924,
stimuli/rgb_scene000147_render000000.png,stimuli/rgb_scene000147_render000005.png,1,21,231,88,"[1, 0]",left,1,20,20,f,y,y,2019_Jul_11_1451,2AFC_task,59.962355583859924,
stimuli/rgb_scene000160_render000003.png,stimuli/rgb_scene000160_render000006.png,1,22,232,143,"[0, 1]",right,1,20,20,f,y,y,2019_Jul_11_1451,2AFC_task,59.962355583859924,
stimuli/rgb_scene000196_render000003.png,stimuli/rgb_scene000196_render000006.png,1,23,233,206,"[1, 0]",right,0,20,20,f,y,y,2019_Jul_11_1451,2AFC_task,59.962355583859924,
stimuli/rgb_scene000160_render000001.png,stimuli/rgb_scene000160_render000004.png,1,24,234,134,"[1, 0]",left,1,20,20,f,y,y,2019_Jul_11_1451,2AFC_task,59.962355583859924,
stimuli/rgb_scene000165_render000000.png,stimuli/rgb_scene000165_render000005.png,1,25,235,151,"[1, 0]",left,1,20,20,f,y,y,2019_Jul_11_1451,2AFC_task,59.962355583859924,
stimuli/rgb_scene000169_render000001.png,stimuli/rgb_scene000169_render000003.png,1,26,236,175,"[0, 1]",right,1,20,20,f,y,y,2019_Jul_11_1451,2AFC_task,59.962355583859924,
stimuli/rgb_scene000169_render000002.png,stimuli/rgb_scene000169_render000004.png,1,27,237,180,"[0, 1]",right,1,20,20,f,y,y,2019_Jul_11_1451,2AFC_task,59.962355583859924,
stimuli/rgb_scene000165_render000001.png,stimuli/rgb_scene000165_render000004.png,1,28,238,155,"[0, 1]",right,1,20,20,f,y,y,2019_Jul_11_1451,2AFC_task,59.962355583859924,
stimuli/rgb_scene000169_render000001.png,stimuli/rgb_scene000169_render000004.png,1,29,239,176,"[1, 0]",left,1,20,20,f,y,y,2019_Jul_11_1451,2AFC_task,59.962355583859924,
stimuli/rgb_scene000056_render000001.png,stimuli/rgb_scene000056_render000004.png,1,30,240,50,"[0, 1]",right,1,20,20,f,y,y,2019_Jul_11_1451,2AFC_task,59.962355583859924,
stimuli/rgb_scene000056_render000002.png,stimuli/rgb_scene000056_render000003.png,1,31,241,53,"[0, 1]",right,1,20,20,f,y,y,2019_Jul_11_1451,2AFC_task,59.962355583859924,
stimuli/rgb_scene000042_render000001.png,stimuli/rgb_scene000042_render000003.png,1,32,242,7,"[1, 0]",left,1,20,20,f,y,y,2019_Jul_11_1451,2AFC_task,59.962355583859924,
stimuli/rgb_scene000147_render000001.png,stimuli/rgb_scene000147_render000003.png,1,33,243,91,"[0, 1]",right,1,20,20,f,y,y,2019_Jul_11_1451,2AFC_task,59.962355583859924,
stimuli/rgb_scene000169_render000002.png,stimuli/rgb_scene000169_render000006.png,1,34,244,182,"[1, 0]",left,1,20,20,f,y,y,2019_Jul_11_1451,2AFC_task,59.962355583859924,
stimuli/rgb_scene000165_render000003.png,stimuli/rgb_scene000165_render000006.png,1,35,245,164,"[0, 1]",right,1,20,20,f,y,y,2019_Jul_11_1451,2AFC_task,59.962355583859924,
stimuli/rgb_scene000150_render000000.png,stimuli/rgb_scene000150_render000004.png,1,36,246,108,"[0, 1]",right,1,20,20,f,y,y,2019_Jul_11_1451,2AFC_task,59.962355583859924,
stimuli/rgb_scene000160_render000000.png,stimuli/rgb_scene000160_render000005.png,1,37,247,130,"[1, 0]",left,1,20,20,f,y,y,2019_Jul_11_1451,2AFC_task,59.962355583859924,
stimuli/rgb_scene000160_render000003.png,stimuli/rgb_scene000160_render000005.png,1,38,248,142,"[1, 0]",left,1,20,20,f,y,y,2019_Jul_11_1451,2AFC_task,59.962355583859924,
stimuli/rgb_scene000150_render000003.png,stimuli/rgb_scene000150_render000006.png,1,39,249,122,"[0, 1]",right,1,20,20,f,y,y,2019_Jul_11_1451,2AFC_task,59.962355583859924,
stimuli/rgb_scene000047_render000000.png,stimuli/rgb_scene000047_render000003.png,1,40,250,23,"[1, 0]",left,1,20,20,f,y,y,2019_Jul_11_1451,2AFC_task,59.962355583859924,
stimuli/rgb_scene000169_render000004.png,stimuli/rgb_scene000169_render000006.png,1,41,251,187,"[0, 1]",right,1,20,20,f,y,y,2019_Jul_11_1451,2AFC_task,59.962355583859924,
stimuli/rgb_scene000066_render000002.png,stimuli/rgb_scene000066_render000006.png,1,42,252,77,"[1, 0]",left,1,20,20,f,y,y,2019_Jul_11_1451,2AFC_task,59.962355583859924,
stimuli/rgb_scene000066_render000001.png,stimuli/rgb_scene000066_render000002.png,1,43,253,69,"[1, 0]",right,0,20,20,f,y,y,2019_Jul_11_1451,2AFC_task,59.962355583859924,
stimuli/rgb_scene000165_render000000.png,stimuli/rgb_scene000165_render000002.png,1,44,254,148,"[1, 0]",left,1,20,20,f,y,y,2019_Jul_11_1451,2AFC_task,59.962355583859924,
stimuli/rgb_scene000165_render000001.png,stimuli/rgb_scene000165_render000003.png,1,45,255,154,"[0, 1]",right,1,20,20,f,y,y,2019_Jul_11_1451,2AFC_task,59.962355583859924,
stimuli/rgb_scene000165_render000000.png,stimuli/rgb_scene000165_render000004.png,1,46,256,150,"[1, 0]",left,1,20,20,f,y,y,2019_Jul_11_1451,2AFC_task,59.962355583859924,
stimuli/rgb_scene000147_render000004.png,stimuli/rgb_scene000147_render000006.png,1,47,257,103,"[0, 1]",right,1,20,20,f,y,y,2019_Jul_11_1451,2AFC_task,59.962355583859924,
stimuli/rgb_scene000066_render000000.png,stimuli/rgb_scene000066_render000003.png,1,48,258,65,"[0, 1]",left,0,20,20,f,y,y,2019_Jul_11_1451,2AFC_task,59.962355583859924,
stimuli/rgb_scene000066_render000000.png,stimuli/rgb_scene000066_render000005.png,1,49,259,67,"[1, 0]",left,1,20,20,f,y,y,2019_Jul_11_1451,2AFC_task,59.962355583859924,
stimuli/rgb_scene000169_render000000.png,stimuli/rgb_scene000169_render000005.png,1,50,260,172,"[0, 1]",right,1,20,20,f,y,y,2019_Jul_11_1451,2AFC_task,59.962355583859924,
stimuli/rgb_scene000150_render000004.png,stimuli/rgb_scene000150_render000006.png,1,51,261,124,"[0, 1]",right,1,20,20,f,y,y,2019_Jul_11_1451,2AFC_task,59.962355583859924,
stimuli/rgb_scene000056_render000005.png,stimuli/rgb_scene000056_render000006.png,1,52,262,62,"[1, 0]",left,1,20,20,f,y,y,2019_Jul_11_1451,2AFC_task,59.962355583859924,
stimuli/rgb_scene000150_render000002.png,stimuli/rgb_scene000150_render000003.png,1,53,263,116,"[1, 0]",left,1,20,20,f,y,y,2019_Jul_11_1451,2AFC_task,59.962355583859924,
stimuli/rgb_scene000150_render000005.png,stimuli/rgb_scene000150_render000006.png,1,54,264,125,"[1, 0]",right,0,20,20,f,y,y,2019_Jul_11_1451,2AFC_task,59.962355583859924,
stimuli/rgb_scene000150_render000000.png,stimuli/rgb_scene000150_render000001.png,1,55,265,105,"[0, 1]",left,0,20,20,f,y,y,2019_Jul_11_1451,2AFC_task,59.962355583859924,
stimuli/rgb_scene000150_render000001.png,stimuli/rgb_scene000150_render000006.png,1,56,266,115,"[1, 0]",left,1,20,20,f,y,y,2019_Jul_11_1451,2AFC_task,59.962355583859924,
stimuli/rgb_scene000042_render000001.png,stimuli/rgb_scene000042_render000005.png,1,57,267,9,"[1, 0]",left,1,20,20,f,y,y,2019_Jul_11_1451,2AFC_task,59.962355583859924,
stimuli/rgb_scene000150_render000004.png,stimuli/rgb_scene000150_render000005.png,1,58,268,123,"[1, 0]",left,1,20,20,f,y,y,2019_Jul_11_1451,2AFC_task,59.962355583859924,
stimuli/rgb_scene000169_render000001.png,stimuli/rgb_scene000169_render000002.png,1,59,269,174,"[1, 0]",right,0,20,20,f,y,y,2019_Jul_11_1451,2AFC_task,59.962355583859924,
stimuli/rgb_scene000066_render000000.png,stimuli/rgb_scene000066_render000002.png,1,60,270,64,"[1, 0]",left,1,20,20,f,y,y,2019_Jul_11_1451,2AFC_task,59.962355583859924,
stimuli/rgb_scene000066_render000004.png,stimuli/rgb_scene000066_render000005.png,1,61,271,81,"[0, 1]",right,1,20,20,f,y,y,2019_Jul_11_1451,2AFC_task,59.962355583859924,
stimuli/rgb_scene000066_render000001.png,stimuli/rgb_scene000066_render000003.png,1,62,272,70,"[1, 0]",left,1,20,20,f,y,y,2019_Jul_11_1451,2AFC_task,59.962355583859924,
stimuli/rgb_scene000165_render000004.png,stimuli/rgb_scene000165_render000005.png,1,63,273,165,"[0, 1]",right,1,20,20,f,y,y,2019_Jul_11_1451,2AFC_task,59.962355583859924,
stimuli/rgb_scene000147_render000001.png,stimuli/rgb_scene000147_render000005.png,1,64,274,93,"[1, 0]",left,1,20,20,f,y,y,2019_Jul_11_1451,2AFC_task,59.962355583859924,
stimuli/rgb_scene000047_render000001.png,stimuli/rgb_scene000047_render000005.png,1,65,275,30,"[1, 0]",left,1,20,20,f,y,y,2019_Jul_11_1451,2AFC_task,59.962355583859924,
stimuli/rgb_scene000056_render000000.png,stimuli/rgb_scene000056_render000003.png,1,66,276,44,"[1, 0]",right,0,20,20,f,y,y,2019_Jul_11_1451,2AFC_task,59.962355583859924,
stimuli/rgb_scene000165_render000002.png,stimuli/rgb_scene000165_render000003.png,1,67,277,158,"[0, 1]",right,1,20,20,f,y,y,2019_Jul_11_1451,2AFC_task,59.962355583859924,
stimuli/rgb_scene000147_render000001.png,stimuli/rgb_scene000147_render000002.png,1,68,278,90,"[1, 0]",left,1,20,20,f,y,y,2019_Jul_11_1451,2AFC_task,59.962355583859924,
stimuli/rgb_scene000160_render000005.png,stimuli/rgb_scene000160_render000006.png,1,69,279,146,"[0, 1]",right,1,20,20,f,y,y,2019_Jul_11_1451,2AFC_task,59.962355583859924,
stimuli/rgb_scene000042_render000002.png,stimuli/rgb_scene000042_render000003.png,1,70,280,11,"[1, 0]",right,0,20,20,f,y,y,2019_Jul_11_1451,2AFC_task,59.962355583859924,
stimuli/rgb_scene000196_render000003.png,stimuli/rgb_scene000196_render000004.png,1,71,281,204,"[0, 1]",right,1,20,20,f,y,y,2019_Jul_11_1451,2AFC_task,59.962355583859924,
stimuli/rgb_scene000042_render000002.png,stimuli/rgb_scene000042_render000004.png,1,72,282,12,"[1, 0]",left,1,20,20,f,y,y,2019_Jul_11_1451,2AFC_task,59.962355583859924,
stimuli/rgb_scene000150_render000002.png,stimuli/rgb_scene000150_render000006.png,1,73,283,119,"[0, 1]",right,1,20,20,f,y,y,2019_Jul_11_1451,2AFC_task,59.962355583859924,
stimuli/rgb_scene000066_render000003.png,stimuli/rgb_scene000066_render000005.png,1,74,284,79,"[1, 0]",left,1,20,20,f,y,y,2019_Jul_11_1451,2AFC_task,59.962355583859924,
stimuli/rgb_scene000066_render000002.png,stimuli/rgb_scene000066_render000003.png,1,75,285,74,"[0, 1]",right,1,20,20,f,y,y,2019_Jul_11_1451,2AFC_task,59.962355583859924,
stimuli/rgb_scene000196_render000000.png,stimuli/rgb_scene000196_render000005.png,1,76,286,193,"[1, 0]",right,0,20,20,f,y,y,2019_Jul_11_1451,2AFC_task,59.962355583859924,
stimuli/rgb_scene000056_render000000.png,stimuli/rgb_scene000056_render000002.png,1,77,287,43,"[1, 0]",right,0,20,20,f,y,y,2019_Jul_11_1451,2AFC_task,59.962355583859924,
stimuli/rgb_scene000147_render000001.png,stimuli/rgb_scene000147_render000004.png,1,78,288,92,"[0, 1]",right,1,20,20,f,y,y,2019_Jul_11_1451,2AFC_task,59.962355583859924,
stimuli/rgb_scene000056_render000002.png,stimuli/rgb_scene000056_render000006.png,1,79,289,56,"[1, 0]",left,1,20,20,f,y,y,2019_Jul_11_1451,2AFC_task,59.962355583859924,
stimuli/rgb_scene000056_render000000.png,stimuli/rgb_scene000056_render000005.png,1,80,290,46,"[0, 1]",right,1,20,20,f,y,y,2019_Jul_11_1451,2AFC_task,59.962355583859924,
stimuli/rgb_scene000165_render000002.png,stimuli/rgb_scene000165_render000004.png,1,81,291,159,"[0, 1]",right,1,20,20,f,y,y,2019_Jul_11_1451,2AFC_task,59.962355583859924,
stimuli/rgb_scene000147_render000002.png,stimuli/rgb_scene000147_render000006.png,1,82,292,98,"[1, 0]",left,1,20,20,f,y,y,2019_Jul_11_1451,2AFC_task,59.962355583859924,
stimuli/rgb_scene000047_render000003.png,stimuli/rgb_scene000047_render000005.png,1,83,293,37,"[1, 0]",left,1,20,20,f,y,y,2019_Jul_11_1451,2AFC_task,59.962355583859924,
stimuli/rgb_scene000147_render000000.png,stimuli/rgb_scene000147_render000004.png,1,84,294,87,"[1, 0]",left,1,20,20,f,y,y,2019_Jul_11_1451,2AFC_task,59.962355583859924,
stimuli/rgb_scene000165_render000001.png,stimuli/rgb_scene000165_render000006.png,1,85,295,157,"[1, 0]",left,1,20,20,f,y,y,2019_Jul_11_1451,2AFC_task,59.962355583859924,
stimuli/rgb_scene000042_render000003.png,stimuli/rgb_scene000042_render000004.png,1,86,296,15,"[0, 1]",right,1,20,20,f,y,y,2019_Jul_11_1451,2AFC_task,59.962355583859924,
stimuli/rgb_scene000056_render000003.png,stimuli/rgb_scene000056_render000005.png,1,87,297,58,"[0, 1]",right,1,20,20,f,y,y,2019_Jul_11_1451,2AFC_task,59.962355583859924,
stimuli/rgb_scene000042_render000001.png,stimuli/rgb_scene000042_render000002.png,1,88,298,6,"[1, 0]",right,0,20,20,f,y,y,2019_Jul_11_1451,2AFC_task,59.962355583859924,
stimuli/rgb_scene000047_render000002.png,stimuli/rgb_scene000047_render000004.png,1,89,299,33,"[0, 1]",right,1,20,20,f,y,y,2019_Jul_11_1451,2AFC_task,59.962355583859924,
stimuli/rgb_scene000150_render000000.png,stimuli/rgb_scene000150_render000003.png,1,90,300,107,"[1, 0]",left,1,20,20,f,y,y,2019_Jul_11_1451,2AFC_task,59.962355583859924,
stimuli/rgb_scene000169_render000001.png,stimuli/rgb_scene000169_render000006.png,1,91,301,178,"[1, 0]",left,1,20,20,f,y,y,2019_Jul_11_1451,2AFC_task,59.962355583859924,
stimuli/rgb_scene000160_render000000.png,stimuli/rgb_scene000160_render000006.png,1,92,302,131,"[1, 0]",left,1,20,20,f,y,y,2019_Jul_11_1451,2AFC_task,59.962355583859924,
stimuli/rgb_scene000160_render000000.png,stimuli/rgb_scene000160_render000003.png,1,93,303,128,"[1, 0]",left,1,20,20,f,y,y,2019_Jul_11_1451,2AFC_task,59.962355583859924,
stimuli/rgb_scene000047_render000002.png,stimuli/rgb_scene000047_render000003.png,1,94,304,32,"[1, 0]",left,1,20,20,f,y,y,2019_Jul_11_1451,2AFC_task,59.962355583859924,
stimuli/rgb_scene000047_render000000.png,stimuli/rgb_scene000047_render000001.png,1,95,305,21,"[0, 1]",left,0,20,20,f,y,y,2019_Jul_11_1451,2AFC_task,59.962355583859924,
stimuli/rgb_scene000150_render000001.png,stimuli/rgb_scene000150_render000002.png,1,96,306,111,"[1, 0]",left,1,20,20,f,y,y,2019_Jul_11_1451,2AFC_task,59.962355583859924,
stimuli/rgb_scene000169_render000003.png,stimuli/rgb_scene000169_render000006.png,1,97,307,185,"[0, 1]",left,0,20,20,f,y,y,2019_Jul_11_1451,2AFC_task,59.962355583859924,
stimuli/rgb_scene000150_render000000.png,stimuli/rgb_scene000150_render000006.png,1,98,308,110,"[0, 1]",right,1,20,20,f,y,y,2019_Jul_11_1451,2AFC_task,59.962355583859924,
stimuli/rgb_scene000196_render000001.png,stimuli/rgb_scene000196_render000002.png,1,99,309,195,"[0, 1]",right,1,20,20,f,y,y,2019_Jul_11_1451,2AFC_task,59.962355583859924,
stimuli/rgb_scene000160_render000002.png,stimuli/rgb_scene000160_render000003.png,1,100,310,137,"[1, 0]",right,0,20,20,f,y,y,2019_Jul_11_1451,2AFC_task,59.962355583859924,
stimuli/rgb_scene000066_render000003.png,stimuli/rgb_scene000066_render000006.png,1,101,311,80,"[1, 0]",left,1,20,20,f,y,y,2019_Jul_11_1451,2AFC_task,59.962355583859924,
stimuli/rgb_scene000042_render000000.png,stimuli/rgb_scene000042_render000005.png,1,102,312,4,"[1, 0]",left,1,20,20,f,y,y,2019_Jul_11_1451,2AFC_task,59.962355583859924,
stimuli/rgb_scene000196_render000000.png,stimuli/rgb_scene000196_render000003.png,1,103,313,191,"[0, 1]",left,0,20,20,f,y,y,2019_Jul_11_1451,2AFC_task,59.962355583859924,
stimuli/rgb_scene000169_render000000.png,stimuli/rgb_scene000169_render000002.png,1,104,314,169,"[0, 1]",left,0,20,20,f,y,y,2019_Jul_11_1451,2AFC_task,59.962355583859924,
stimuli/rgb_scene000196_render000002.png,stimuli/rgb_scene000196_render000005.png,1,105,315,202,"[1, 0]",left,1,20,20,f,y,y,2019_Jul_11_1451,2AFC_task,59.962355583859924,
stimuli/rgb_scene000056_render000000.png,stimuli/rgb_scene000056_render000001.png,1,106,316,42,"[0, 1]",left,0,20,20,f,y,y,2019_Jul_11_1451,2AFC_task,59.962355583859924,
stimuli/rgb_scene000042_render000000.png,stimuli/rgb_scene000042_render000001.png,1,107,317,0,"[1, 0]",left,1,20,20,f,y,y,2019_Jul_11_1451,2AFC_task,59.962355583859924,
stimuli/rgb_scene000066_render000001.png,stimuli/rgb_scene000066_render000006.png,1,108,318,73,"[0, 1]",right,1,20,20,f,y,y,2019_Jul_11_1451,2AFC_task,59.962355583859924,
stimuli/rgb_scene000056_render000002.png,stimuli/rgb_scene000056_render000004.png,1,109,319,54,"[1, 0]",right,0,20,20,f,y,y,2019_Jul_11_1451,2AFC_task,59.962355583859924,
stimuli/rgb_scene000056_render000000.png,stimuli/rgb_scene000056_render000004.png,1,110,320,45,"[1, 0]",left,1,20,20,f,y,y,2019_Jul_11_1451,2AFC_task,59.962355583859924,
stimuli/rgb_scene000196_render000004.png,stimuli/rgb_scene000196_render000006.png,1,111,321,208,"[1, 0]",left,1,20,20,f,y,y,2019_Jul_11_1451,2AFC_task,59.962355583859924,
stimuli/rgb_scene000047_render000003.png,stimuli/rgb_scene000047_render000006.png,1,112,322,38,"[0, 1]",right,1,20,20,f,y,y,2019_Jul_11_1451,2AFC_task,59.962355583859924,
stimuli/rgb_scene000169_render000003.png,stimuli/rgb_scene000169_render000005.png,1,113,323,184,"[1, 0]",left,1,20,20,f,y,y,2019_Jul_11_1451,2AFC_task,59.962355583859924,
stimuli/rgb_scene000066_render000004.png,stimuli/rgb_scene000066_render000006.png,1,114,324,82,"[1, 0]",left,1,20,20,f,y,y,2019_Jul_11_1451,2AFC_task,59.962355583859924,
stimuli/rgb_scene000056_render000001.png,stimuli/rgb_scene000056_render000006.png,1,115,325,52,"[1, 0]",left,1,20,20,f,y,y,2019_Jul_11_1451,2AFC_task,59.962355583859924,
stimuli/rgb_scene000047_render000000.png,stimuli/rgb_scene000047_render000004.png,1,116,326,24,"[0, 1]",right,1,20,20,f,y,y,2019_Jul_11_1451,2AFC_task,59.962355583859924,
stimuli/rgb_scene000042_render000002.png,stimuli/rgb_scene000042_render000006.png,1,117,327,14,"[1, 0]",left,1,20,20,f,y,y,2019_Jul_11_1451,2AFC_task,59.962355583859924,
stimuli/rgb_scene000196_render000004.png,stimuli/rgb_scene000196_render000005.png,1,118,328,207,"[1, 0]",left,1,20,20,f,y,y,2019_Jul_11_1451,2AFC_task,59.962355583859924,
stimuli/rgb_scene000196_render000000.png,stimuli/rgb_scene000196_render000006.png,1,119,329,194,"[1, 0]",left,1,20,20,f,y,y,2019_Jul_11_1451,2AFC_task,59.962355583859924,
stimuli/rgb_scene000042_render000000.png,stimuli/rgb_scene000042_render000004.png,1,120,330,3,"[1, 0]",left,1,20,20,f,y,y,2019_Jul_11_1451,2AFC_task,59.962355583859924,
stimuli/rgb_scene000196_render000001.png,stimuli/rgb_scene000196_render000003.png,1,121,331,196,"[1, 0]",left,1,20,20,f,y,y,2019_Jul_11_1451,2AFC_task,59.962355583859924,
stimuli/rgb_scene000169_render000001.png,stimuli/rgb_scene000169_render000005.png,1,122,332,177,"[1, 0]",left,1,20,20,f,y,y,2019_Jul_11_1451,2AFC_task,59.962355583859924,
stimuli/rgb_scene000196_render000001.png,stimuli/rgb_scene000196_render000004.png,1,123,333,197,"[0, 1]",right,1,20,20,f,y,y,2019_Jul_11_1451,2AFC_task,59.962355583859924,
stimuli/rgb_scene000056_render000003.png,stimuli/rgb_scene000056_render000004.png,1,124,334,57,"[1, 0]",left,1,20,20,f,y,y,2019_Jul_11_1451,2AFC_task,59.962355583859924,
stimuli/rgb_scene000165_render000002.png,stimuli/rgb_scene000165_render000006.png,1,125,335,161,"[0, 1]",right,1,20,20,f,y,y,2019_Jul_11_1451,2AFC_task,59.962355583859924,
stimuli/rgb_scene000160_render000002.png,stimuli/rgb_scene000160_render000004.png,1,126,336,138,"[0, 1]",right,1,20,20,f,y,y,2019_Jul_11_1451,2AFC_task,59.962355583859924,
stimuli/rgb_scene000147_render000002.png,stimuli/rgb_scene000147_render000004.png,1,127,337,96,"[0, 1]",right,1,20,20,f,y,y,2019_Jul_11_1451,2AFC_task,59.962355583859924,
stimuli/rgb_scene000147_render000004.png,stimuli/rgb_scene000147_render000005.png,1,128,338,102,"[1, 0]",left,1,20,20,f,y,y,2019_Jul_11_1451,2AFC_task,59.962355583859924,
stimuli/rgb_scene000165_render000000.png,stimuli/rgb_scene000165_render000003.png,1,129,339,149,"[1, 0]",left,1,20,20,f,y,y,2019_Jul_11_1451,2AFC_task,59.962355583859924,
stimuli/rgb_scene000056_render000001.png,stimuli/rgb_scene000056_render000002.png,1,130,340,48,"[1, 0]",left,1,20,20,f,y,y,2019_Jul_11_1451,2AFC_task,59.962355583859924,
stimuli/rgb_scene000160_render000001.png,stimuli/rgb_scene000160_render000006.png,1,131,341,136,"[1, 0]",left,1,20,20,f,y,y,2019_Jul_11_1451,2AFC_task,59.962355583859924,
stimuli/rgb_scene000147_render000001.png,stimuli/rgb_scene000147_render000006.png,1,132,342,94,"[1, 0]",left,1,20,20,f,y,y,2019_Jul_11_1451,2AFC_task,59.962355583859924,
stimuli/rgb_scene000047_render000002.png,stimuli/rgb_scene000047_render000006.png,1,133,343,35,"[0, 1]",right,1,20,20,f,y,y,2019_Jul_11_1451,2AFC_task,59.962355583859924,
stimuli/rgb_scene000165_render000000.png,stimuli/rgb_scene000165_render000006.png,1,134,344,152,"[0, 1]",right,1,20,20,f,y,y,2019_Jul_11_1451,2AFC_task,59.962355583859924,
stimuli/rgb_scene000150_render000000.png,stimuli/rgb_scene000150_render000002.png,1,135,345,106,"[0, 1]",right,1,20,20,f,y,y,2019_Jul_11_1451,2AFC_task,59.962355583859924,
stimuli/rgb_scene000165_render000003.png,stimuli/rgb_scene000165_render000005.png,1,136,346,163,"[0, 1]",right,1,20,20,f,y,y,2019_Jul_11_1451,2AFC_task,59.962355583859924,
stimuli/rgb_scene000150_render000001.png,stimuli/rgb_scene000150_render000005.png,1,137,347,114,"[1, 0]",left,1,20,20,f,y,y,2019_Jul_11_1451,2AFC_task,59.962355583859924,
stimuli/rgb_scene000056_render000004.png,stimuli/rgb_scene000056_render000006.png,1,138,348,61,"[1, 0]",left,1,20,20,f,y,y,2019_Jul_11_1451,2AFC_task,59.962355583859924,
stimuli/rgb_scene000056_render000000.png,stimuli/rgb_scene000056_render000006.png,1,139,349,47,"[1, 0]",left,1,20,20,f,y,y,2019_Jul_11_1451,2AFC_task,59.962355583859924,
stimuli/rgb_scene000047_render000000.png,stimuli/rgb_scene000047_render000002.png,1,140,350,22,"[1, 0]",right,0,20,20,f,y,y,2019_Jul_11_1451,2AFC_task,59.962355583859924,
stimuli/rgb_scene000165_render000001.png,stimuli/rgb_scene000165_render000002.png,1,141,351,153,"[1, 0]",left,1,20,20,f,y,y,2019_Jul_11_1451,2AFC_task,59.962355583859924,
stimuli/rgb_scene000147_render000003.png,stimuli/rgb_scene000147_render000005.png,1,142,352,100,"[1, 0]",left,1,20,20,f,y,y,2019_Jul_11_1451,2AFC_task,59.962355583859924,
stimuli/rgb_scene000160_render000004.png,stimuli/rgb_scene000160_render000005.png,1,143,353,144,"[0, 1]",right,1,20,20,f,y,y,2019_Jul_11_1451,2AFC_task,59.962355583859924,
stimuli/rgb_scene000066_render000001.png,stimuli/rgb_scene000066_render000005.png,1,144,354,72,"[0, 1]",right,1,20,20,f,y,y,2019_Jul_11_1451,2AFC_task,59.962355583859924,
stimuli/rgb_scene000150_render000001.png,stimuli/rgb_scene000150_render000003.png,1,145,355,112,"[0, 1]",right,1,20,20,f,y,y,2019_Jul_11_1451,2AFC_task,59.962355583859924,
stimuli/rgb_scene000066_render000000.png,stimuli/rgb_scene000066_render000004.png,1,146,356,66,"[0, 1]",right,1,20,20,f,y,y,2019_Jul_11_1451,2AFC_task,59.962355583859924,
stimuli/rgb_scene000056_render000001.png,stimuli/rgb_scene000056_render000005.png,1,147,357,51,"[0, 1]",right,1,20,20,f,y,y,2019_Jul_11_1451,2AFC_task,59.962355583859924,
stimuli/rgb_scene000160_render000001.png,stimuli/rgb_scene000160_render000005.png,1,148,358,135,"[1, 0]",left,1,20,20,f,y,y,2019_Jul_11_1451,2AFC_task,59.962355583859924,
stimuli/rgb_scene000196_render000000.png,stimuli/rgb_scene000196_render000002.png,1,149,359,190,"[0, 1]",right,1,20,20,f,y,y,2019_Jul_11_1451,2AFC_task,59.962355583859924,
stimuli/rgb_scene000147_render000002.png,stimuli/rgb_scene000147_render000003.png,1,150,360,95,"[1, 0]",left,1,20,20,f,y,y,2019_Jul_11_1451,2AFC_task,59.962355583859924,
stimuli/rgb_scene000160_render000002.png,stimuli/rgb_scene000160_render000005.png,1,151,361,139,"[0, 1]",right,1,20,20,f,y,y,2019_Jul_11_1451,2AFC_task,59.962355583859924,
stimuli/rgb_scene000169_render000000.png,stimuli/rgb_scene000169_render000001.png,1,152,362,168,"[0, 1]",left,0,20,20,f,y,y,2019_Jul_11_1451,2AFC_task,59.962355583859924,
stimuli/rgb_scene000160_render000002.png,stimuli/rgb_scene000160_render000006.png,1,153,363,140,"[1, 0]",left,1,20,20,f,y,y,2019_Jul_11_1451,2AFC_task,59.962355583859924,
stimuli/rgb_scene000066_render000000.png,stimuli/rgb_scene000066_render000001.png,1,154,364,63,"[0, 1]",right,1,20,20,f,y,y,2019_Jul_11_1451,2AFC_task,59.962355583859924,
stimuli/rgb_scene000042_render000001.png,stimuli/rgb_scene000042_render000004.png,1,155,365,8,"[1, 0]",left,1,20,20,f,y,y,2019_Jul_11_1451,2AFC_task,59.962355583859924,
stimuli/rgb_scene000160_render000000.png,stimuli/rgb_scene000160_render000002.png,1,156,366,127,"[0, 1]",right,1,20,20,f,y,y,2019_Jul_11_1451,2AFC_task,59.962355583859924,
stimuli/rgb_scene000047_render000000.png,stimuli/rgb_scene000047_render000005.png,1,157,367,25,"[1, 0]",left,1,20,20,f,y,y,2019_Jul_11_1451,2AFC_task,59.962355583859924,
stimuli/rgb_scene000047_render000001.png,stimuli/rgb_scene000047_render000003.png,1,158,368,28,"[1, 0]",left,1,20,20,f,y,y,2019_Jul_11_1451,2AFC_task,59.962355583859924,
stimuli/rgb_scene000066_render000000.png,stimuli/rgb_scene000066_render000006.png,1,159,369,68,"[0, 1]",right,1,20,20,f,y,y,2019_Jul_11_1451,2AFC_task,59.962355583859924,
stimuli/rgb_scene000042_render000002.png,stimuli/rgb_scene000042_render000005.png,1,160,370,13,"[1, 0]",left,1,20,20,f,y,y,2019_Jul_11_1451,2AFC_task,59.962355583859924,
stimuli/rgb_scene000047_render000001.png,stimuli/rgb_scene000047_render000002.png,1,161,371,27,"[0, 1]",right,1,20,20,f,y,y,2019_Jul_11_1451,2AFC_task,59.962355583859924,
stimuli/rgb_scene000169_render000005.png,stimuli/rgb_scene000169_render000006.png,1,162,372,188,"[1, 0]",left,1,20,20,f,y,y,2019_Jul_11_1451,2AFC_task,59.962355583859924,
stimuli/rgb_scene000047_render000001.png,stimuli/rgb_scene000047_render000006.png,1,163,373,31,"[1, 0]",left,1,20,20,f,y,y,2019_Jul_11_1451,2AFC_task,59.962355583859924,
stimuli/rgb_scene000147_render000000.png,stimuli/rgb_scene000147_render000003.png,1,164,374,86,"[1, 0]",left,1,20,20,f,y,y,2019_Jul_11_1451,2AFC_task,59.962355583859924,
stimuli/rgb_scene000196_render000002.png,stimuli/rgb_scene000196_render000006.png,1,165,375,203,"[1, 0]",right,0,20,20,f,y,y,2019_Jul_11_1451,2AFC_task,59.962355583859924,
stimuli/rgb_scene000042_render000000.png,stimuli/rgb_scene000042_render000006.png,1,166,376,5,"[1, 0]",left,1,20,20,f,y,y,2019_Jul_11_1451,2AFC_task,59.962355583859924,
stimuli/rgb_scene000160_render000000.png,stimuli/rgb_scene000160_render000001.png,1,167,377,126,"[0, 1]",right,1,20,20,f,y,y,2019_Jul_11_1451,2AFC_task,59.962355583859924,
stimuli/rgb_scene000165_render000001.png,stimuli/rgb_scene000165_render000005.png,1,168,378,156,"[0, 1]",right,1,20,20,f,y,y,2019_Jul_11_1451,2AFC_task,59.962355583859924,
stimuli/rgb_scene000196_render000000.png,stimuli/rgb_scene000196_render000001.png,1,169,379,189,"[1, 0]",left,1,20,20,f,y,y,2019_Jul_11_1451,2AFC_task,59.962355583859924,
stimuli/rgb_scene000042_render000004.png,stimuli/rgb_scene000042_render000005.png,1,170,380,18,"[1, 0]",left,1,20,20,f,y,y,2019_Jul_11_1451,2AFC_task,59.962355583859924,
stimuli/rgb_scene000160_render000000.png,stimuli/rgb_scene000160_render000004.png,1,171,381,129,"[0, 1]",right,1,20,20,f,y,y,2019_Jul_11_1451,2AFC_task,59.962355583859924,
stimuli/rgb_scene000066_render000002.png,stimuli/rgb_scene000066_render000004.png,1,172,382,75,"[1, 0]",left,1,20,20,f,y,y,2019_Jul_11_1451,2AFC_task,59.962355583859924,
stimuli/rgb_scene000147_render000002.png,stimuli/rgb_scene000147_render000005.png,1,173,383,97,"[1, 0]",left,1,20,20,f,y,y,2019_Jul_11_1451,2AFC_task,59.962355583859924,
stimuli/rgb_scene000042_render000000.png,stimuli/rgb_scene000042_render000003.png,1,174,384,2,"[1, 0]",left,1,20,20,f,y,y,2019_Jul_11_1451,2AFC_task,59.962355583859924,
stimuli/rgb_scene000196_render000002.png,stimuli/rgb_scene000196_render000003.png,1,175,385,200,"[1, 0]",right,0,20,20,f,y,y,2019_Jul_11_1451,2AFC_task,59.962355583859924,
stimuli/rgb_scene000047_render000000.png,stimuli/rgb_scene000047_render000006.png,1,176,386,26,"[1, 0]",left,1,20,20,f,y,y,2019_Jul_11_1451,2AFC_task,59.962355583859924,
stimuli/rgb_scene000165_render000004.png,stimuli/rgb_scene000165_render000006.png,1,177,387,166,"[1, 0]",left,1,20,20,f,y,y,2019_Jul_11_1451,2AFC_task,59.962355583859924,
stimuli/rgb_scene000150_render000002.png,stimuli/rgb_scene000150_render000005.png,1,178,388,118,"[1, 0]",left,1,20,20,f,y,y,2019_Jul_11_1451,2AFC_task,59.962355583859924,
stimuli/rgb_scene000066_render000005.png,stimuli/rgb_scene000066_render000006.png,1,179,389,83,"[0, 1]",right,1,20,20,f,y,y,2019_Jul_11_1451,2AFC_task,59.962355583859924,
stimuli/rgb_scene000066_render000001.png,stimuli/rgb_scene000066_render000004.png,1,180,390,71,"[0, 1]",right,1,20,20,f,y,y,2019_Jul_11_1451,2AFC_task,59.962355583859924,
stimuli/rgb_scene000056_render000004.png,stimuli/rgb_scene000056_render000005.png,1,181,391,60,"[1, 0]",left,1,20,20,f,y,y,2019_Jul_11_1451,2AFC_task,59.962355583859924,
stimuli/rgb_scene000047_render000004.png,stimuli/rgb_scene000047_render000006.png,1,182,392,40,"[0, 1]",right,1,20,20,f,y,y,2019_Jul_11_1451,2AFC_task,59.962355583859924,
stimuli/rgb_scene000196_render000000.png,stimuli/rgb_scene000196_render000004.png,1,183,393,192,"[0, 1]",right,1,20,20,f,y,y,2019_Jul_11_1451,2AFC_task,59.962355583859924,
stimuli/rgb_scene000150_render000001.png,stimuli/rgb_scene000150_render000004.png,1,184,394,113,"[0, 1]",right,1,20,20,f,y,y,2019_Jul_11_1451,2AFC_task,59.962355583859924,
stimuli/rgb_scene000165_render000003.png,stimuli/rgb_scene000165_render000004.png,1,185,395,162,"[1, 0]",left,1,20,20,f,y,y,2019_Jul_11_1451,2AFC_task,59.962355583859924,
stimuli/rgb_scene000056_render000002.png,stimuli/rgb_scene000056_render000005.png,1,186,396,55,"[0, 1]",right,1,20,20,f,y,y,2019_Jul_11_1451,2AFC_task,59.962355583859924,
stimuli/rgb_scene000160_render000001.png,stimuli/rgb_scene000160_render000003.png,1,187,397,133,"[1, 0]",left,1,20,20,f,y,y,2019_Jul_11_1451,2AFC_task,59.962355583859924,
stimuli/rgb_scene000196_render000001.png,stimuli/rgb_scene000196_render000005.png,1,188,398,198,"[0, 1]",left,0,20,20,f,y,y,2019_Jul_11_1451,2AFC_task,59.962355583859924,
stimuli/rgb_scene000147_render000003.png,stimuli/rgb_scene000147_render000006.png,1,189,399,101,"[0, 1]",right,1,20,20,f,y,y,2019_Jul_11_1451,2AFC_task,59.962355583859924,
stimuli/rgb_scene000066_render000003.png,stimuli/rgb_scene000066_render000004.png,1,190,400,78,"[0, 1]",right,1,20,20,f,y,y,2019_Jul_11_1451,2AFC_task,59.962355583859924,
stimuli/rgb_scene000147_render000003.png,stimuli/rgb_scene000147_render000004.png,1,191,401,99,"[0, 1]",right,1,20,20,f,y,y,2019_Jul_11_1451,2AFC_task,59.962355583859924,
stimuli/rgb_scene000169_render000003.png,stimuli/rgb_scene000169_render000004.png,1,192,402,183,"[1, 0]",right,0,20,20,f,y,y,2019_Jul_11_1451,2AFC_task,59.962355583859924,
stimuli/rgb_scene000042_render000004.png,stimuli/rgb_scene000042_render000006.png,1,193,403,19,"[0, 1]",right,1,20,20,f,y,y,2019_Jul_11_1451,2AFC_task,59.962355583859924,
stimuli/rgb_scene000150_render000003.png,stimuli/rgb_scene000150_render000005.png,1,194,404,121,"[0, 1]",right,1,20,20,f,y,y,2019_Jul_11_1451,2AFC_task,59.962355583859924,
stimuli/rgb_scene000160_render000001.png,stimuli/rgb_scene000160_render000002.png,1,195,405,132,"[0, 1]",right,1,20,20,f,y,y,2019_Jul_11_1451,2AFC_task,59.962355583859924,
stimuli/rgb_scene000169_render000000.png,stimuli/rgb_scene000169_render000003.png,1,196,406,170,"[1, 0]",left,1,20,20,f,y,y,2019_Jul_11_1451,2AFC_task,59.962355583859924,
stimuli/rgb_scene000042_render000003.png,stimuli/rgb_scene000042_render000005.png,1,197,407,16,"[0, 1]",right,1,20,20,f,y,y,2019_Jul_11_1451,2AFC_task,59.962355583859924,
stimuli/rgb_scene000042_render000001.png,stimuli/rgb_scene000042_render000006.png,1,198,408,10,"[0, 1]",right,1,20,20,f,y,y,2019_Jul_11_1451,2AFC_task,59.962355583859924,
stimuli/rgb_scene000169_render000002.png,stimuli/rgb_scene000169_render000003.png,1,199,409,179,"[1, 0]",right,0,20,20,f,y,y,2019_Jul_11_1451,2AFC_task,59.962355583859924,
stimuli/rgb_scene000042_render000005.png,stimuli/rgb_scene000042_render000006.png,1,200,410,20,"[0, 1]",right,1,20,20,f,y,y,2019_Jul_11_1451,2AFC_task,59.962355583859924,
stimuli/rgb_scene000147_render000000.png,stimuli/rgb_scene000147_render000001.png,1,201,411,84,"[0, 1]",right,1,20,20,f,y,y,2019_Jul_11_1451,2AFC_task,59.962355583859924,
stimuli/rgb_scene000056_render000001.png,stimuli/rgb_scene000056_render000003.png,1,202,412,49,"[1, 0]",right,0,20,20,f,y,y,2019_Jul_11_1451,2AFC_task,59.962355583859924,
stimuli/rgb_scene000160_render000003.png,stimuli/rgb_scene000160_render000004.png,1,203,413,141,"[1, 0]",right,0,20,20,f,y,y,2019_Jul_11_1451,2AFC_task,59.962355583859924,
stimuli/rgb_scene000066_render000002.png,stimuli/rgb_scene000066_render000005.png,1,204,414,76,"[1, 0]",right,0,20,20,f,y,y,2019_Jul_11_1451,2AFC_task,59.962355583859924,
stimuli/rgb_scene000047_render000003.png,stimuli/rgb_scene000047_render000004.png,1,205,415,36,"[1, 0]",right,0,20,20,f,y,y,2019_Jul_11_1451,2AFC_task,59.962355583859924,
stimuli/rgb_scene000196_render000002.png,stimuli/rgb_scene000196_render000004.png,1,206,416,201,"[0, 1]",right,1,20,20,f,y,y,2019_Jul_11_1451,2AFC_task,59.962355583859924,
stimuli/rgb_scene000147_render000000.png,stimuli/rgb_scene000147_render000006.png,1,207,417,89,"[1, 0]",left,1,20,20,f,y,y,2019_Jul_11_1451,2AFC_task,59.962355583859924,
stimuli/rgb_scene000047_render000005.png,stimuli/rgb_scene000047_render000006.png,1,208,418,41,"[1, 0]",right,0,20,20,f,y,y,2019_Jul_11_1451,2AFC_task,59.962355583859924,
stimuli/rgb_scene000047_render000001.png,stimuli/rgb_scene000047_render000004.png,1,209,419,29,"[1, 0]",left,1,20,20,f,y,y,2019_Jul_11_1451,2AFC_task,59.962355583859924,
