stimOne,stimTwo,trials_1.thisRepN,trials_1.thisTrialN,trials_1.thisN,trials_1.thisIndex,presentation_positions,resp_key,corresponding_image,participant ID (two digits, e.g. 01),age,gender (m/f/-),normal or corrected-to-normal vision (y/n),normal colour vision (y/n),date,expName,frameRate,
stimuli/rgb_scene000056_render000002.png,stimuli/rgb_scene000056_render000004.png,0,0,0,54,"[1, 0]",left,1,22,20,m,y,y,2019_Jul_16_1119,2AFC_task,59.949306863959286,
stimuli/rgb_scene000066_render000000.png,stimuli/rgb_scene000066_render000004.png,0,1,1,66,"[0, 1]",right,1,22,20,m,y,y,2019_Jul_16_1119,2AFC_task,59.949306863959286,
stimuli/rgb_scene000147_render000004.png,stimuli/rgb_scene000147_render000006.png,0,2,2,103,"[0, 1]",right,1,22,20,m,y,y,2019_Jul_16_1119,2AFC_task,59.949306863959286,
stimuli/rgb_scene000047_render000001.png,stimuli/rgb_scene000047_render000005.png,0,3,3,30,"[0, 1]",right,1,22,20,m,y,y,2019_Jul_16_1119,2AFC_task,59.949306863959286,
stimuli/rgb_scene000147_render000002.png,stimuli/rgb_scene000147_render000005.png,0,4,4,97,"[1, 0]",left,1,22,20,m,y,y,2019_Jul_16_1119,2AFC_task,59.949306863959286,
stimuli/rgb_scene000196_render000002.png,stimuli/rgb_scene000196_render000004.png,0,5,5,201,"[0, 1]",right,1,22,20,m,y,y,2019_Jul_16_1119,2AFC_task,59.949306863959286,
stimuli/rgb_scene000066_render000002.png,stimuli/rgb_scene000066_render000005.png,0,6,6,76,"[1, 0]",left,1,22,20,m,y,y,2019_Jul_16_1119,2AFC_task,59.949306863959286,
stimuli/rgb_scene000160_render000002.png,stimuli/rgb_scene000160_render000006.png,0,7,7,140,"[0, 1]",right,1,22,20,m,y,y,2019_Jul_16_1119,2AFC_task,59.949306863959286,
stimuli/rgb_scene000066_render000004.png,stimuli/rgb_scene000066_render000005.png,0,8,8,81,"[0, 1]",right,1,22,20,m,y,y,2019_Jul_16_1119,2AFC_task,59.949306863959286,
stimuli/rgb_scene000169_render000003.png,stimuli/rgb_scene000169_render000005.png,0,9,9,184,"[1, 0]",left,1,22,20,m,y,y,2019_Jul_16_1119,2AFC_task,59.949306863959286,
stimuli/rgb_scene000042_render000000.png,stimuli/rgb_scene000042_render000001.png,0,10,10,0,"[1, 0]",left,1,22,20,m,y,y,2019_Jul_16_1119,2AFC_task,59.949306863959286,
stimuli/rgb_scene000066_render000001.png,stimuli/rgb_scene000066_render000003.png,0,11,11,70,"[1, 0]",left,1,22,20,m,y,y,2019_Jul_16_1119,2AFC_task,59.949306863959286,
stimuli/rgb_scene000196_render000000.png,stimuli/rgb_scene000196_render000001.png,0,12,12,189,"[0, 1]",right,1,22,20,m,y,y,2019_Jul_16_1119,2AFC_task,59.949306863959286,
stimuli/rgb_scene000047_render000004.png,stimuli/rgb_scene000047_render000005.png,0,13,13,39,"[0, 1]",right,1,22,20,m,y,y,2019_Jul_16_1119,2AFC_task,59.949306863959286,
stimuli/rgb_scene000150_render000002.png,stimuli/rgb_scene000150_render000004.png,0,14,14,117,"[1, 0]",left,1,22,20,m,y,y,2019_Jul_16_1119,2AFC_task,59.949306863959286,
stimuli/rgb_scene000160_render000005.png,stimuli/rgb_scene000160_render000006.png,0,15,15,146,"[0, 1]",right,1,22,20,m,y,y,2019_Jul_16_1119,2AFC_task,59.949306863959286,
stimuli/rgb_scene000047_render000004.png,stimuli/rgb_scene000047_render000006.png,0,16,16,40,"[1, 0]",left,1,22,20,m,y,y,2019_Jul_16_1119,2AFC_task,59.949306863959286,
stimuli/rgb_scene000047_render000002.png,stimuli/rgb_scene000047_render000004.png,0,17,17,33,"[1, 0]",left,1,22,20,m,y,y,2019_Jul_16_1119,2AFC_task,59.949306863959286,
stimuli/rgb_scene000165_render000003.png,stimuli/rgb_scene000165_render000004.png,0,18,18,162,"[1, 0]",left,1,22,20,m,y,y,2019_Jul_16_1119,2AFC_task,59.949306863959286,
stimuli/rgb_scene000150_render000000.png,stimuli/rgb_scene000150_render000002.png,0,19,19,106,"[1, 0]",left,1,22,20,m,y,y,2019_Jul_16_1119,2AFC_task,59.949306863959286,
stimuli/rgb_scene000160_render000001.png,stimuli/rgb_scene000160_render000004.png,0,20,20,134,"[1, 0]",left,1,22,20,m,y,y,2019_Jul_16_1119,2AFC_task,59.949306863959286,
stimuli/rgb_scene000047_render000000.png,stimuli/rgb_scene000047_render000003.png,0,21,21,23,"[1, 0]",left,1,22,20,m,y,y,2019_Jul_16_1119,2AFC_task,59.949306863959286,
stimuli/rgb_scene000066_render000002.png,stimuli/rgb_scene000066_render000006.png,0,22,22,77,"[1, 0]",left,1,22,20,m,y,y,2019_Jul_16_1119,2AFC_task,59.949306863959286,
stimuli/rgb_scene000196_render000003.png,stimuli/rgb_scene000196_render000005.png,0,23,23,205,"[1, 0]",right,0,22,20,m,y,y,2019_Jul_16_1119,2AFC_task,59.949306863959286,
stimuli/rgb_scene000169_render000004.png,stimuli/rgb_scene000169_render000006.png,0,24,24,187,"[1, 0]",left,1,22,20,m,y,y,2019_Jul_16_1119,2AFC_task,59.949306863959286,
stimuli/rgb_scene000150_render000003.png,stimuli/rgb_scene000150_render000006.png,0,25,25,122,"[0, 1]",right,1,22,20,m,y,y,2019_Jul_16_1119,2AFC_task,59.949306863959286,
stimuli/rgb_scene000150_render000001.png,stimuli/rgb_scene000150_render000002.png,0,26,26,111,"[0, 1]",right,1,22,20,m,y,y,2019_Jul_16_1119,2AFC_task,59.949306863959286,
stimuli/rgb_scene000066_render000000.png,stimuli/rgb_scene000066_render000005.png,0,27,27,67,"[0, 1]",right,1,22,20,m,y,y,2019_Jul_16_1119,2AFC_task,59.949306863959286,
stimuli/rgb_scene000165_render000003.png,stimuli/rgb_scene000165_render000006.png,0,28,28,164,"[0, 1]",right,1,22,20,m,y,y,2019_Jul_16_1119,2AFC_task,59.949306863959286,
stimuli/rgb_scene000165_render000004.png,stimuli/rgb_scene000165_render000006.png,0,29,29,166,"[0, 1]",right,1,22,20,m,y,y,2019_Jul_16_1119,2AFC_task,59.949306863959286,
stimuli/rgb_scene000066_render000001.png,stimuli/rgb_scene000066_render000006.png,0,30,30,73,"[1, 0]",left,1,22,20,m,y,y,2019_Jul_16_1119,2AFC_task,59.949306863959286,
stimuli/rgb_scene000196_render000001.png,stimuli/rgb_scene000196_render000004.png,0,31,31,197,"[1, 0]",left,1,22,20,m,y,y,2019_Jul_16_1119,2AFC_task,59.949306863959286,
stimuli/rgb_scene000150_render000002.png,stimuli/rgb_scene000150_render000003.png,0,32,32,116,"[0, 1]",right,1,22,20,m,y,y,2019_Jul_16_1119,2AFC_task,59.949306863959286,
stimuli/rgb_scene000042_render000005.png,stimuli/rgb_scene000042_render000006.png,0,33,33,20,"[1, 0]",left,1,22,20,m,y,y,2019_Jul_16_1119,2AFC_task,59.949306863959286,
stimuli/rgb_scene000147_render000000.png,stimuli/rgb_scene000147_render000004.png,0,34,34,87,"[0, 1]",right,1,22,20,m,y,y,2019_Jul_16_1119,2AFC_task,59.949306863959286,
stimuli/rgb_scene000147_render000000.png,stimuli/rgb_scene000147_render000001.png,0,35,35,84,"[0, 1]",right,1,22,20,m,y,y,2019_Jul_16_1119,2AFC_task,59.949306863959286,
stimuli/rgb_scene000160_render000000.png,stimuli/rgb_scene000160_render000006.png,0,36,36,131,"[1, 0]",left,1,22,20,m,y,y,2019_Jul_16_1119,2AFC_task,59.949306863959286,
stimuli/rgb_scene000169_render000000.png,stimuli/rgb_scene000169_render000004.png,0,37,37,171,"[1, 0]",left,1,22,20,m,y,y,2019_Jul_16_1119,2AFC_task,59.949306863959286,
stimuli/rgb_scene000165_render000004.png,stimuli/rgb_scene000165_render000005.png,0,38,38,165,"[1, 0]",left,1,22,20,m,y,y,2019_Jul_16_1119,2AFC_task,59.949306863959286,
stimuli/rgb_scene000056_render000003.png,stimuli/rgb_scene000056_render000006.png,0,39,39,59,"[1, 0]",left,1,22,20,m,y,y,2019_Jul_16_1119,2AFC_task,59.949306863959286,
stimuli/rgb_scene000056_render000004.png,stimuli/rgb_scene000056_render000006.png,0,40,40,61,"[1, 0]",left,1,22,20,m,y,y,2019_Jul_16_1119,2AFC_task,59.949306863959286,
stimuli/rgb_scene000147_render000000.png,stimuli/rgb_scene000147_render000006.png,0,41,41,89,"[1, 0]",left,1,22,20,m,y,y,2019_Jul_16_1119,2AFC_task,59.949306863959286,
stimuli/rgb_scene000047_render000003.png,stimuli/rgb_scene000047_render000006.png,0,42,42,38,"[1, 0]",left,1,22,20,m,y,y,2019_Jul_16_1119,2AFC_task,59.949306863959286,
stimuli/rgb_scene000196_render000000.png,stimuli/rgb_scene000196_render000005.png,0,43,43,193,"[0, 1]",right,1,22,20,m,y,y,2019_Jul_16_1119,2AFC_task,59.949306863959286,
stimuli/rgb_scene000169_render000001.png,stimuli/rgb_scene000169_render000002.png,0,44,44,174,"[0, 1]",right,1,22,20,m,y,y,2019_Jul_16_1119,2AFC_task,59.949306863959286,
stimuli/rgb_scene000160_render000003.png,stimuli/rgb_scene000160_render000005.png,0,45,45,142,"[1, 0]",left,1,22,20,m,y,y,2019_Jul_16_1119,2AFC_task,59.949306863959286,
stimuli/rgb_scene000066_render000001.png,stimuli/rgb_scene000066_render000004.png,0,46,46,71,"[0, 1]",right,1,22,20,m,y,y,2019_Jul_16_1119,2AFC_task,59.949306863959286,
stimuli/rgb_scene000196_render000004.png,stimuli/rgb_scene000196_render000006.png,0,47,47,208,"[1, 0]",right,0,22,20,m,y,y,2019_Jul_16_1119,2AFC_task,59.949306863959286,
stimuli/rgb_scene000160_render000001.png,stimuli/rgb_scene000160_render000003.png,0,48,48,133,"[1, 0]",left,1,22,20,m,y,y,2019_Jul_16_1119,2AFC_task,59.949306863959286,
stimuli/rgb_scene000150_render000004.png,stimuli/rgb_scene000150_render000006.png,0,49,49,124,"[1, 0]",left,1,22,20,m,y,y,2019_Jul_16_1119,2AFC_task,59.949306863959286,
stimuli/rgb_scene000165_render000002.png,stimuli/rgb_scene000165_render000003.png,0,50,50,158,"[1, 0]",left,1,22,20,m,y,y,2019_Jul_16_1119,2AFC_task,59.949306863959286,
stimuli/rgb_scene000042_render000001.png,stimuli/rgb_scene000042_render000004.png,0,51,51,8,"[1, 0]",left,1,22,20,m,y,y,2019_Jul_16_1119,2AFC_task,59.949306863959286,
stimuli/rgb_scene000150_render000003.png,stimuli/rgb_scene000150_render000004.png,0,52,52,120,"[1, 0]",left,1,22,20,m,y,y,2019_Jul_16_1119,2AFC_task,59.949306863959286,
stimuli/rgb_scene000196_render000004.png,stimuli/rgb_scene000196_render000005.png,0,53,53,207,"[0, 1]",right,1,22,20,m,y,y,2019_Jul_16_1119,2AFC_task,59.949306863959286,
stimuli/rgb_scene000147_render000000.png,stimuli/rgb_scene000147_render000003.png,0,54,54,86,"[0, 1]",right,1,22,20,m,y,y,2019_Jul_16_1119,2AFC_task,59.949306863959286,
stimuli/rgb_scene000056_render000000.png,stimuli/rgb_scene000056_render000001.png,0,55,55,42,"[1, 0]",left,1,22,20,m,y,y,2019_Jul_16_1119,2AFC_task,59.949306863959286,
stimuli/rgb_scene000147_render000002.png,stimuli/rgb_scene000147_render000003.png,0,56,56,95,"[1, 0]",left,1,22,20,m,y,y,2019_Jul_16_1119,2AFC_task,59.949306863959286,
stimuli/rgb_scene000165_render000001.png,stimuli/rgb_scene000165_render000002.png,0,57,57,153,"[0, 1]",right,1,22,20,m,y,y,2019_Jul_16_1119,2AFC_task,59.949306863959286,
stimuli/rgb_scene000147_render000003.png,stimuli/rgb_scene000147_render000005.png,0,58,58,100,"[0, 1]",right,1,22,20,m,y,y,2019_Jul_16_1119,2AFC_task,59.949306863959286,
stimuli/rgb_scene000066_render000002.png,stimuli/rgb_scene000066_render000003.png,0,59,59,74,"[0, 1]",right,1,22,20,m,y,y,2019_Jul_16_1119,2AFC_task,59.949306863959286,
stimuli/rgb_scene000066_render000004.png,stimuli/rgb_scene000066_render000006.png,0,60,60,82,"[1, 0]",left,1,22,20,m,y,y,2019_Jul_16_1119,2AFC_task,59.949306863959286,
stimuli/rgb_scene000042_render000000.png,stimuli/rgb_scene000042_render000004.png,0,61,61,3,"[1, 0]",left,1,22,20,m,y,y,2019_Jul_16_1119,2AFC_task,59.949306863959286,
stimuli/rgb_scene000169_render000003.png,stimuli/rgb_scene000169_render000004.png,0,62,62,183,"[0, 1]",right,1,22,20,m,y,y,2019_Jul_16_1119,2AFC_task,59.949306863959286,
stimuli/rgb_scene000196_render000000.png,stimuli/rgb_scene000196_render000006.png,0,63,63,194,"[1, 0]",left,1,22,20,m,y,y,2019_Jul_16_1119,2AFC_task,59.949306863959286,
stimuli/rgb_scene000042_render000000.png,stimuli/rgb_scene000042_render000003.png,0,64,64,2,"[0, 1]",right,1,22,20,m,y,y,2019_Jul_16_1119,2AFC_task,59.949306863959286,
stimuli/rgb_scene000047_render000005.png,stimuli/rgb_scene000047_render000006.png,0,65,65,41,"[1, 0]",left,1,22,20,m,y,y,2019_Jul_16_1119,2AFC_task,59.949306863959286,
stimuli/rgb_scene000066_render000003.png,stimuli/rgb_scene000066_render000006.png,0,66,66,80,"[0, 1]",right,1,22,20,m,y,y,2019_Jul_16_1119,2AFC_task,59.949306863959286,
stimuli/rgb_scene000056_render000000.png,stimuli/rgb_scene000056_render000004.png,0,67,67,45,"[1, 0]",left,1,22,20,m,y,y,2019_Jul_16_1119,2AFC_task,59.949306863959286,
stimuli/rgb_scene000169_render000002.png,stimuli/rgb_scene000169_render000003.png,0,68,68,179,"[1, 0]",left,1,22,20,m,y,y,2019_Jul_16_1119,2AFC_task,59.949306863959286,
stimuli/rgb_scene000056_render000003.png,stimuli/rgb_scene000056_render000004.png,0,69,69,57,"[0, 1]",right,1,22,20,m,y,y,2019_Jul_16_1119,2AFC_task,59.949306863959286,
stimuli/rgb_scene000066_render000000.png,stimuli/rgb_scene000066_render000003.png,0,70,70,65,"[1, 0]",left,1,22,20,m,y,y,2019_Jul_16_1119,2AFC_task,59.949306863959286,
stimuli/rgb_scene000165_render000001.png,stimuli/rgb_scene000165_render000003.png,0,71,71,154,"[1, 0]",left,1,22,20,m,y,y,2019_Jul_16_1119,2AFC_task,59.949306863959286,
stimuli/rgb_scene000056_render000005.png,stimuli/rgb_scene000056_render000006.png,0,72,72,62,"[0, 1]",right,1,22,20,m,y,y,2019_Jul_16_1119,2AFC_task,59.949306863959286,
stimuli/rgb_scene000169_render000000.png,stimuli/rgb_scene000169_render000002.png,0,73,73,169,"[0, 1]",right,1,22,20,m,y,y,2019_Jul_16_1119,2AFC_task,59.949306863959286,
stimuli/rgb_scene000066_render000003.png,stimuli/rgb_scene000066_render000004.png,0,74,74,78,"[1, 0]",left,1,22,20,m,y,y,2019_Jul_16_1119,2AFC_task,59.949306863959286,
stimuli/rgb_scene000066_render000000.png,stimuli/rgb_scene000066_render000006.png,0,75,75,68,"[0, 1]",right,1,22,20,m,y,y,2019_Jul_16_1119,2AFC_task,59.949306863959286,
stimuli/rgb_scene000042_render000001.png,stimuli/rgb_scene000042_render000005.png,0,76,76,9,"[0, 1]",right,1,22,20,m,y,y,2019_Jul_16_1119,2AFC_task,59.949306863959286,
stimuli/rgb_scene000042_render000003.png,stimuli/rgb_scene000042_render000005.png,0,77,77,16,"[1, 0]",left,1,22,20,m,y,y,2019_Jul_16_1119,2AFC_task,59.949306863959286,
stimuli/rgb_scene000165_render000002.png,stimuli/rgb_scene000165_render000006.png,0,78,78,161,"[0, 1]",right,1,22,20,m,y,y,2019_Jul_16_1119,2AFC_task,59.949306863959286,
stimuli/rgb_scene000147_render000001.png,stimuli/rgb_scene000147_render000005.png,0,79,79,93,"[1, 0]",left,1,22,20,m,y,y,2019_Jul_16_1119,2AFC_task,59.949306863959286,
stimuli/rgb_scene000042_render000001.png,stimuli/rgb_scene000042_render000002.png,0,80,80,6,"[0, 1]",right,1,22,20,m,y,y,2019_Jul_16_1119,2AFC_task,59.949306863959286,
stimuli/rgb_scene000196_render000002.png,stimuli/rgb_scene000196_render000006.png,0,81,81,203,"[0, 1]",right,1,22,20,m,y,y,2019_Jul_16_1119,2AFC_task,59.949306863959286,
stimuli/rgb_scene000056_render000001.png,stimuli/rgb_scene000056_render000002.png,0,82,82,48,"[1, 0]",left,1,22,20,m,y,y,2019_Jul_16_1119,2AFC_task,59.949306863959286,
stimuli/rgb_scene000150_render000001.png,stimuli/rgb_scene000150_render000006.png,0,83,83,115,"[0, 1]",right,1,22,20,m,y,y,2019_Jul_16_1119,2AFC_task,59.949306863959286,
stimuli/rgb_scene000165_render000000.png,stimuli/rgb_scene000165_render000004.png,0,84,84,150,"[1, 0]",left,1,22,20,m,y,y,2019_Jul_16_1119,2AFC_task,59.949306863959286,
stimuli/rgb_scene000047_render000000.png,stimuli/rgb_scene000047_render000005.png,0,85,85,25,"[1, 0]",left,1,22,20,m,y,y,2019_Jul_16_1119,2AFC_task,59.949306863959286,
stimuli/rgb_scene000147_render000003.png,stimuli/rgb_scene000147_render000006.png,0,86,86,101,"[0, 1]",right,1,22,20,m,y,y,2019_Jul_16_1119,2AFC_task,59.949306863959286,
stimuli/rgb_scene000165_render000001.png,stimuli/rgb_scene000165_render000005.png,0,87,87,156,"[1, 0]",left,1,22,20,m,y,y,2019_Jul_16_1119,2AFC_task,59.949306863959286,
stimuli/rgb_scene000147_render000000.png,stimuli/rgb_scene000147_render000002.png,0,88,88,85,"[0, 1]",right,1,22,20,m,y,y,2019_Jul_16_1119,2AFC_task,59.949306863959286,
stimuli/rgb_scene000169_render000001.png,stimuli/rgb_scene000169_render000004.png,0,89,89,176,"[1, 0]",left,1,22,20,m,y,y,2019_Jul_16_1119,2AFC_task,59.949306863959286,
stimuli/rgb_scene000147_render000002.png,stimuli/rgb_scene000147_render000006.png,0,90,90,98,"[0, 1]",right,1,22,20,m,y,y,2019_Jul_16_1119,2AFC_task,59.949306863959286,
stimuli/rgb_scene000160_render000000.png,stimuli/rgb_scene000160_render000001.png,0,91,91,126,"[1, 0]",left,1,22,20,m,y,y,2019_Jul_16_1119,2AFC_task,59.949306863959286,
stimuli/rgb_scene000160_render000003.png,stimuli/rgb_scene000160_render000004.png,0,92,92,141,"[1, 0]",left,1,22,20,m,y,y,2019_Jul_16_1119,2AFC_task,59.949306863959286,
stimuli/rgb_scene000066_render000003.png,stimuli/rgb_scene000066_render000005.png,0,93,93,79,"[0, 1]",right,1,22,20,m,y,y,2019_Jul_16_1119,2AFC_task,59.949306863959286,
stimuli/rgb_scene000147_render000001.png,stimuli/rgb_scene000147_render000004.png,0,94,94,92,"[1, 0]",left,1,22,20,m,y,y,2019_Jul_16_1119,2AFC_task,59.949306863959286,
stimuli/rgb_scene000047_render000001.png,stimuli/rgb_scene000047_render000004.png,0,95,95,29,"[0, 1]",right,1,22,20,m,y,y,2019_Jul_16_1119,2AFC_task,59.949306863959286,
stimuli/rgb_scene000165_render000000.png,stimuli/rgb_scene000165_render000003.png,0,96,96,149,"[1, 0]",left,1,22,20,m,y,y,2019_Jul_16_1119,2AFC_task,59.949306863959286,
stimuli/rgb_scene000056_render000000.png,stimuli/rgb_scene000056_render000003.png,0,97,97,44,"[0, 1]",right,1,22,20,m,y,y,2019_Jul_16_1119,2AFC_task,59.949306863959286,
stimuli/rgb_scene000147_render000001.png,stimuli/rgb_scene000147_render000006.png,0,98,98,94,"[0, 1]",right,1,22,20,m,y,y,2019_Jul_16_1119,2AFC_task,59.949306863959286,
stimuli/rgb_scene000066_render000000.png,stimuli/rgb_scene000066_render000001.png,0,99,99,63,"[0, 1]",right,1,22,20,m,y,y,2019_Jul_16_1119,2AFC_task,59.949306863959286,
stimuli/rgb_scene000169_render000000.png,stimuli/rgb_scene000169_render000006.png,0,100,100,173,"[1, 0]",left,1,22,20,m,y,y,2019_Jul_16_1119,2AFC_task,59.949306863959286,
stimuli/rgb_scene000196_render000000.png,stimuli/rgb_scene000196_render000003.png,0,101,101,191,"[0, 1]",right,1,22,20,m,y,y,2019_Jul_16_1119,2AFC_task,59.949306863959286,
stimuli/rgb_scene000056_render000001.png,stimuli/rgb_scene000056_render000003.png,0,102,102,49,"[0, 1]",right,1,22,20,m,y,y,2019_Jul_16_1119,2AFC_task,59.949306863959286,
stimuli/rgb_scene000160_render000002.png,stimuli/rgb_scene000160_render000005.png,0,103,103,139,"[0, 1]",right,1,22,20,m,y,y,2019_Jul_16_1119,2AFC_task,59.949306863959286,
stimuli/rgb_scene000196_render000001.png,stimuli/rgb_scene000196_render000002.png,0,104,104,195,"[1, 0]",left,1,22,20,m,y,y,2019_Jul_16_1119,2AFC_task,59.949306863959286,
stimuli/rgb_scene000169_render000002.png,stimuli/rgb_scene000169_render000006.png,0,105,105,182,"[1, 0]",left,1,22,20,m,y,y,2019_Jul_16_1119,2AFC_task,59.949306863959286,
stimuli/rgb_scene000169_render000001.png,stimuli/rgb_scene000169_render000003.png,0,106,106,175,"[1, 0]",left,1,22,20,m,y,y,2019_Jul_16_1119,2AFC_task,59.949306863959286,
stimuli/rgb_scene000147_render000003.png,stimuli/rgb_scene000147_render000004.png,0,107,107,99,"[0, 1]",right,1,22,20,m,y,y,2019_Jul_16_1119,2AFC_task,59.949306863959286,
stimuli/rgb_scene000160_render000000.png,stimuli/rgb_scene000160_render000005.png,0,108,108,130,"[0, 1]",right,1,22,20,m,y,y,2019_Jul_16_1119,2AFC_task,59.949306863959286,
stimuli/rgb_scene000042_render000000.png,stimuli/rgb_scene000042_render000006.png,0,109,109,5,"[0, 1]",right,1,22,20,m,y,y,2019_Jul_16_1119,2AFC_task,59.949306863959286,
stimuli/rgb_scene000047_render000000.png,stimuli/rgb_scene000047_render000002.png,0,110,110,22,"[0, 1]",right,1,22,20,m,y,y,2019_Jul_16_1119,2AFC_task,59.949306863959286,
stimuli/rgb_scene000056_render000001.png,stimuli/rgb_scene000056_render000005.png,0,111,111,51,"[0, 1]",right,1,22,20,m,y,y,2019_Jul_16_1119,2AFC_task,59.949306863959286,
stimuli/rgb_scene000165_render000003.png,stimuli/rgb_scene000165_render000005.png,0,112,112,163,"[0, 1]",right,1,22,20,m,y,y,2019_Jul_16_1119,2AFC_task,59.949306863959286,
stimuli/rgb_scene000150_render000003.png,stimuli/rgb_scene000150_render000005.png,0,113,113,121,"[0, 1]",right,1,22,20,m,y,y,2019_Jul_16_1119,2AFC_task,59.949306863959286,
stimuli/rgb_scene000150_render000002.png,stimuli/rgb_scene000150_render000005.png,0,114,114,118,"[1, 0]",left,1,22,20,m,y,y,2019_Jul_16_1119,2AFC_task,59.949306863959286,
stimuli/rgb_scene000047_render000002.png,stimuli/rgb_scene000047_render000006.png,0,115,115,35,"[0, 1]",right,1,22,20,m,y,y,2019_Jul_16_1119,2AFC_task,59.949306863959286,
stimuli/rgb_scene000196_render000003.png,stimuli/rgb_scene000196_render000006.png,0,116,116,206,"[0, 1]",right,1,22,20,m,y,y,2019_Jul_16_1119,2AFC_task,59.949306863959286,
stimuli/rgb_scene000047_render000002.png,stimuli/rgb_scene000047_render000005.png,0,117,117,34,"[1, 0]",left,1,22,20,m,y,y,2019_Jul_16_1119,2AFC_task,59.949306863959286,
stimuli/rgb_scene000056_render000003.png,stimuli/rgb_scene000056_render000005.png,0,118,118,58,"[0, 1]",right,1,22,20,m,y,y,2019_Jul_16_1119,2AFC_task,59.949306863959286,
stimuli/rgb_scene000066_render000005.png,stimuli/rgb_scene000066_render000006.png,0,119,119,83,"[0, 1]",right,1,22,20,m,y,y,2019_Jul_16_1119,2AFC_task,59.949306863959286,
stimuli/rgb_scene000042_render000000.png,stimuli/rgb_scene000042_render000002.png,0,120,120,1,"[1, 0]",left,1,22,20,m,y,y,2019_Jul_16_1119,2AFC_task,59.949306863959286,
stimuli/rgb_scene000165_render000002.png,stimuli/rgb_scene000165_render000004.png,0,121,121,159,"[1, 0]",left,1,22,20,m,y,y,2019_Jul_16_1119,2AFC_task,59.949306863959286,
stimuli/rgb_scene000147_render000000.png,stimuli/rgb_scene000147_render000005.png,0,122,122,88,"[1, 0]",left,1,22,20,m,y,y,2019_Jul_16_1119,2AFC_task,59.949306863959286,
stimuli/rgb_scene000056_render000000.png,stimuli/rgb_scene000056_render000002.png,0,123,123,43,"[1, 0]",left,1,22,20,m,y,y,2019_Jul_16_1119,2AFC_task,59.949306863959286,
stimuli/rgb_scene000160_render000000.png,stimuli/rgb_scene000160_render000002.png,0,124,124,127,"[1, 0]",left,1,22,20,m,y,y,2019_Jul_16_1119,2AFC_task,59.949306863959286,
stimuli/rgb_scene000150_render000002.png,stimuli/rgb_scene000150_render000006.png,0,125,125,119,"[1, 0]",left,1,22,20,m,y,y,2019_Jul_16_1119,2AFC_task,59.949306863959286,
stimuli/rgb_scene000150_render000001.png,stimuli/rgb_scene000150_render000003.png,0,126,126,112,"[1, 0]",left,1,22,20,m,y,y,2019_Jul_16_1119,2AFC_task,59.949306863959286,
stimuli/rgb_scene000150_render000004.png,stimuli/rgb_scene000150_render000005.png,0,127,127,123,"[1, 0]",left,1,22,20,m,y,y,2019_Jul_16_1119,2AFC_task,59.949306863959286,
stimuli/rgb_scene000169_render000000.png,stimuli/rgb_scene000169_render000001.png,0,128,128,168,"[1, 0]",right,0,22,20,m,y,y,2019_Jul_16_1119,2AFC_task,59.949306863959286,
stimuli/rgb_scene000160_render000004.png,stimuli/rgb_scene000160_render000005.png,0,129,129,144,"[0, 1]",right,1,22,20,m,y,y,2019_Jul_16_1119,2AFC_task,59.949306863959286,
stimuli/rgb_scene000160_render000003.png,stimuli/rgb_scene000160_render000006.png,0,130,130,143,"[0, 1]",right,1,22,20,m,y,y,2019_Jul_16_1119,2AFC_task,59.949306863959286,
stimuli/rgb_scene000056_render000000.png,stimuli/rgb_scene000056_render000006.png,0,131,131,47,"[1, 0]",left,1,22,20,m,y,y,2019_Jul_16_1119,2AFC_task,59.949306863959286,
stimuli/rgb_scene000047_render000000.png,stimuli/rgb_scene000047_render000001.png,0,132,132,21,"[1, 0]",left,1,22,20,m,y,y,2019_Jul_16_1119,2AFC_task,59.949306863959286,
stimuli/rgb_scene000066_render000001.png,stimuli/rgb_scene000066_render000005.png,0,133,133,72,"[0, 1]",right,1,22,20,m,y,y,2019_Jul_16_1119,2AFC_task,59.949306863959286,
stimuli/rgb_scene000047_render000001.png,stimuli/rgb_scene000047_render000006.png,0,134,134,31,"[0, 1]",right,1,22,20,m,y,y,2019_Jul_16_1119,2AFC_task,59.949306863959286,
stimuli/rgb_scene000165_render000001.png,stimuli/rgb_scene000165_render000006.png,0,135,135,157,"[1, 0]",left,1,22,20,m,y,y,2019_Jul_16_1119,2AFC_task,59.949306863959286,
stimuli/rgb_scene000150_render000000.png,stimuli/rgb_scene000150_render000005.png,0,136,136,109,"[0, 1]",right,1,22,20,m,y,y,2019_Jul_16_1119,2AFC_task,59.949306863959286,
stimuli/rgb_scene000160_render000000.png,stimuli/rgb_scene000160_render000004.png,0,137,137,129,"[0, 1]",right,1,22,20,m,y,y,2019_Jul_16_1119,2AFC_task,59.949306863959286,
stimuli/rgb_scene000042_render000004.png,stimuli/rgb_scene000042_render000006.png,0,138,138,19,"[0, 1]",right,1,22,20,m,y,y,2019_Jul_16_1119,2AFC_task,59.949306863959286,
stimuli/rgb_scene000150_render000001.png,stimuli/rgb_scene000150_render000005.png,0,139,139,114,"[1, 0]",left,1,22,20,m,y,y,2019_Jul_16_1119,2AFC_task,59.949306863959286,
stimuli/rgb_scene000147_render000001.png,stimuli/rgb_scene000147_render000003.png,0,140,140,91,"[0, 1]",right,1,22,20,m,y,y,2019_Jul_16_1119,2AFC_task,59.949306863959286,
stimuli/rgb_scene000066_render000001.png,stimuli/rgb_scene000066_render000002.png,0,141,141,69,"[1, 0]",left,1,22,20,m,y,y,2019_Jul_16_1119,2AFC_task,59.949306863959286,
stimuli/rgb_scene000047_render000003.png,stimuli/rgb_scene000047_render000004.png,0,142,142,36,"[1, 0]",left,1,22,20,m,y,y,2019_Jul_16_1119,2AFC_task,59.949306863959286,
stimuli/rgb_scene000056_render000002.png,stimuli/rgb_scene000056_render000005.png,0,143,143,55,"[0, 1]",right,1,22,20,m,y,y,2019_Jul_16_1119,2AFC_task,59.949306863959286,
stimuli/rgb_scene000196_render000003.png,stimuli/rgb_scene000196_render000004.png,0,144,144,204,"[0, 1]",right,1,22,20,m,y,y,2019_Jul_16_1119,2AFC_task,59.949306863959286,
stimuli/rgb_scene000169_render000005.png,stimuli/rgb_scene000169_render000006.png,0,145,145,188,"[0, 1]",right,1,22,20,m,y,y,2019_Jul_16_1119,2AFC_task,59.949306863959286,
stimuli/rgb_scene000066_render000002.png,stimuli/rgb_scene000066_render000004.png,0,146,146,75,"[1, 0]",left,1,22,20,m,y,y,2019_Jul_16_1119,2AFC_task,59.949306863959286,
stimuli/rgb_scene000047_render000001.png,stimuli/rgb_scene000047_render000002.png,0,147,147,27,"[0, 1]",right,1,22,20,m,y,y,2019_Jul_16_1119,2AFC_task,59.949306863959286,
stimuli/rgb_scene000042_render000001.png,stimuli/rgb_scene000042_render000003.png,0,148,148,7,"[0, 1]",right,1,22,20,m,y,y,2019_Jul_16_1119,2AFC_task,59.949306863959286,
stimuli/rgb_scene000056_render000001.png,stimuli/rgb_scene000056_render000004.png,0,149,149,50,"[1, 0]",left,1,22,20,m,y,y,2019_Jul_16_1119,2AFC_task,59.949306863959286,
stimuli/rgb_scene000056_render000001.png,stimuli/rgb_scene000056_render000006.png,0,150,150,52,"[0, 1]",right,1,22,20,m,y,y,2019_Jul_16_1119,2AFC_task,59.949306863959286,
stimuli/rgb_scene000169_render000000.png,stimuli/rgb_scene000169_render000005.png,0,151,151,172,"[1, 0]",left,1,22,20,m,y,y,2019_Jul_16_1119,2AFC_task,59.949306863959286,
stimuli/rgb_scene000196_render000001.png,stimuli/rgb_scene000196_render000005.png,0,152,152,198,"[0, 1]",right,1,22,20,m,y,y,2019_Jul_16_1119,2AFC_task,59.949306863959286,
stimuli/rgb_scene000056_render000004.png,stimuli/rgb_scene000056_render000005.png,0,153,153,60,"[0, 1]",right,1,22,20,m,y,y,2019_Jul_16_1119,2AFC_task,59.949306863959286,
stimuli/rgb_scene000165_render000000.png,stimuli/rgb_scene000165_render000002.png,0,154,154,148,"[1, 0]",left,1,22,20,m,y,y,2019_Jul_16_1119,2AFC_task,59.949306863959286,
stimuli/rgb_scene000160_render000001.png,stimuli/rgb_scene000160_render000006.png,0,155,155,136,"[0, 1]",right,1,22,20,m,y,y,2019_Jul_16_1119,2AFC_task,59.949306863959286,
stimuli/rgb_scene000056_render000002.png,stimuli/rgb_scene000056_render000006.png,0,156,156,56,"[0, 1]",right,1,22,20,m,y,y,2019_Jul_16_1119,2AFC_task,59.949306863959286,
stimuli/rgb_scene000042_render000003.png,stimuli/rgb_scene000042_render000006.png,0,157,157,17,"[0, 1]",right,1,22,20,m,y,y,2019_Jul_16_1119,2AFC_task,59.949306863959286,
stimuli/rgb_scene000056_render000000.png,stimuli/rgb_scene000056_render000005.png,0,158,158,46,"[0, 1]",right,1,22,20,m,y,y,2019_Jul_16_1119,2AFC_task,59.949306863959286,
stimuli/rgb_scene000047_render000003.png,stimuli/rgb_scene000047_render000005.png,0,159,159,37,"[0, 1]",right,1,22,20,m,y,y,2019_Jul_16_1119,2AFC_task,59.949306863959286,
stimuli/rgb_scene000169_render000001.png,stimuli/rgb_scene000169_render000005.png,0,160,160,177,"[1, 0]",left,1,22,20,m,y,y,2019_Jul_16_1119,2AFC_task,59.949306863959286,
stimuli/rgb_scene000042_render000002.png,stimuli/rgb_scene000042_render000005.png,0,161,161,13,"[0, 1]",right,1,22,20,m,y,y,2019_Jul_16_1119,2AFC_task,59.949306863959286,
stimuli/rgb_scene000042_render000001.png,stimuli/rgb_scene000042_render000006.png,0,162,162,10,"[0, 1]",right,1,22,20,m,y,y,2019_Jul_16_1119,2AFC_task,59.949306863959286,
stimuli/rgb_scene000165_render000005.png,stimuli/rgb_scene000165_render000006.png,0,163,163,167,"[1, 0]",left,1,22,20,m,y,y,2019_Jul_16_1119,2AFC_task,59.949306863959286,
stimuli/rgb_scene000150_render000000.png,stimuli/rgb_scene000150_render000001.png,0,164,164,105,"[1, 0]",left,1,22,20,m,y,y,2019_Jul_16_1119,2AFC_task,59.949306863959286,
stimuli/rgb_scene000196_render000005.png,stimuli/rgb_scene000196_render000006.png,0,165,165,209,"[1, 0]",right,0,22,20,m,y,y,2019_Jul_16_1119,2AFC_task,59.949306863959286,
stimuli/rgb_scene000047_render000000.png,stimuli/rgb_scene000047_render000006.png,0,166,166,26,"[1, 0]",left,1,22,20,m,y,y,2019_Jul_16_1119,2AFC_task,59.949306863959286,
stimuli/rgb_scene000042_render000000.png,stimuli/rgb_scene000042_render000005.png,0,167,167,4,"[1, 0]",left,1,22,20,m,y,y,2019_Jul_16_1119,2AFC_task,59.949306863959286,
stimuli/rgb_scene000196_render000000.png,stimuli/rgb_scene000196_render000002.png,0,168,168,190,"[0, 1]",right,1,22,20,m,y,y,2019_Jul_16_1119,2AFC_task,59.949306863959286,
stimuli/rgb_scene000169_render000003.png,stimuli/rgb_scene000169_render000006.png,0,169,169,185,"[0, 1]",right,1,22,20,m,y,y,2019_Jul_16_1119,2AFC_task,59.949306863959286,
stimuli/rgb_scene000147_render000004.png,stimuli/rgb_scene000147_render000005.png,0,170,170,102,"[0, 1]",right,1,22,20,m,y,y,2019_Jul_16_1119,2AFC_task,59.949306863959286,
stimuli/rgb_scene000047_render000000.png,stimuli/rgb_scene000047_render000004.png,0,171,171,24,"[1, 0]",left,1,22,20,m,y,y,2019_Jul_16_1119,2AFC_task,59.949306863959286,
stimuli/rgb_scene000047_render000001.png,stimuli/rgb_scene000047_render000003.png,0,172,172,28,"[1, 0]",left,1,22,20,m,y,y,2019_Jul_16_1119,2AFC_task,59.949306863959286,
stimuli/rgb_scene000165_render000001.png,stimuli/rgb_scene000165_render000004.png,0,173,173,155,"[1, 0]",left,1,22,20,m,y,y,2019_Jul_16_1119,2AFC_task,59.949306863959286,
stimuli/rgb_scene000150_render000000.png,stimuli/rgb_scene000150_render000003.png,0,174,174,107,"[1, 0]",left,1,22,20,m,y,y,2019_Jul_16_1119,2AFC_task,59.949306863959286,
stimuli/rgb_scene000147_render000002.png,stimuli/rgb_scene000147_render000004.png,0,175,175,96,"[1, 0]",left,1,22,20,m,y,y,2019_Jul_16_1119,2AFC_task,59.949306863959286,
stimuli/rgb_scene000196_render000002.png,stimuli/rgb_scene000196_render000005.png,0,176,176,202,"[1, 0]",right,0,22,20,m,y,y,2019_Jul_16_1119,2AFC_task,59.949306863959286,
stimuli/rgb_scene000150_render000000.png,stimuli/rgb_scene000150_render000006.png,0,177,177,110,"[0, 1]",right,1,22,20,m,y,y,2019_Jul_16_1119,2AFC_task,59.949306863959286,
stimuli/rgb_scene000160_render000002.png,stimuli/rgb_scene000160_render000003.png,0,178,178,137,"[0, 1]",right,1,22,20,m,y,y,2019_Jul_16_1119,2AFC_task,59.949306863959286,
stimuli/rgb_scene000042_render000003.png,stimuli/rgb_scene000042_render000004.png,0,179,179,15,"[0, 1]",right,1,22,20,m,y,y,2019_Jul_16_1119,2AFC_task,59.949306863959286,
stimuli/rgb_scene000150_render000001.png,stimuli/rgb_scene000150_render000004.png,0,180,180,113,"[0, 1]",right,1,22,20,m,y,y,2019_Jul_16_1119,2AFC_task,59.949306863959286,
stimuli/rgb_scene000056_render000002.png,stimuli/rgb_scene000056_render000003.png,0,181,181,53,"[1, 0]",left,1,22,20,m,y,y,2019_Jul_16_1119,2AFC_task,59.949306863959286,
stimuli/rgb_scene000160_render000001.png,stimuli/rgb_scene000160_render000005.png,0,182,182,135,"[0, 1]",right,1,22,20,m,y,y,2019_Jul_16_1119,2AFC_task,59.949306863959286,
stimuli/rgb_scene000150_render000005.png,stimuli/rgb_scene000150_render000006.png,0,183,183,125,"[0, 1]",right,1,22,20,m,y,y,2019_Jul_16_1119,2AFC_task,59.949306863959286,
stimuli/rgb_scene000196_render000001.png,stimuli/rgb_scene000196_render000006.png,0,184,184,199,"[1, 0]",left,1,22,20,m,y,y,2019_Jul_16_1119,2AFC_task,59.949306863959286,
stimuli/rgb_scene000160_render000000.png,stimuli/rgb_scene000160_render000003.png,0,185,185,128,"[1, 0]",left,1,22,20,m,y,y,2019_Jul_16_1119,2AFC_task,59.949306863959286,
stimuli/rgb_scene000169_render000001.png,stimuli/rgb_scene000169_render000006.png,0,186,186,178,"[1, 0]",left,1,22,20,m,y,y,2019_Jul_16_1119,2AFC_task,59.949306863959286,
stimuli/rgb_scene000169_render000002.png,stimuli/rgb_scene000169_render000005.png,0,187,187,181,"[0, 1]",right,1,22,20,m,y,y,2019_Jul_16_1119,2AFC_task,59.949306863959286,
stimuli/rgb_scene000047_render000002.png,stimuli/rgb_scene000047_render000003.png,0,188,188,32,"[1, 0]",left,1,22,20,m,y,y,2019_Jul_16_1119,2AFC_task,59.949306863959286,
stimuli/rgb_scene000042_render000002.png,stimuli/rgb_scene000042_render000003.png,0,189,189,11,"[1, 0]",left,1,22,20,m,y,y,2019_Jul_16_1119,2AFC_task,59.949306863959286,
stimuli/rgb_scene000165_render000000.png,stimuli/rgb_scene000165_render000005.png,0,190,190,151,"[0, 1]",right,1,22,20,m,y,y,2019_Jul_16_1119,2AFC_task,59.949306863959286,
stimuli/rgb_scene000160_render000002.png,stimuli/rgb_scene000160_render000004.png,0,191,191,138,"[0, 1]",right,1,22,20,m,y,y,2019_Jul_16_1119,2AFC_task,59.949306863959286,
stimuli/rgb_scene000169_render000004.png,stimuli/rgb_scene000169_render000005.png,0,192,192,186,"[0, 1]",right,1,22,20,m,y,y,2019_Jul_16_1119,2AFC_task,59.949306863959286,
stimuli/rgb_scene000165_render000000.png,stimuli/rgb_scene000165_render000006.png,0,193,193,152,"[1, 0]",left,1,22,20,m,y,y,2019_Jul_16_1119,2AFC_task,59.949306863959286,
stimuli/rgb_scene000042_render000002.png,stimuli/rgb_scene000042_render000004.png,0,194,194,12,"[0, 1]",right,1,22,20,m,y,y,2019_Jul_16_1119,2AFC_task,59.949306863959286,
stimuli/rgb_scene000042_render000002.png,stimuli/rgb_scene000042_render000006.png,0,195,195,14,"[1, 0]",left,1,22,20,m,y,y,2019_Jul_16_1119,2AFC_task,59.949306863959286,
stimuli/rgb_scene000150_render000000.png,stimuli/rgb_scene000150_render000004.png,0,196,196,108,"[0, 1]",right,1,22,20,m,y,y,2019_Jul_16_1119,2AFC_task,59.949306863959286,
stimuli/rgb_scene000196_render000002.png,stimuli/rgb_scene000196_render000003.png,0,197,197,200,"[1, 0]",left,1,22,20,m,y,y,2019_Jul_16_1119,2AFC_task,59.949306863959286,
stimuli/rgb_scene000147_render000001.png,stimuli/rgb_scene000147_render000002.png,0,198,198,90,"[0, 1]",right,1,22,20,m,y,y,2019_Jul_16_1119,2AFC_task,59.949306863959286,
stimuli/rgb_scene000165_render000002.png,stimuli/rgb_scene000165_render000005.png,0,199,199,160,"[0, 1]",right,1,22,20,m,y,y,2019_Jul_16_1119,2AFC_task,59.949306863959286,
stimuli/rgb_scene000160_render000001.png,stimuli/rgb_scene000160_render000002.png,0,200,200,132,"[0, 1]",right,1,22,20,m,y,y,2019_Jul_16_1119,2AFC_task,59.949306863959286,
stimuli/rgb_scene000066_render000000.png,stimuli/rgb_scene000066_render000002.png,0,201,201,64,"[0, 1]",right,1,22,20,m,y,y,2019_Jul_16_1119,2AFC_task,59.949306863959286,
stimuli/rgb_scene000169_render000000.png,stimuli/rgb_scene000169_render000003.png,0,202,202,170,"[0, 1]",right,1,22,20,m,y,y,2019_Jul_16_1119,2AFC_task,59.949306863959286,
stimuli/rgb_scene000196_render000001.png,stimuli/rgb_scene000196_render000003.png,0,203,203,196,"[1, 0]",left,1,22,20,m,y,y,2019_Jul_16_1119,2AFC_task,59.949306863959286,
stimuli/rgb_scene000169_render000002.png,stimuli/rgb_scene000169_render000004.png,0,204,204,180,"[1, 0]",left,1,22,20,m,y,y,2019_Jul_16_1119,2AFC_task,59.949306863959286,
stimuli/rgb_scene000165_render000000.png,stimuli/rgb_scene000165_render000001.png,0,205,205,147,"[1, 0]",left,1,22,20,m,y,y,2019_Jul_16_1119,2AFC_task,59.949306863959286,
stimuli/rgb_scene000196_render000000.png,stimuli/rgb_scene000196_render000004.png,0,206,206,192,"[0, 1]",right,1,22,20,m,y,y,2019_Jul_16_1119,2AFC_task,59.949306863959286,
stimuli/rgb_scene000147_render000005.png,stimuli/rgb_scene000147_render000006.png,0,207,207,104,"[1, 0]",left,1,22,20,m,y,y,2019_Jul_16_1119,2AFC_task,59.949306863959286,
stimuli/rgb_scene000042_render000004.png,stimuli/rgb_scene000042_render000005.png,0,208,208,18,"[1, 0]",left,1,22,20,m,y,y,2019_Jul_16_1119,2AFC_task,59.949306863959286,
stimuli/rgb_scene000160_render000004.png,stimuli/rgb_scene000160_render000006.png,0,209,209,145,"[0, 1]",right,1,22,20,m,y,y,2019_Jul_16_1119,2AFC_task,59.949306863959286,
stimuli/rgb_scene000169_render000000.png,stimuli/rgb_scene000169_render000001.png,1,0,210,168,"[1, 0]",left,1,22,20,m,y,y,2019_Jul_16_1119,2AFC_task,59.949306863959286,
stimuli/rgb_scene000169_render000001.png,stimuli/rgb_scene000169_render000005.png,1,1,211,177,"[0, 1]",right,1,22,20,m,y,y,2019_Jul_16_1119,2AFC_task,59.949306863959286,
stimuli/rgb_scene000047_render000000.png,stimuli/rgb_scene000047_render000001.png,1,2,212,21,"[1, 0]",left,1,22,20,m,y,y,2019_Jul_16_1119,2AFC_task,59.949306863959286,
stimuli/rgb_scene000066_render000000.png,stimuli/rgb_scene000066_render000001.png,1,3,213,63,"[0, 1]",right,1,22,20,m,y,y,2019_Jul_16_1119,2AFC_task,59.949306863959286,
stimuli/rgb_scene000165_render000004.png,stimuli/rgb_scene000165_render000006.png,1,4,214,166,"[1, 0]",left,1,22,20,m,y,y,2019_Jul_16_1119,2AFC_task,59.949306863959286,
stimuli/rgb_scene000169_render000001.png,stimuli/rgb_scene000169_render000003.png,1,5,215,175,"[1, 0]",left,1,22,20,m,y,y,2019_Jul_16_1119,2AFC_task,59.949306863959286,
stimuli/rgb_scene000056_render000004.png,stimuli/rgb_scene000056_render000006.png,1,6,216,61,"[1, 0]",left,1,22,20,m,y,y,2019_Jul_16_1119,2AFC_task,59.949306863959286,
stimuli/rgb_scene000056_render000000.png,stimuli/rgb_scene000056_render000005.png,1,7,217,46,"[0, 1]",right,1,22,20,m,y,y,2019_Jul_16_1119,2AFC_task,59.949306863959286,
stimuli/rgb_scene000056_render000002.png,stimuli/rgb_scene000056_render000005.png,1,8,218,55,"[1, 0]",left,1,22,20,m,y,y,2019_Jul_16_1119,2AFC_task,59.949306863959286,
stimuli/rgb_scene000066_render000000.png,stimuli/rgb_scene000066_render000004.png,1,9,219,66,"[1, 0]",left,1,22,20,m,y,y,2019_Jul_16_1119,2AFC_task,59.949306863959286,
stimuli/rgb_scene000147_render000003.png,stimuli/rgb_scene000147_render000004.png,1,10,220,99,"[1, 0]",left,1,22,20,m,y,y,2019_Jul_16_1119,2AFC_task,59.949306863959286,
stimuli/rgb_scene000042_render000000.png,stimuli/rgb_scene000042_render000005.png,1,11,221,4,"[1, 0]",left,1,22,20,m,y,y,2019_Jul_16_1119,2AFC_task,59.949306863959286,
stimuli/rgb_scene000196_render000003.png,stimuli/rgb_scene000196_render000005.png,1,12,222,205,"[1, 0]",right,0,22,20,m,y,y,2019_Jul_16_1119,2AFC_task,59.949306863959286,
stimuli/rgb_scene000169_render000002.png,stimuli/rgb_scene000169_render000003.png,1,13,223,179,"[0, 1]",right,1,22,20,m,y,y,2019_Jul_16_1119,2AFC_task,59.949306863959286,
stimuli/rgb_scene000169_render000001.png,stimuli/rgb_scene000169_render000006.png,1,14,224,178,"[1, 0]",left,1,22,20,m,y,y,2019_Jul_16_1119,2AFC_task,59.949306863959286,
stimuli/rgb_scene000147_render000000.png,stimuli/rgb_scene000147_render000004.png,1,15,225,87,"[0, 1]",right,1,22,20,m,y,y,2019_Jul_16_1119,2AFC_task,59.949306863959286,
stimuli/rgb_scene000169_render000003.png,stimuli/rgb_scene000169_render000006.png,1,16,226,185,"[0, 1]",right,1,22,20,m,y,y,2019_Jul_16_1119,2AFC_task,59.949306863959286,
stimuli/rgb_scene000042_render000000.png,stimuli/rgb_scene000042_render000003.png,1,17,227,2,"[0, 1]",right,1,22,20,m,y,y,2019_Jul_16_1119,2AFC_task,59.949306863959286,
stimuli/rgb_scene000160_render000005.png,stimuli/rgb_scene000160_render000006.png,1,18,228,146,"[1, 0]",left,1,22,20,m,y,y,2019_Jul_16_1119,2AFC_task,59.949306863959286,
stimuli/rgb_scene000169_render000004.png,stimuli/rgb_scene000169_render000006.png,1,19,229,187,"[0, 1]",right,1,22,20,m,y,y,2019_Jul_16_1119,2AFC_task,59.949306863959286,
stimuli/rgb_scene000056_render000001.png,stimuli/rgb_scene000056_render000003.png,1,20,230,49,"[0, 1]",right,1,22,20,m,y,y,2019_Jul_16_1119,2AFC_task,59.949306863959286,
stimuli/rgb_scene000042_render000002.png,stimuli/rgb_scene000042_render000003.png,1,21,231,11,"[0, 1]",right,1,22,20,m,y,y,2019_Jul_16_1119,2AFC_task,59.949306863959286,
stimuli/rgb_scene000150_render000000.png,stimuli/rgb_scene000150_render000005.png,1,22,232,109,"[0, 1]",right,1,22,20,m,y,y,2019_Jul_16_1119,2AFC_task,59.949306863959286,
stimuli/rgb_scene000169_render000005.png,stimuli/rgb_scene000169_render000006.png,1,23,233,188,"[0, 1]",right,1,22,20,m,y,y,2019_Jul_16_1119,2AFC_task,59.949306863959286,
stimuli/rgb_scene000047_render000004.png,stimuli/rgb_scene000047_render000006.png,1,24,234,40,"[0, 1]",right,1,22,20,m,y,y,2019_Jul_16_1119,2AFC_task,59.949306863959286,
stimuli/rgb_scene000042_render000000.png,stimuli/rgb_scene000042_render000006.png,1,25,235,5,"[1, 0]",left,1,22,20,m,y,y,2019_Jul_16_1119,2AFC_task,59.949306863959286,
stimuli/rgb_scene000196_render000000.png,stimuli/rgb_scene000196_render000006.png,1,26,236,194,"[1, 0]",left,1,22,20,m,y,y,2019_Jul_16_1119,2AFC_task,59.949306863959286,
stimuli/rgb_scene000196_render000001.png,stimuli/rgb_scene000196_render000002.png,1,27,237,195,"[0, 1]",right,1,22,20,m,y,y,2019_Jul_16_1119,2AFC_task,59.949306863959286,
stimuli/rgb_scene000169_render000003.png,stimuli/rgb_scene000169_render000005.png,1,28,238,184,"[0, 1]",right,1,22,20,m,y,y,2019_Jul_16_1119,2AFC_task,59.949306863959286,
stimuli/rgb_scene000147_render000005.png,stimuli/rgb_scene000147_render000006.png,1,29,239,104,"[0, 1]",right,1,22,20,m,y,y,2019_Jul_16_1119,2AFC_task,59.949306863959286,
stimuli/rgb_scene000066_render000002.png,stimuli/rgb_scene000066_render000005.png,1,30,240,76,"[1, 0]",left,1,22,20,m,y,y,2019_Jul_16_1119,2AFC_task,59.949306863959286,
stimuli/rgb_scene000042_render000002.png,stimuli/rgb_scene000042_render000006.png,1,31,241,14,"[0, 1]",right,1,22,20,m,y,y,2019_Jul_16_1119,2AFC_task,59.949306863959286,
stimuli/rgb_scene000147_render000002.png,stimuli/rgb_scene000147_render000006.png,1,32,242,98,"[1, 0]",left,1,22,20,m,y,y,2019_Jul_16_1119,2AFC_task,59.949306863959286,
stimuli/rgb_scene000066_render000001.png,stimuli/rgb_scene000066_render000002.png,1,33,243,69,"[1, 0]",left,1,22,20,m,y,y,2019_Jul_16_1119,2AFC_task,59.949306863959286,
stimuli/rgb_scene000150_render000002.png,stimuli/rgb_scene000150_render000003.png,1,34,244,116,"[0, 1]",right,1,22,20,m,y,y,2019_Jul_16_1119,2AFC_task,59.949306863959286,
stimuli/rgb_scene000047_render000003.png,stimuli/rgb_scene000047_render000004.png,1,35,245,36,"[1, 0]",left,1,22,20,m,y,y,2019_Jul_16_1119,2AFC_task,59.949306863959286,
stimuli/rgb_scene000196_render000003.png,stimuli/rgb_scene000196_render000006.png,1,36,246,206,"[1, 0]",right,0,22,20,m,y,y,2019_Jul_16_1119,2AFC_task,59.949306863959286,
stimuli/rgb_scene000196_render000002.png,stimuli/rgb_scene000196_render000005.png,1,37,247,202,"[1, 0]",right,0,22,20,m,y,y,2019_Jul_16_1119,2AFC_task,59.949306863959286,
stimuli/rgb_scene000066_render000000.png,stimuli/rgb_scene000066_render000005.png,1,38,248,67,"[1, 0]",left,1,22,20,m,y,y,2019_Jul_16_1119,2AFC_task,59.949306863959286,
stimuli/rgb_scene000066_render000005.png,stimuli/rgb_scene000066_render000006.png,1,39,249,83,"[0, 1]",right,1,22,20,m,y,y,2019_Jul_16_1119,2AFC_task,59.949306863959286,
stimuli/rgb_scene000056_render000000.png,stimuli/rgb_scene000056_render000003.png,1,40,250,44,"[1, 0]",left,1,22,20,m,y,y,2019_Jul_16_1119,2AFC_task,59.949306863959286,
stimuli/rgb_scene000056_render000002.png,stimuli/rgb_scene000056_render000003.png,1,41,251,53,"[0, 1]",right,1,22,20,m,y,y,2019_Jul_16_1119,2AFC_task,59.949306863959286,
stimuli/rgb_scene000042_render000003.png,stimuli/rgb_scene000042_render000004.png,1,42,252,15,"[0, 1]",right,1,22,20,m,y,y,2019_Jul_16_1119,2AFC_task,59.949306863959286,
stimuli/rgb_scene000160_render000001.png,stimuli/rgb_scene000160_render000002.png,1,43,253,132,"[1, 0]",left,1,22,20,m,y,y,2019_Jul_16_1119,2AFC_task,59.949306863959286,
stimuli/rgb_scene000042_render000003.png,stimuli/rgb_scene000042_render000005.png,1,44,254,16,"[0, 1]",right,1,22,20,m,y,y,2019_Jul_16_1119,2AFC_task,59.949306863959286,
stimuli/rgb_scene000196_render000002.png,stimuli/rgb_scene000196_render000004.png,1,45,255,201,"[0, 1]",right,1,22,20,m,y,y,2019_Jul_16_1119,2AFC_task,59.949306863959286,
stimuli/rgb_scene000160_render000003.png,stimuli/rgb_scene000160_render000006.png,1,46,256,143,"[0, 1]",right,1,22,20,m,y,y,2019_Jul_16_1119,2AFC_task,59.949306863959286,
stimuli/rgb_scene000160_render000000.png,stimuli/rgb_scene000160_render000005.png,1,47,257,130,"[0, 1]",right,1,22,20,m,y,y,2019_Jul_16_1119,2AFC_task,59.949306863959286,
stimuli/rgb_scene000066_render000001.png,stimuli/rgb_scene000066_render000005.png,1,48,258,72,"[1, 0]",left,1,22,20,m,y,y,2019_Jul_16_1119,2AFC_task,59.949306863959286,
stimuli/rgb_scene000160_render000001.png,stimuli/rgb_scene000160_render000003.png,1,49,259,133,"[1, 0]",left,1,22,20,m,y,y,2019_Jul_16_1119,2AFC_task,59.949306863959286,
stimuli/rgb_scene000196_render000003.png,stimuli/rgb_scene000196_render000004.png,1,50,260,204,"[1, 0]",right,0,22,20,m,y,y,2019_Jul_16_1119,2AFC_task,59.949306863959286,
stimuli/rgb_scene000047_render000004.png,stimuli/rgb_scene000047_render000005.png,1,51,261,39,"[1, 0]",left,1,22,20,m,y,y,2019_Jul_16_1119,2AFC_task,59.949306863959286,
stimuli/rgb_scene000160_render000000.png,stimuli/rgb_scene000160_render000004.png,1,52,262,129,"[0, 1]",right,1,22,20,m,y,y,2019_Jul_16_1119,2AFC_task,59.949306863959286,
stimuli/rgb_scene000047_render000000.png,stimuli/rgb_scene000047_render000003.png,1,53,263,23,"[0, 1]",right,1,22,20,m,y,y,2019_Jul_16_1119,2AFC_task,59.949306863959286,
stimuli/rgb_scene000196_render000001.png,stimuli/rgb_scene000196_render000004.png,1,54,264,197,"[1, 0]",left,1,22,20,m,y,y,2019_Jul_16_1119,2AFC_task,59.949306863959286,
stimuli/rgb_scene000147_render000003.png,stimuli/rgb_scene000147_render000005.png,1,55,265,100,"[0, 1]",right,1,22,20,m,y,y,2019_Jul_16_1119,2AFC_task,59.949306863959286,
stimuli/rgb_scene000066_render000002.png,stimuli/rgb_scene000066_render000004.png,1,56,266,75,"[0, 1]",right,1,22,20,m,y,y,2019_Jul_16_1119,2AFC_task,59.949306863959286,
stimuli/rgb_scene000056_render000001.png,stimuli/rgb_scene000056_render000002.png,1,57,267,48,"[0, 1]",right,1,22,20,m,y,y,2019_Jul_16_1119,2AFC_task,59.949306863959286,
stimuli/rgb_scene000160_render000000.png,stimuli/rgb_scene000160_render000002.png,1,58,268,127,"[1, 0]",left,1,22,20,m,y,y,2019_Jul_16_1119,2AFC_task,59.949306863959286,
stimuli/rgb_scene000150_render000001.png,stimuli/rgb_scene000150_render000005.png,1,59,269,114,"[1, 0]",left,1,22,20,m,y,y,2019_Jul_16_1119,2AFC_task,59.949306863959286,
stimuli/rgb_scene000196_render000001.png,stimuli/rgb_scene000196_render000005.png,1,60,270,198,"[0, 1]",right,1,22,20,m,y,y,2019_Jul_16_1119,2AFC_task,59.949306863959286,
stimuli/rgb_scene000042_render000001.png,stimuli/rgb_scene000042_render000002.png,1,61,271,6,"[1, 0]",left,1,22,20,m,y,y,2019_Jul_16_1119,2AFC_task,59.949306863959286,
stimuli/rgb_scene000196_render000001.png,stimuli/rgb_scene000196_render000003.png,1,62,272,196,"[1, 0]",left,1,22,20,m,y,y,2019_Jul_16_1119,2AFC_task,59.949306863959286,
stimuli/rgb_scene000165_render000003.png,stimuli/rgb_scene000165_render000004.png,1,63,273,162,"[1, 0]",left,1,22,20,m,y,y,2019_Jul_16_1119,2AFC_task,59.949306863959286,
stimuli/rgb_scene000047_render000001.png,stimuli/rgb_scene000047_render000005.png,1,64,274,30,"[1, 0]",left,1,22,20,m,y,y,2019_Jul_16_1119,2AFC_task,59.949306863959286,
stimuli/rgb_scene000150_render000000.png,stimuli/rgb_scene000150_render000003.png,1,65,275,107,"[0, 1]",right,1,22,20,m,y,y,2019_Jul_16_1119,2AFC_task,59.949306863959286,
stimuli/rgb_scene000165_render000001.png,stimuli/rgb_scene000165_render000003.png,1,66,276,154,"[0, 1]",right,1,22,20,m,y,y,2019_Jul_16_1119,2AFC_task,59.949306863959286,
stimuli/rgb_scene000169_render000002.png,stimuli/rgb_scene000169_render000004.png,1,67,277,180,"[1, 0]",left,1,22,20,m,y,y,2019_Jul_16_1119,2AFC_task,59.949306863959286,
stimuli/rgb_scene000042_render000001.png,stimuli/rgb_scene000042_render000006.png,1,68,278,10,"[0, 1]",right,1,22,20,m,y,y,2019_Jul_16_1119,2AFC_task,59.949306863959286,
stimuli/rgb_scene000169_render000002.png,stimuli/rgb_scene000169_render000005.png,1,69,279,181,"[1, 0]",left,1,22,20,m,y,y,2019_Jul_16_1119,2AFC_task,59.949306863959286,
stimuli/rgb_scene000047_render000002.png,stimuli/rgb_scene000047_render000003.png,1,70,280,32,"[1, 0]",left,1,22,20,m,y,y,2019_Jul_16_1119,2AFC_task,59.949306863959286,
stimuli/rgb_scene000165_render000002.png,stimuli/rgb_scene000165_render000003.png,1,71,281,158,"[0, 1]",right,1,22,20,m,y,y,2019_Jul_16_1119,2AFC_task,59.949306863959286,
stimuli/rgb_scene000056_render000000.png,stimuli/rgb_scene000056_render000002.png,1,72,282,43,"[1, 0]",left,1,22,20,m,y,y,2019_Jul_16_1119,2AFC_task,59.949306863959286,
stimuli/rgb_scene000160_render000000.png,stimuli/rgb_scene000160_render000006.png,1,73,283,131,"[1, 0]",left,1,22,20,m,y,y,2019_Jul_16_1119,2AFC_task,59.949306863959286,
stimuli/rgb_scene000196_render000000.png,stimuli/rgb_scene000196_render000001.png,1,74,284,189,"[0, 1]",right,1,22,20,m,y,y,2019_Jul_16_1119,2AFC_task,59.949306863959286,
stimuli/rgb_scene000165_render000000.png,stimuli/rgb_scene000165_render000006.png,1,75,285,152,"[0, 1]",right,1,22,20,m,y,y,2019_Jul_16_1119,2AFC_task,59.949306863959286,
stimuli/rgb_scene000165_render000002.png,stimuli/rgb_scene000165_render000004.png,1,76,286,159,"[0, 1]",right,1,22,20,m,y,y,2019_Jul_16_1119,2AFC_task,59.949306863959286,
stimuli/rgb_scene000047_render000001.png,stimuli/rgb_scene000047_render000006.png,1,77,287,31,"[1, 0]",left,1,22,20,m,y,y,2019_Jul_16_1119,2AFC_task,59.949306863959286,
stimuli/rgb_scene000165_render000003.png,stimuli/rgb_scene000165_render000005.png,1,78,288,163,"[1, 0]",left,1,22,20,m,y,y,2019_Jul_16_1119,2AFC_task,59.949306863959286,
stimuli/rgb_scene000165_render000000.png,stimuli/rgb_scene000165_render000004.png,1,79,289,150,"[1, 0]",left,1,22,20,m,y,y,2019_Jul_16_1119,2AFC_task,59.949306863959286,
stimuli/rgb_scene000056_render000003.png,stimuli/rgb_scene000056_render000006.png,1,80,290,59,"[0, 1]",right,1,22,20,m,y,y,2019_Jul_16_1119,2AFC_task,59.949306863959286,
stimuli/rgb_scene000150_render000001.png,stimuli/rgb_scene000150_render000002.png,1,81,291,111,"[1, 0]",left,1,22,20,m,y,y,2019_Jul_16_1119,2AFC_task,59.949306863959286,
stimuli/rgb_scene000066_render000002.png,stimuli/rgb_scene000066_render000006.png,1,82,292,77,"[0, 1]",right,1,22,20,m,y,y,2019_Jul_16_1119,2AFC_task,59.949306863959286,
stimuli/rgb_scene000160_render000000.png,stimuli/rgb_scene000160_render000001.png,1,83,293,126,"[0, 1]",right,1,22,20,m,y,y,2019_Jul_16_1119,2AFC_task,59.949306863959286,
stimuli/rgb_scene000150_render000004.png,stimuli/rgb_scene000150_render000006.png,1,84,294,124,"[1, 0]",left,1,22,20,m,y,y,2019_Jul_16_1119,2AFC_task,59.949306863959286,
stimuli/rgb_scene000169_render000000.png,stimuli/rgb_scene000169_render000002.png,1,85,295,169,"[0, 1]",right,1,22,20,m,y,y,2019_Jul_16_1119,2AFC_task,59.949306863959286,
stimuli/rgb_scene000150_render000000.png,stimuli/rgb_scene000150_render000004.png,1,86,296,108,"[1, 0]",left,1,22,20,m,y,y,2019_Jul_16_1119,2AFC_task,59.949306863959286,
stimuli/rgb_scene000147_render000003.png,stimuli/rgb_scene000147_render000006.png,1,87,297,101,"[0, 1]",right,1,22,20,m,y,y,2019_Jul_16_1119,2AFC_task,59.949306863959286,
stimuli/rgb_scene000196_render000004.png,stimuli/rgb_scene000196_render000005.png,1,88,298,207,"[1, 0]",right,0,22,20,m,y,y,2019_Jul_16_1119,2AFC_task,59.949306863959286,
stimuli/rgb_scene000165_render000000.png,stimuli/rgb_scene000165_render000001.png,1,89,299,147,"[0, 1]",right,1,22,20,m,y,y,2019_Jul_16_1119,2AFC_task,59.949306863959286,
stimuli/rgb_scene000165_render000002.png,stimuli/rgb_scene000165_render000006.png,1,90,300,161,"[0, 1]",right,1,22,20,m,y,y,2019_Jul_16_1119,2AFC_task,59.949306863959286,
stimuli/rgb_scene000169_render000000.png,stimuli/rgb_scene000169_render000006.png,1,91,301,173,"[1, 0]",left,1,22,20,m,y,y,2019_Jul_16_1119,2AFC_task,59.949306863959286,
stimuli/rgb_scene000042_render000002.png,stimuli/rgb_scene000042_render000004.png,1,92,302,12,"[1, 0]",left,1,22,20,m,y,y,2019_Jul_16_1119,2AFC_task,59.949306863959286,
stimuli/rgb_scene000150_render000003.png,stimuli/rgb_scene000150_render000004.png,1,93,303,120,"[0, 1]",right,1,22,20,m,y,y,2019_Jul_16_1119,2AFC_task,59.949306863959286,
stimuli/rgb_scene000066_render000001.png,stimuli/rgb_scene000066_render000006.png,1,94,304,73,"[1, 0]",left,1,22,20,m,y,y,2019_Jul_16_1119,2AFC_task,59.949306863959286,
stimuli/rgb_scene000150_render000002.png,stimuli/rgb_scene000150_render000004.png,1,95,305,117,"[0, 1]",right,1,22,20,m,y,y,2019_Jul_16_1119,2AFC_task,59.949306863959286,
stimuli/rgb_scene000056_render000005.png,stimuli/rgb_scene000056_render000006.png,1,96,306,62,"[0, 1]",right,1,22,20,m,y,y,2019_Jul_16_1119,2AFC_task,59.949306863959286,
stimuli/rgb_scene000169_render000002.png,stimuli/rgb_scene000169_render000006.png,1,97,307,182,"[1, 0]",left,1,22,20,m,y,y,2019_Jul_16_1119,2AFC_task,59.949306863959286,
stimuli/rgb_scene000047_render000001.png,stimuli/rgb_scene000047_render000004.png,1,98,308,29,"[0, 1]",right,1,22,20,m,y,y,2019_Jul_16_1119,2AFC_task,59.949306863959286,
stimuli/rgb_scene000160_render000004.png,stimuli/rgb_scene000160_render000006.png,1,99,309,145,"[0, 1]",right,1,22,20,m,y,y,2019_Jul_16_1119,2AFC_task,59.949306863959286,
stimuli/rgb_scene000160_render000000.png,stimuli/rgb_scene000160_render000003.png,1,100,310,128,"[1, 0]",left,1,22,20,m,y,y,2019_Jul_16_1119,2AFC_task,59.949306863959286,
stimuli/rgb_scene000047_render000000.png,stimuli/rgb_scene000047_render000005.png,1,101,311,25,"[1, 0]",left,1,22,20,m,y,y,2019_Jul_16_1119,2AFC_task,59.949306863959286,
stimuli/rgb_scene000150_render000004.png,stimuli/rgb_scene000150_render000005.png,1,102,312,123,"[1, 0]",left,1,22,20,m,y,y,2019_Jul_16_1119,2AFC_task,59.949306863959286,
stimuli/rgb_scene000165_render000001.png,stimuli/rgb_scene000165_render000002.png,1,103,313,153,"[1, 0]",left,1,22,20,m,y,y,2019_Jul_16_1119,2AFC_task,59.949306863959286,
stimuli/rgb_scene000196_render000004.png,stimuli/rgb_scene000196_render000006.png,1,104,314,208,"[1, 0]",right,0,22,20,m,y,y,2019_Jul_16_1119,2AFC_task,59.949306863959286,
stimuli/rgb_scene000042_render000000.png,stimuli/rgb_scene000042_render000001.png,1,105,315,0,"[1, 0]",left,1,22,20,m,y,y,2019_Jul_16_1119,2AFC_task,59.949306863959286,
stimuli/rgb_scene000169_render000001.png,stimuli/rgb_scene000169_render000002.png,1,106,316,174,"[1, 0]",left,1,22,20,m,y,y,2019_Jul_16_1119,2AFC_task,59.949306863959286,
stimuli/rgb_scene000042_render000001.png,stimuli/rgb_scene000042_render000005.png,1,107,317,9,"[1, 0]",left,1,22,20,m,y,y,2019_Jul_16_1119,2AFC_task,59.949306863959286,
stimuli/rgb_scene000160_render000002.png,stimuli/rgb_scene000160_render000003.png,1,108,318,137,"[0, 1]",right,1,22,20,m,y,y,2019_Jul_16_1119,2AFC_task,59.949306863959286,
stimuli/rgb_scene000150_render000000.png,stimuli/rgb_scene000150_render000006.png,1,109,319,110,"[0, 1]",right,1,22,20,m,y,y,2019_Jul_16_1119,2AFC_task,59.949306863959286,
stimuli/rgb_scene000066_render000003.png,stimuli/rgb_scene000066_render000004.png,1,110,320,78,"[1, 0]",left,1,22,20,m,y,y,2019_Jul_16_1119,2AFC_task,59.949306863959286,
stimuli/rgb_scene000160_render000001.png,stimuli/rgb_scene000160_render000004.png,1,111,321,134,"[1, 0]",left,1,22,20,m,y,y,2019_Jul_16_1119,2AFC_task,59.949306863959286,
stimuli/rgb_scene000056_render000002.png,stimuli/rgb_scene000056_render000006.png,1,112,322,56,"[1, 0]",left,1,22,20,m,y,y,2019_Jul_16_1119,2AFC_task,59.949306863959286,
stimuli/rgb_scene000165_render000002.png,stimuli/rgb_scene000165_render000005.png,1,113,323,160,"[0, 1]",right,1,22,20,m,y,y,2019_Jul_16_1119,2AFC_task,59.949306863959286,
stimuli/rgb_scene000169_render000001.png,stimuli/rgb_scene000169_render000004.png,1,114,324,176,"[0, 1]",right,1,22,20,m,y,y,2019_Jul_16_1119,2AFC_task,59.949306863959286,
stimuli/rgb_scene000196_render000000.png,stimuli/rgb_scene000196_render000005.png,1,115,325,193,"[0, 1]",right,1,22,20,m,y,y,2019_Jul_16_1119,2AFC_task,59.949306863959286,
stimuli/rgb_scene000165_render000000.png,stimuli/rgb_scene000165_render000005.png,1,116,326,151,"[0, 1]",right,1,22,20,m,y,y,2019_Jul_16_1119,2AFC_task,59.949306863959286,
stimuli/rgb_scene000042_render000004.png,stimuli/rgb_scene000042_render000005.png,1,117,327,18,"[0, 1]",right,1,22,20,m,y,y,2019_Jul_16_1119,2AFC_task,59.949306863959286,
stimuli/rgb_scene000165_render000000.png,stimuli/rgb_scene000165_render000003.png,1,118,328,149,"[0, 1]",right,1,22,20,m,y,y,2019_Jul_16_1119,2AFC_task,59.949306863959286,
stimuli/rgb_scene000042_render000001.png,stimuli/rgb_scene000042_render000003.png,1,119,329,7,"[1, 0]",left,1,22,20,m,y,y,2019_Jul_16_1119,2AFC_task,59.949306863959286,
stimuli/rgb_scene000147_render000000.png,stimuli/rgb_scene000147_render000005.png,1,120,330,88,"[0, 1]",right,1,22,20,m,y,y,2019_Jul_16_1119,2AFC_task,59.949306863959286,
stimuli/rgb_scene000147_render000002.png,stimuli/rgb_scene000147_render000005.png,1,121,331,97,"[0, 1]",right,1,22,20,m,y,y,2019_Jul_16_1119,2AFC_task,59.949306863959286,
stimuli/rgb_scene000160_render000003.png,stimuli/rgb_scene000160_render000004.png,1,122,332,141,"[0, 1]",right,1,22,20,m,y,y,2019_Jul_16_1119,2AFC_task,59.949306863959286,
stimuli/rgb_scene000150_render000001.png,stimuli/rgb_scene000150_render000004.png,1,123,333,113,"[1, 0]",left,1,22,20,m,y,y,2019_Jul_16_1119,2AFC_task,59.949306863959286,
stimuli/rgb_scene000147_render000000.png,stimuli/rgb_scene000147_render000002.png,1,124,334,85,"[0, 1]",right,1,22,20,m,y,y,2019_Jul_16_1119,2AFC_task,59.949306863959286,
stimuli/rgb_scene000056_render000004.png,stimuli/rgb_scene000056_render000005.png,1,125,335,60,"[0, 1]",right,1,22,20,m,y,y,2019_Jul_16_1119,2AFC_task,59.949306863959286,
stimuli/rgb_scene000196_render000000.png,stimuli/rgb_scene000196_render000002.png,1,126,336,190,"[1, 0]",left,1,22,20,m,y,y,2019_Jul_16_1119,2AFC_task,59.949306863959286,
stimuli/rgb_scene000047_render000000.png,stimuli/rgb_scene000047_render000006.png,1,127,337,26,"[1, 0]",left,1,22,20,m,y,y,2019_Jul_16_1119,2AFC_task,59.949306863959286,
stimuli/rgb_scene000042_render000003.png,stimuli/rgb_scene000042_render000006.png,1,128,338,17,"[1, 0]",left,1,22,20,m,y,y,2019_Jul_16_1119,2AFC_task,59.949306863959286,
stimuli/rgb_scene000047_render000005.png,stimuli/rgb_scene000047_render000006.png,1,129,339,41,"[0, 1]",right,1,22,20,m,y,y,2019_Jul_16_1119,2AFC_task,59.949306863959286,
stimuli/rgb_scene000066_render000002.png,stimuli/rgb_scene000066_render000003.png,1,130,340,74,"[1, 0]",left,1,22,20,m,y,y,2019_Jul_16_1119,2AFC_task,59.949306863959286,
stimuli/rgb_scene000147_render000002.png,stimuli/rgb_scene000147_render000004.png,1,131,341,96,"[1, 0]",left,1,22,20,m,y,y,2019_Jul_16_1119,2AFC_task,59.949306863959286,
stimuli/rgb_scene000150_render000003.png,stimuli/rgb_scene000150_render000005.png,1,132,342,121,"[0, 1]",right,1,22,20,m,y,y,2019_Jul_16_1119,2AFC_task,59.949306863959286,
stimuli/rgb_scene000047_render000002.png,stimuli/rgb_scene000047_render000004.png,1,133,343,33,"[0, 1]",right,1,22,20,m,y,y,2019_Jul_16_1119,2AFC_task,59.949306863959286,
stimuli/rgb_scene000147_render000001.png,stimuli/rgb_scene000147_render000005.png,1,134,344,93,"[0, 1]",right,1,22,20,m,y,y,2019_Jul_16_1119,2AFC_task,59.949306863959286,
stimuli/rgb_scene000042_render000004.png,stimuli/rgb_scene000042_render000006.png,1,135,345,19,"[1, 0]",left,1,22,20,m,y,y,2019_Jul_16_1119,2AFC_task,59.949306863959286,
stimuli/rgb_scene000147_render000001.png,stimuli/rgb_scene000147_render000006.png,1,136,346,94,"[1, 0]",left,1,22,20,m,y,y,2019_Jul_16_1119,2AFC_task,59.949306863959286,
stimuli/rgb_scene000147_render000004.png,stimuli/rgb_scene000147_render000006.png,1,137,347,103,"[1, 0]",left,1,22,20,m,y,y,2019_Jul_16_1119,2AFC_task,59.949306863959286,
stimuli/rgb_scene000056_render000002.png,stimuli/rgb_scene000056_render000004.png,1,138,348,54,"[1, 0]",left,1,22,20,m,y,y,2019_Jul_16_1119,2AFC_task,59.949306863959286,
stimuli/rgb_scene000150_render000002.png,stimuli/rgb_scene000150_render000006.png,1,139,349,119,"[0, 1]",right,1,22,20,m,y,y,2019_Jul_16_1119,2AFC_task,59.949306863959286,
stimuli/rgb_scene000165_render000001.png,stimuli/rgb_scene000165_render000006.png,1,140,350,157,"[0, 1]",right,1,22,20,m,y,y,2019_Jul_16_1119,2AFC_task,59.949306863959286,
stimuli/rgb_scene000147_render000002.png,stimuli/rgb_scene000147_render000003.png,1,141,351,95,"[1, 0]",left,1,22,20,m,y,y,2019_Jul_16_1119,2AFC_task,59.949306863959286,
stimuli/rgb_scene000042_render000001.png,stimuli/rgb_scene000042_render000004.png,1,142,352,8,"[1, 0]",left,1,22,20,m,y,y,2019_Jul_16_1119,2AFC_task,59.949306863959286,
stimuli/rgb_scene000150_render000000.png,stimuli/rgb_scene000150_render000002.png,1,143,353,106,"[1, 0]",left,1,22,20,m,y,y,2019_Jul_16_1119,2AFC_task,59.949306863959286,
stimuli/rgb_scene000165_render000001.png,stimuli/rgb_scene000165_render000005.png,1,144,354,156,"[0, 1]",right,1,22,20,m,y,y,2019_Jul_16_1119,2AFC_task,59.949306863959286,
stimuli/rgb_scene000056_render000001.png,stimuli/rgb_scene000056_render000005.png,1,145,355,51,"[1, 0]",left,1,22,20,m,y,y,2019_Jul_16_1119,2AFC_task,59.949306863959286,
stimuli/rgb_scene000056_render000000.png,stimuli/rgb_scene000056_render000001.png,1,146,356,42,"[0, 1]",right,1,22,20,m,y,y,2019_Jul_16_1119,2AFC_task,59.949306863959286,
stimuli/rgb_scene000042_render000002.png,stimuli/rgb_scene000042_render000005.png,1,147,357,13,"[0, 1]",right,1,22,20,m,y,y,2019_Jul_16_1119,2AFC_task,59.949306863959286,
stimuli/rgb_scene000165_render000005.png,stimuli/rgb_scene000165_render000006.png,1,148,358,167,"[0, 1]",right,1,22,20,m,y,y,2019_Jul_16_1119,2AFC_task,59.949306863959286,
stimuli/rgb_scene000066_render000000.png,stimuli/rgb_scene000066_render000002.png,1,149,359,64,"[1, 0]",left,1,22,20,m,y,y,2019_Jul_16_1119,2AFC_task,59.949306863959286,
stimuli/rgb_scene000147_render000000.png,stimuli/rgb_scene000147_render000001.png,1,150,360,84,"[0, 1]",right,1,22,20,m,y,y,2019_Jul_16_1119,2AFC_task,59.949306863959286,
stimuli/rgb_scene000165_render000000.png,stimuli/rgb_scene000165_render000002.png,1,151,361,148,"[1, 0]",left,1,22,20,m,y,y,2019_Jul_16_1119,2AFC_task,59.949306863959286,
stimuli/rgb_scene000047_render000000.png,stimuli/rgb_scene000047_render000002.png,1,152,362,22,"[0, 1]",right,1,22,20,m,y,y,2019_Jul_16_1119,2AFC_task,59.949306863959286,
stimuli/rgb_scene000056_render000001.png,stimuli/rgb_scene000056_render000006.png,1,153,363,52,"[0, 1]",right,1,22,20,m,y,y,2019_Jul_16_1119,2AFC_task,59.949306863959286,
stimuli/rgb_scene000066_render000003.png,stimuli/rgb_scene000066_render000006.png,1,154,364,80,"[0, 1]",right,1,22,20,m,y,y,2019_Jul_16_1119,2AFC_task,59.949306863959286,
stimuli/rgb_scene000150_render000000.png,stimuli/rgb_scene000150_render000001.png,1,155,365,105,"[0, 1]",right,1,22,20,m,y,y,2019_Jul_16_1119,2AFC_task,59.949306863959286,
stimuli/rgb_scene000147_render000004.png,stimuli/rgb_scene000147_render000005.png,1,156,366,102,"[0, 1]",right,1,22,20,m,y,y,2019_Jul_16_1119,2AFC_task,59.949306863959286,
stimuli/rgb_scene000165_render000004.png,stimuli/rgb_scene000165_render000005.png,1,157,367,165,"[1, 0]",left,1,22,20,m,y,y,2019_Jul_16_1119,2AFC_task,59.949306863959286,
stimuli/rgb_scene000042_render000000.png,stimuli/rgb_scene000042_render000002.png,1,158,368,1,"[1, 0]",left,1,22,20,m,y,y,2019_Jul_16_1119,2AFC_task,59.949306863959286,
stimuli/rgb_scene000160_render000002.png,stimuli/rgb_scene000160_render000005.png,1,159,369,139,"[1, 0]",left,1,22,20,m,y,y,2019_Jul_16_1119,2AFC_task,59.949306863959286,
stimuli/rgb_scene000160_render000001.png,stimuli/rgb_scene000160_render000006.png,1,160,370,136,"[0, 1]",right,1,22,20,m,y,y,2019_Jul_16_1119,2AFC_task,59.949306863959286,
stimuli/rgb_scene000047_render000001.png,stimuli/rgb_scene000047_render000002.png,1,161,371,27,"[1, 0]",left,1,22,20,m,y,y,2019_Jul_16_1119,2AFC_task,59.949306863959286,
stimuli/rgb_scene000169_render000004.png,stimuli/rgb_scene000169_render000005.png,1,162,372,186,"[0, 1]",right,1,22,20,m,y,y,2019_Jul_16_1119,2AFC_task,59.949306863959286,
stimuli/rgb_scene000196_render000001.png,stimuli/rgb_scene000196_render000006.png,1,163,373,199,"[1, 0]",right,0,22,20,m,y,y,2019_Jul_16_1119,2AFC_task,59.949306863959286,
stimuli/rgb_scene000147_render000000.png,stimuli/rgb_scene000147_render000006.png,1,164,374,89,"[1, 0]",left,1,22,20,m,y,y,2019_Jul_16_1119,2AFC_task,59.949306863959286,
stimuli/rgb_scene000047_render000000.png,stimuli/rgb_scene000047_render000004.png,1,165,375,24,"[0, 1]",right,1,22,20,m,y,y,2019_Jul_16_1119,2AFC_task,59.949306863959286,
stimuli/rgb_scene000169_render000000.png,stimuli/rgb_scene000169_render000003.png,1,166,376,170,"[1, 0]",left,1,22,20,m,y,y,2019_Jul_16_1119,2AFC_task,59.949306863959286,
stimuli/rgb_scene000196_render000005.png,stimuli/rgb_scene000196_render000006.png,1,167,377,209,"[0, 1]",right,1,22,20,m,y,y,2019_Jul_16_1119,2AFC_task,59.949306863959286,
stimuli/rgb_scene000042_render000000.png,stimuli/rgb_scene000042_render000004.png,1,168,378,3,"[1, 0]",left,1,22,20,m,y,y,2019_Jul_16_1119,2AFC_task,59.949306863959286,
stimuli/rgb_scene000150_render000001.png,stimuli/rgb_scene000150_render000003.png,1,169,379,112,"[1, 0]",left,1,22,20,m,y,y,2019_Jul_16_1119,2AFC_task,59.949306863959286,
stimuli/rgb_scene000160_render000002.png,stimuli/rgb_scene000160_render000006.png,1,170,380,140,"[0, 1]",right,1,22,20,m,y,y,2019_Jul_16_1119,2AFC_task,59.949306863959286,
stimuli/rgb_scene000196_render000000.png,stimuli/rgb_scene000196_render000004.png,1,171,381,192,"[0, 1]",right,1,22,20,m,y,y,2019_Jul_16_1119,2AFC_task,59.949306863959286,
stimuli/rgb_scene000047_render000003.png,stimuli/rgb_scene000047_render000006.png,1,172,382,38,"[1, 0]",left,1,22,20,m,y,y,2019_Jul_16_1119,2AFC_task,59.949306863959286,
stimuli/rgb_scene000160_render000003.png,stimuli/rgb_scene000160_render000005.png,1,173,383,142,"[1, 0]",left,1,22,20,m,y,y,2019_Jul_16_1119,2AFC_task,59.949306863959286,
stimuli/rgb_scene000056_render000000.png,stimuli/rgb_scene000056_render000006.png,1,174,384,47,"[1, 0]",left,1,22,20,m,y,y,2019_Jul_16_1119,2AFC_task,59.949306863959286,
stimuli/rgb_scene000056_render000000.png,stimuli/rgb_scene000056_render000004.png,1,175,385,45,"[0, 1]",right,1,22,20,m,y,y,2019_Jul_16_1119,2AFC_task,59.949306863959286,
stimuli/rgb_scene000169_render000003.png,stimuli/rgb_scene000169_render000004.png,1,176,386,183,"[0, 1]",right,1,22,20,m,y,y,2019_Jul_16_1119,2AFC_task,59.949306863959286,
stimuli/rgb_scene000066_render000003.png,stimuli/rgb_scene000066_render000005.png,1,177,387,79,"[1, 0]",left,1,22,20,m,y,y,2019_Jul_16_1119,2AFC_task,59.949306863959286,
stimuli/rgb_scene000147_render000000.png,stimuli/rgb_scene000147_render000003.png,1,178,388,86,"[0, 1]",right,1,22,20,m,y,y,2019_Jul_16_1119,2AFC_task,59.949306863959286,
stimuli/rgb_scene000169_render000000.png,stimuli/rgb_scene000169_render000005.png,1,179,389,172,"[1, 0]",left,1,22,20,m,y,y,2019_Jul_16_1119,2AFC_task,59.949306863959286,
stimuli/rgb_scene000160_render000002.png,stimuli/rgb_scene000160_render000004.png,1,180,390,138,"[0, 1]",right,1,22,20,m,y,y,2019_Jul_16_1119,2AFC_task,59.949306863959286,
stimuli/rgb_scene000056_render000003.png,stimuli/rgb_scene000056_render000004.png,1,181,391,57,"[1, 0]",left,1,22,20,m,y,y,2019_Jul_16_1119,2AFC_task,59.949306863959286,
stimuli/rgb_scene000196_render000002.png,stimuli/rgb_scene000196_render000003.png,1,182,392,200,"[1, 0]",right,0,22,20,m,y,y,2019_Jul_16_1119,2AFC_task,59.949306863959286,
stimuli/rgb_scene000047_render000003.png,stimuli/rgb_scene000047_render000005.png,1,183,393,37,"[1, 0]",left,1,22,20,m,y,y,2019_Jul_16_1119,2AFC_task,59.949306863959286,
stimuli/rgb_scene000147_render000001.png,stimuli/rgb_scene000147_render000003.png,1,184,394,91,"[0, 1]",right,1,22,20,m,y,y,2019_Jul_16_1119,2AFC_task,59.949306863959286,
stimuli/rgb_scene000169_render000000.png,stimuli/rgb_scene000169_render000004.png,1,185,395,171,"[0, 1]",right,1,22,20,m,y,y,2019_Jul_16_1119,2AFC_task,59.949306863959286,
stimuli/rgb_scene000160_render000004.png,stimuli/rgb_scene000160_render000005.png,1,186,396,144,"[1, 0]",left,1,22,20,m,y,y,2019_Jul_16_1119,2AFC_task,59.949306863959286,
stimuli/rgb_scene000066_render000001.png,stimuli/rgb_scene000066_render000004.png,1,187,397,71,"[1, 0]",left,1,22,20,m,y,y,2019_Jul_16_1119,2AFC_task,59.949306863959286,
stimuli/rgb_scene000147_render000001.png,stimuli/rgb_scene000147_render000002.png,1,188,398,90,"[1, 0]",left,1,22,20,m,y,y,2019_Jul_16_1119,2AFC_task,59.949306863959286,
stimuli/rgb_scene000056_render000001.png,stimuli/rgb_scene000056_render000004.png,1,189,399,50,"[0, 1]",right,1,22,20,m,y,y,2019_Jul_16_1119,2AFC_task,59.949306863959286,
stimuli/rgb_scene000056_render000003.png,stimuli/rgb_scene000056_render000005.png,1,190,400,58,"[1, 0]",left,1,22,20,m,y,y,2019_Jul_16_1119,2AFC_task,59.949306863959286,
stimuli/rgb_scene000196_render000002.png,stimuli/rgb_scene000196_render000006.png,1,191,401,203,"[0, 1]",right,1,22,20,m,y,y,2019_Jul_16_1119,2AFC_task,59.949306863959286,
stimuli/rgb_scene000165_render000001.png,stimuli/rgb_scene000165_render000004.png,1,192,402,155,"[0, 1]",right,1,22,20,m,y,y,2019_Jul_16_1119,2AFC_task,59.949306863959286,
stimuli/rgb_scene000165_render000003.png,stimuli/rgb_scene000165_render000006.png,1,193,403,164,"[1, 0]",left,1,22,20,m,y,y,2019_Jul_16_1119,2AFC_task,59.949306863959286,
stimuli/rgb_scene000147_render000001.png,stimuli/rgb_scene000147_render000004.png,1,194,404,92,"[1, 0]",left,1,22,20,m,y,y,2019_Jul_16_1119,2AFC_task,59.949306863959286,
stimuli/rgb_scene000047_render000001.png,stimuli/rgb_scene000047_render000003.png,1,195,405,28,"[0, 1]",right,1,22,20,m,y,y,2019_Jul_16_1119,2AFC_task,59.949306863959286,
stimuli/rgb_scene000066_render000000.png,stimuli/rgb_scene000066_render000003.png,1,196,406,65,"[0, 1]",right,1,22,20,m,y,y,2019_Jul_16_1119,2AFC_task,59.949306863959286,
stimuli/rgb_scene000047_render000002.png,stimuli/rgb_scene000047_render000005.png,1,197,407,34,"[0, 1]",right,1,22,20,m,y,y,2019_Jul_16_1119,2AFC_task,59.949306863959286,
stimuli/rgb_scene000160_render000001.png,stimuli/rgb_scene000160_render000005.png,1,198,408,135,"[1, 0]",left,1,22,20,m,y,y,2019_Jul_16_1119,2AFC_task,59.949306863959286,
stimuli/rgb_scene000047_render000002.png,stimuli/rgb_scene000047_render000006.png,1,199,409,35,"[0, 1]",right,1,22,20,m,y,y,2019_Jul_16_1119,2AFC_task,59.949306863959286,
stimuli/rgb_scene000150_render000002.png,stimuli/rgb_scene000150_render000005.png,1,200,410,118,"[0, 1]",right,1,22,20,m,y,y,2019_Jul_16_1119,2AFC_task,59.949306863959286,
stimuli/rgb_scene000150_render000003.png,stimuli/rgb_scene000150_render000006.png,1,201,411,122,"[0, 1]",right,1,22,20,m,y,y,2019_Jul_16_1119,2AFC_task,59.949306863959286,
stimuli/rgb_scene000150_render000001.png,stimuli/rgb_scene000150_render000006.png,1,202,412,115,"[1, 0]",left,1,22,20,m,y,y,2019_Jul_16_1119,2AFC_task,59.949306863959286,
stimuli/rgb_scene000042_render000005.png,stimuli/rgb_scene000042_render000006.png,1,203,413,20,"[0, 1]",right,1,22,20,m,y,y,2019_Jul_16_1119,2AFC_task,59.949306863959286,
stimuli/rgb_scene000066_render000004.png,stimuli/rgb_scene000066_render000005.png,1,204,414,81,"[0, 1]",right,1,22,20,m,y,y,2019_Jul_16_1119,2AFC_task,59.949306863959286,
stimuli/rgb_scene000066_render000004.png,stimuli/rgb_scene000066_render000006.png,1,205,415,82,"[1, 0]",left,1,22,20,m,y,y,2019_Jul_16_1119,2AFC_task,59.949306863959286,
stimuli/rgb_scene000066_render000001.png,stimuli/rgb_scene000066_render000003.png,1,206,416,70,"[1, 0]",left,1,22,20,m,y,y,2019_Jul_16_1119,2AFC_task,59.949306863959286,
stimuli/rgb_scene000066_render000000.png,stimuli/rgb_scene000066_render000006.png,1,207,417,68,"[0, 1]",right,1,22,20,m,y,y,2019_Jul_16_1119,2AFC_task,59.949306863959286,
stimuli/rgb_scene000150_render000005.png,stimuli/rgb_scene000150_render000006.png,1,208,418,125,"[0, 1]",left,0,22,20,m,y,y,2019_Jul_16_1119,2AFC_task,59.949306863959286,
stimuli/rgb_scene000196_render000000.png,stimuli/rgb_scene000196_render000003.png,1,209,419,191,"[0, 1]",right,1,22,20,m,y,y,2019_Jul_16_1119,2AFC_task,59.949306863959286,
