stimOne,stimTwo,trials_1.thisRepN,trials_1.thisTrialN,trials_1.thisN,trials_1.thisIndex,presentation_positions,resp_key,corresponding_image,participant ID (two digits, e.g. 01),age,gender (m/f/-),normal or corrected-to-normal vision (y/n),normal colour vision (y/n),date,expName,frameRate,
stimuli/rgb_scene000042_render000001.png,stimuli/rgb_scene000042_render000003.png,0,0,0,7,"[0, 1]",right,1,26,19,f,y,y,2019_Jul_15_1247,2AFC_task,59.94998972162162,
stimuli/rgb_scene000042_render000001.png,stimuli/rgb_scene000042_render000002.png,0,1,1,6,"[1, 0]",left,1,26,19,f,y,y,2019_Jul_15_1247,2AFC_task,59.94998972162162,
stimuli/rgb_scene000196_render000002.png,stimuli/rgb_scene000196_render000005.png,0,2,2,202,"[1, 0]",right,0,26,19,f,y,y,2019_Jul_15_1247,2AFC_task,59.94998972162162,
stimuli/rgb_scene000160_render000001.png,stimuli/rgb_scene000160_render000002.png,0,3,3,132,"[1, 0]",left,1,26,19,f,y,y,2019_Jul_15_1247,2AFC_task,59.94998972162162,
stimuli/rgb_scene000066_render000002.png,stimuli/rgb_scene000066_render000005.png,0,4,4,76,"[0, 1]",right,1,26,19,f,y,y,2019_Jul_15_1247,2AFC_task,59.94998972162162,
stimuli/rgb_scene000160_render000004.png,stimuli/rgb_scene000160_render000006.png,0,5,5,145,"[1, 0]",left,1,26,19,f,y,y,2019_Jul_15_1247,2AFC_task,59.94998972162162,
stimuli/rgb_scene000047_render000001.png,stimuli/rgb_scene000047_render000002.png,0,6,6,27,"[1, 0]",left,1,26,19,f,y,y,2019_Jul_15_1247,2AFC_task,59.94998972162162,
stimuli/rgb_scene000066_render000001.png,stimuli/rgb_scene000066_render000005.png,0,7,7,72,"[1, 0]",left,1,26,19,f,y,y,2019_Jul_15_1247,2AFC_task,59.94998972162162,
stimuli/rgb_scene000150_render000001.png,stimuli/rgb_scene000150_render000005.png,0,8,8,114,"[1, 0]",left,1,26,19,f,y,y,2019_Jul_15_1247,2AFC_task,59.94998972162162,
stimuli/rgb_scene000165_render000005.png,stimuli/rgb_scene000165_render000006.png,0,9,9,167,"[0, 1]",right,1,26,19,f,y,y,2019_Jul_15_1247,2AFC_task,59.94998972162162,
stimuli/rgb_scene000165_render000002.png,stimuli/rgb_scene000165_render000005.png,0,10,10,160,"[1, 0]",left,1,26,19,f,y,y,2019_Jul_15_1247,2AFC_task,59.94998972162162,
stimuli/rgb_scene000066_render000004.png,stimuli/rgb_scene000066_render000005.png,0,11,11,81,"[0, 1]",right,1,26,19,f,y,y,2019_Jul_15_1247,2AFC_task,59.94998972162162,
stimuli/rgb_scene000169_render000001.png,stimuli/rgb_scene000169_render000005.png,0,12,12,177,"[0, 1]",right,1,26,19,f,y,y,2019_Jul_15_1247,2AFC_task,59.94998972162162,
stimuli/rgb_scene000196_render000001.png,stimuli/rgb_scene000196_render000004.png,0,13,13,197,"[1, 0]",right,0,26,19,f,y,y,2019_Jul_15_1247,2AFC_task,59.94998972162162,
stimuli/rgb_scene000147_render000004.png,stimuli/rgb_scene000147_render000005.png,0,14,14,102,"[1, 0]",left,1,26,19,f,y,y,2019_Jul_15_1247,2AFC_task,59.94998972162162,
stimuli/rgb_scene000147_render000002.png,stimuli/rgb_scene000147_render000004.png,0,15,15,96,"[1, 0]",left,1,26,19,f,y,y,2019_Jul_15_1247,2AFC_task,59.94998972162162,
stimuli/rgb_scene000150_render000002.png,stimuli/rgb_scene000150_render000005.png,0,16,16,118,"[1, 0]",left,1,26,19,f,y,y,2019_Jul_15_1247,2AFC_task,59.94998972162162,
stimuli/rgb_scene000056_render000000.png,stimuli/rgb_scene000056_render000002.png,0,17,17,43,"[1, 0]",left,1,26,19,f,y,y,2019_Jul_15_1247,2AFC_task,59.94998972162162,
stimuli/rgb_scene000196_render000004.png,stimuli/rgb_scene000196_render000005.png,0,18,18,207,"[1, 0]",right,0,26,19,f,y,y,2019_Jul_15_1247,2AFC_task,59.94998972162162,
stimuli/rgb_scene000169_render000000.png,stimuli/rgb_scene000169_render000005.png,0,19,19,172,"[0, 1]",right,1,26,19,f,y,y,2019_Jul_15_1247,2AFC_task,59.94998972162162,
stimuli/rgb_scene000066_render000002.png,stimuli/rgb_scene000066_render000003.png,0,20,20,74,"[0, 1]",right,1,26,19,f,y,y,2019_Jul_15_1247,2AFC_task,59.94998972162162,
stimuli/rgb_scene000160_render000001.png,stimuli/rgb_scene000160_render000003.png,0,21,21,133,"[1, 0]",left,1,26,19,f,y,y,2019_Jul_15_1247,2AFC_task,59.94998972162162,
stimuli/rgb_scene000150_render000003.png,stimuli/rgb_scene000150_render000005.png,0,22,22,121,"[1, 0]",left,1,26,19,f,y,y,2019_Jul_15_1247,2AFC_task,59.94998972162162,
stimuli/rgb_scene000056_render000003.png,stimuli/rgb_scene000056_render000006.png,0,23,23,59,"[1, 0]",left,1,26,19,f,y,y,2019_Jul_15_1247,2AFC_task,59.94998972162162,
stimuli/rgb_scene000196_render000003.png,stimuli/rgb_scene000196_render000006.png,0,24,24,206,"[1, 0]",right,0,26,19,f,y,y,2019_Jul_15_1247,2AFC_task,59.94998972162162,
stimuli/rgb_scene000160_render000000.png,stimuli/rgb_scene000160_render000003.png,0,25,25,128,"[0, 1]",right,1,26,19,f,y,y,2019_Jul_15_1247,2AFC_task,59.94998972162162,
stimuli/rgb_scene000165_render000003.png,stimuli/rgb_scene000165_render000004.png,0,26,26,162,"[1, 0]",left,1,26,19,f,y,y,2019_Jul_15_1247,2AFC_task,59.94998972162162,
stimuli/rgb_scene000165_render000004.png,stimuli/rgb_scene000165_render000005.png,0,27,27,165,"[0, 1]",right,1,26,19,f,y,y,2019_Jul_15_1247,2AFC_task,59.94998972162162,
stimuli/rgb_scene000165_render000000.png,stimuli/rgb_scene000165_render000005.png,0,28,28,151,"[1, 0]",left,1,26,19,f,y,y,2019_Jul_15_1247,2AFC_task,59.94998972162162,
stimuli/rgb_scene000147_render000001.png,stimuli/rgb_scene000147_render000006.png,0,29,29,94,"[0, 1]",right,1,26,19,f,y,y,2019_Jul_15_1247,2AFC_task,59.94998972162162,
stimuli/rgb_scene000169_render000003.png,stimuli/rgb_scene000169_render000004.png,0,30,30,183,"[1, 0]",right,0,26,19,f,y,y,2019_Jul_15_1247,2AFC_task,59.94998972162162,
stimuli/rgb_scene000160_render000003.png,stimuli/rgb_scene000160_render000006.png,0,31,31,143,"[0, 1]",right,1,26,19,f,y,y,2019_Jul_15_1247,2AFC_task,59.94998972162162,
stimuli/rgb_scene000147_render000003.png,stimuli/rgb_scene000147_render000005.png,0,32,32,100,"[0, 1]",right,1,26,19,f,y,y,2019_Jul_15_1247,2AFC_task,59.94998972162162,
stimuli/rgb_scene000047_render000001.png,stimuli/rgb_scene000047_render000005.png,0,33,33,30,"[1, 0]",left,1,26,19,f,y,y,2019_Jul_15_1247,2AFC_task,59.94998972162162,
stimuli/rgb_scene000150_render000001.png,stimuli/rgb_scene000150_render000003.png,0,34,34,112,"[1, 0]",left,1,26,19,f,y,y,2019_Jul_15_1247,2AFC_task,59.94998972162162,
stimuli/rgb_scene000056_render000001.png,stimuli/rgb_scene000056_render000006.png,0,35,35,52,"[0, 1]",right,1,26,19,f,y,y,2019_Jul_15_1247,2AFC_task,59.94998972162162,
stimuli/rgb_scene000042_render000001.png,stimuli/rgb_scene000042_render000006.png,0,36,36,10,"[0, 1]",right,1,26,19,f,y,y,2019_Jul_15_1247,2AFC_task,59.94998972162162,
stimuli/rgb_scene000056_render000004.png,stimuli/rgb_scene000056_render000005.png,0,37,37,60,"[0, 1]",right,1,26,19,f,y,y,2019_Jul_15_1247,2AFC_task,59.94998972162162,
stimuli/rgb_scene000150_render000000.png,stimuli/rgb_scene000150_render000003.png,0,38,38,107,"[0, 1]",right,1,26,19,f,y,y,2019_Jul_15_1247,2AFC_task,59.94998972162162,
stimuli/rgb_scene000196_render000005.png,stimuli/rgb_scene000196_render000006.png,0,39,39,209,"[0, 1]",left,0,26,19,f,y,y,2019_Jul_15_1247,2AFC_task,59.94998972162162,
stimuli/rgb_scene000150_render000002.png,stimuli/rgb_scene000150_render000003.png,0,40,40,116,"[0, 1]",right,1,26,19,f,y,y,2019_Jul_15_1247,2AFC_task,59.94998972162162,
stimuli/rgb_scene000169_render000002.png,stimuli/rgb_scene000169_render000005.png,0,41,41,181,"[1, 0]",left,1,26,19,f,y,y,2019_Jul_15_1247,2AFC_task,59.94998972162162,
stimuli/rgb_scene000160_render000001.png,stimuli/rgb_scene000160_render000004.png,0,42,42,134,"[1, 0]",left,1,26,19,f,y,y,2019_Jul_15_1247,2AFC_task,59.94998972162162,
stimuli/rgb_scene000066_render000003.png,stimuli/rgb_scene000066_render000004.png,0,43,43,78,"[1, 0]",left,1,26,19,f,y,y,2019_Jul_15_1247,2AFC_task,59.94998972162162,
stimuli/rgb_scene000042_render000000.png,stimuli/rgb_scene000042_render000002.png,0,44,44,1,"[0, 1]",right,1,26,19,f,y,y,2019_Jul_15_1247,2AFC_task,59.94998972162162,
stimuli/rgb_scene000147_render000000.png,stimuli/rgb_scene000147_render000001.png,0,45,45,84,"[1, 0]",left,1,26,19,f,y,y,2019_Jul_15_1247,2AFC_task,59.94998972162162,
stimuli/rgb_scene000047_render000000.png,stimuli/rgb_scene000047_render000001.png,0,46,46,21,"[0, 1]",right,1,26,19,f,y,y,2019_Jul_15_1247,2AFC_task,59.94998972162162,
stimuli/rgb_scene000047_render000001.png,stimuli/rgb_scene000047_render000003.png,0,47,47,28,"[1, 0]",left,1,26,19,f,y,y,2019_Jul_15_1247,2AFC_task,59.94998972162162,
stimuli/rgb_scene000147_render000001.png,stimuli/rgb_scene000147_render000002.png,0,48,48,90,"[0, 1]",right,1,26,19,f,y,y,2019_Jul_15_1247,2AFC_task,59.94998972162162,
stimuli/rgb_scene000042_render000001.png,stimuli/rgb_scene000042_render000005.png,0,49,49,9,"[0, 1]",right,1,26,19,f,y,y,2019_Jul_15_1247,2AFC_task,59.94998972162162,
stimuli/rgb_scene000169_render000000.png,stimuli/rgb_scene000169_render000001.png,0,50,50,168,"[1, 0]",right,0,26,19,f,y,y,2019_Jul_15_1247,2AFC_task,59.94998972162162,
stimuli/rgb_scene000066_render000002.png,stimuli/rgb_scene000066_render000004.png,0,51,51,75,"[1, 0]",left,1,26,19,f,y,y,2019_Jul_15_1247,2AFC_task,59.94998972162162,
stimuli/rgb_scene000169_render000000.png,stimuli/rgb_scene000169_render000004.png,0,52,52,171,"[0, 1]",right,1,26,19,f,y,y,2019_Jul_15_1247,2AFC_task,59.94998972162162,
stimuli/rgb_scene000165_render000000.png,stimuli/rgb_scene000165_render000006.png,0,53,53,152,"[1, 0]",left,1,26,19,f,y,y,2019_Jul_15_1247,2AFC_task,59.94998972162162,
stimuli/rgb_scene000147_render000000.png,stimuli/rgb_scene000147_render000006.png,0,54,54,89,"[1, 0]",left,1,26,19,f,y,y,2019_Jul_15_1247,2AFC_task,59.94998972162162,
stimuli/rgb_scene000165_render000001.png,stimuli/rgb_scene000165_render000003.png,0,55,55,154,"[0, 1]",right,1,26,19,f,y,y,2019_Jul_15_1247,2AFC_task,59.94998972162162,
stimuli/rgb_scene000196_render000002.png,stimuli/rgb_scene000196_render000003.png,0,56,56,200,"[1, 0]",right,0,26,19,f,y,y,2019_Jul_15_1247,2AFC_task,59.94998972162162,
stimuli/rgb_scene000042_render000005.png,stimuli/rgb_scene000042_render000006.png,0,57,57,20,"[0, 1]",left,0,26,19,f,y,y,2019_Jul_15_1247,2AFC_task,59.94998972162162,
stimuli/rgb_scene000047_render000000.png,stimuli/rgb_scene000047_render000004.png,0,58,58,24,"[1, 0]",left,1,26,19,f,y,y,2019_Jul_15_1247,2AFC_task,59.94998972162162,
stimuli/rgb_scene000056_render000001.png,stimuli/rgb_scene000056_render000005.png,0,59,59,51,"[0, 1]",right,1,26,19,f,y,y,2019_Jul_15_1247,2AFC_task,59.94998972162162,
stimuli/rgb_scene000047_render000002.png,stimuli/rgb_scene000047_render000005.png,0,60,60,34,"[0, 1]",right,1,26,19,f,y,y,2019_Jul_15_1247,2AFC_task,59.94998972162162,
stimuli/rgb_scene000066_render000003.png,stimuli/rgb_scene000066_render000006.png,0,61,61,80,"[1, 0]",left,1,26,19,f,y,y,2019_Jul_15_1247,2AFC_task,59.94998972162162,
stimuli/rgb_scene000160_render000002.png,stimuli/rgb_scene000160_render000004.png,0,62,62,138,"[1, 0]",left,1,26,19,f,y,y,2019_Jul_15_1247,2AFC_task,59.94998972162162,
stimuli/rgb_scene000150_render000000.png,stimuli/rgb_scene000150_render000004.png,0,63,63,108,"[0, 1]",right,1,26,19,f,y,y,2019_Jul_15_1247,2AFC_task,59.94998972162162,
stimuli/rgb_scene000042_render000002.png,stimuli/rgb_scene000042_render000006.png,0,64,64,14,"[1, 0]",left,1,26,19,f,y,y,2019_Jul_15_1247,2AFC_task,59.94998972162162,
stimuli/rgb_scene000196_render000003.png,stimuli/rgb_scene000196_render000004.png,0,65,65,204,"[0, 1]",right,1,26,19,f,y,y,2019_Jul_15_1247,2AFC_task,59.94998972162162,
stimuli/rgb_scene000165_render000000.png,stimuli/rgb_scene000165_render000001.png,0,66,66,147,"[0, 1]",right,1,26,19,f,y,y,2019_Jul_15_1247,2AFC_task,59.94998972162162,
stimuli/rgb_scene000056_render000002.png,stimuli/rgb_scene000056_render000005.png,0,67,67,55,"[1, 0]",left,1,26,19,f,y,y,2019_Jul_15_1247,2AFC_task,59.94998972162162,
stimuli/rgb_scene000047_render000000.png,stimuli/rgb_scene000047_render000005.png,0,68,68,25,"[0, 1]",right,1,26,19,f,y,y,2019_Jul_15_1247,2AFC_task,59.94998972162162,
stimuli/rgb_scene000056_render000005.png,stimuli/rgb_scene000056_render000006.png,0,69,69,62,"[0, 1]",right,1,26,19,f,y,y,2019_Jul_15_1247,2AFC_task,59.94998972162162,
stimuli/rgb_scene000047_render000004.png,stimuli/rgb_scene000047_render000005.png,0,70,70,39,"[0, 1]",right,1,26,19,f,y,y,2019_Jul_15_1247,2AFC_task,59.94998972162162,
stimuli/rgb_scene000169_render000002.png,stimuli/rgb_scene000169_render000006.png,0,71,71,182,"[0, 1]",right,1,26,19,f,y,y,2019_Jul_15_1247,2AFC_task,59.94998972162162,
stimuli/rgb_scene000066_render000001.png,stimuli/rgb_scene000066_render000003.png,0,72,72,70,"[1, 0]",left,1,26,19,f,y,y,2019_Jul_15_1247,2AFC_task,59.94998972162162,
stimuli/rgb_scene000165_render000000.png,stimuli/rgb_scene000165_render000003.png,0,73,73,149,"[1, 0]",left,1,26,19,f,y,y,2019_Jul_15_1247,2AFC_task,59.94998972162162,
stimuli/rgb_scene000066_render000000.png,stimuli/rgb_scene000066_render000003.png,0,74,74,65,"[1, 0]",left,1,26,19,f,y,y,2019_Jul_15_1247,2AFC_task,59.94998972162162,
stimuli/rgb_scene000056_render000002.png,stimuli/rgb_scene000056_render000006.png,0,75,75,56,"[0, 1]",right,1,26,19,f,y,y,2019_Jul_15_1247,2AFC_task,59.94998972162162,
stimuli/rgb_scene000147_render000001.png,stimuli/rgb_scene000147_render000003.png,0,76,76,91,"[1, 0]",left,1,26,19,f,y,y,2019_Jul_15_1247,2AFC_task,59.94998972162162,
stimuli/rgb_scene000147_render000003.png,stimuli/rgb_scene000147_render000006.png,0,77,77,101,"[0, 1]",right,1,26,19,f,y,y,2019_Jul_15_1247,2AFC_task,59.94998972162162,
stimuli/rgb_scene000165_render000001.png,stimuli/rgb_scene000165_render000002.png,0,78,78,153,"[1, 0]",left,1,26,19,f,y,y,2019_Jul_15_1247,2AFC_task,59.94998972162162,
stimuli/rgb_scene000150_render000001.png,stimuli/rgb_scene000150_render000002.png,0,79,79,111,"[0, 1]",right,1,26,19,f,y,y,2019_Jul_15_1247,2AFC_task,59.94998972162162,
stimuli/rgb_scene000056_render000000.png,stimuli/rgb_scene000056_render000003.png,0,80,80,44,"[1, 0]",left,1,26,19,f,y,y,2019_Jul_15_1247,2AFC_task,59.94998972162162,
stimuli/rgb_scene000165_render000002.png,stimuli/rgb_scene000165_render000003.png,0,81,81,158,"[1, 0]",left,1,26,19,f,y,y,2019_Jul_15_1247,2AFC_task,59.94998972162162,
stimuli/rgb_scene000196_render000000.png,stimuli/rgb_scene000196_render000004.png,0,82,82,192,"[0, 1]",right,1,26,19,f,y,y,2019_Jul_15_1247,2AFC_task,59.94998972162162,
stimuli/rgb_scene000165_render000004.png,stimuli/rgb_scene000165_render000006.png,0,83,83,166,"[1, 0]",left,1,26,19,f,y,y,2019_Jul_15_1247,2AFC_task,59.94998972162162,
stimuli/rgb_scene000169_render000000.png,stimuli/rgb_scene000169_render000003.png,0,84,84,170,"[0, 1]",right,1,26,19,f,y,y,2019_Jul_15_1247,2AFC_task,59.94998972162162,
stimuli/rgb_scene000169_render000005.png,stimuli/rgb_scene000169_render000006.png,0,85,85,188,"[0, 1]",right,1,26,19,f,y,y,2019_Jul_15_1247,2AFC_task,59.94998972162162,
stimuli/rgb_scene000056_render000004.png,stimuli/rgb_scene000056_render000006.png,0,86,86,61,"[0, 1]",right,1,26,19,f,y,y,2019_Jul_15_1247,2AFC_task,59.94998972162162,
stimuli/rgb_scene000147_render000005.png,stimuli/rgb_scene000147_render000006.png,0,87,87,104,"[0, 1]",right,1,26,19,f,y,y,2019_Jul_15_1247,2AFC_task,59.94998972162162,
stimuli/rgb_scene000165_render000000.png,stimuli/rgb_scene000165_render000002.png,0,88,88,148,"[0, 1]",right,1,26,19,f,y,y,2019_Jul_15_1247,2AFC_task,59.94998972162162,
stimuli/rgb_scene000150_render000004.png,stimuli/rgb_scene000150_render000006.png,0,89,89,124,"[1, 0]",left,1,26,19,f,y,y,2019_Jul_15_1247,2AFC_task,59.94998972162162,
stimuli/rgb_scene000160_render000001.png,stimuli/rgb_scene000160_render000005.png,0,90,90,135,"[0, 1]",right,1,26,19,f,y,y,2019_Jul_15_1247,2AFC_task,59.94998972162162,
stimuli/rgb_scene000147_render000002.png,stimuli/rgb_scene000147_render000003.png,0,91,91,95,"[1, 0]",left,1,26,19,f,y,y,2019_Jul_15_1247,2AFC_task,59.94998972162162,
stimuli/rgb_scene000147_render000001.png,stimuli/rgb_scene000147_render000005.png,0,92,92,93,"[1, 0]",left,1,26,19,f,y,y,2019_Jul_15_1247,2AFC_task,59.94998972162162,
stimuli/rgb_scene000169_render000001.png,stimuli/rgb_scene000169_render000004.png,0,93,93,176,"[1, 0]",right,0,26,19,f,y,y,2019_Jul_15_1247,2AFC_task,59.94998972162162,
stimuli/rgb_scene000056_render000000.png,stimuli/rgb_scene000056_render000006.png,0,94,94,47,"[0, 1]",right,1,26,19,f,y,y,2019_Jul_15_1247,2AFC_task,59.94998972162162,
stimuli/rgb_scene000150_render000000.png,stimuli/rgb_scene000150_render000005.png,0,95,95,109,"[1, 0]",left,1,26,19,f,y,y,2019_Jul_15_1247,2AFC_task,59.94998972162162,
stimuli/rgb_scene000160_render000003.png,stimuli/rgb_scene000160_render000004.png,0,96,96,141,"[0, 1]",right,1,26,19,f,y,y,2019_Jul_15_1247,2AFC_task,59.94998972162162,
stimuli/rgb_scene000169_render000000.png,stimuli/rgb_scene000169_render000006.png,0,97,97,173,"[1, 0]",left,1,26,19,f,y,y,2019_Jul_15_1247,2AFC_task,59.94998972162162,
stimuli/rgb_scene000150_render000001.png,stimuli/rgb_scene000150_render000004.png,0,98,98,113,"[1, 0]",left,1,26,19,f,y,y,2019_Jul_15_1247,2AFC_task,59.94998972162162,
stimuli/rgb_scene000196_render000001.png,stimuli/rgb_scene000196_render000006.png,0,99,99,199,"[1, 0]",right,0,26,19,f,y,y,2019_Jul_15_1247,2AFC_task,59.94998972162162,
stimuli/rgb_scene000150_render000003.png,stimuli/rgb_scene000150_render000004.png,0,100,100,120,"[0, 1]",right,1,26,19,f,y,y,2019_Jul_15_1247,2AFC_task,59.94998972162162,
stimuli/rgb_scene000066_render000000.png,stimuli/rgb_scene000066_render000002.png,0,101,101,64,"[1, 0]",left,1,26,19,f,y,y,2019_Jul_15_1247,2AFC_task,59.94998972162162,
stimuli/rgb_scene000150_render000002.png,stimuli/rgb_scene000150_render000006.png,0,102,102,119,"[0, 1]",right,1,26,19,f,y,y,2019_Jul_15_1247,2AFC_task,59.94998972162162,
stimuli/rgb_scene000165_render000001.png,stimuli/rgb_scene000165_render000004.png,0,103,103,155,"[0, 1]",right,1,26,19,f,y,y,2019_Jul_15_1247,2AFC_task,59.94998972162162,
stimuli/rgb_scene000047_render000002.png,stimuli/rgb_scene000047_render000003.png,0,104,104,32,"[1, 0]",left,1,26,19,f,y,y,2019_Jul_15_1247,2AFC_task,59.94998972162162,
stimuli/rgb_scene000047_render000003.png,stimuli/rgb_scene000047_render000004.png,0,105,105,36,"[0, 1]",right,1,26,19,f,y,y,2019_Jul_15_1247,2AFC_task,59.94998972162162,
stimuli/rgb_scene000169_render000001.png,stimuli/rgb_scene000169_render000006.png,0,106,106,178,"[1, 0]",left,1,26,19,f,y,y,2019_Jul_15_1247,2AFC_task,59.94998972162162,
stimuli/rgb_scene000160_render000002.png,stimuli/rgb_scene000160_render000005.png,0,107,107,139,"[1, 0]",left,1,26,19,f,y,y,2019_Jul_15_1247,2AFC_task,59.94998972162162,
stimuli/rgb_scene000160_render000000.png,stimuli/rgb_scene000160_render000004.png,0,108,108,129,"[0, 1]",right,1,26,19,f,y,y,2019_Jul_15_1247,2AFC_task,59.94998972162162,
stimuli/rgb_scene000150_render000002.png,stimuli/rgb_scene000150_render000004.png,0,109,109,117,"[1, 0]",left,1,26,19,f,y,y,2019_Jul_15_1247,2AFC_task,59.94998972162162,
stimuli/rgb_scene000160_render000003.png,stimuli/rgb_scene000160_render000005.png,0,110,110,142,"[0, 1]",right,1,26,19,f,y,y,2019_Jul_15_1247,2AFC_task,59.94998972162162,
stimuli/rgb_scene000047_render000005.png,stimuli/rgb_scene000047_render000006.png,0,111,111,41,"[0, 1]",right,1,26,19,f,y,y,2019_Jul_15_1247,2AFC_task,59.94998972162162,
stimuli/rgb_scene000042_render000001.png,stimuli/rgb_scene000042_render000004.png,0,112,112,8,"[1, 0]",left,1,26,19,f,y,y,2019_Jul_15_1247,2AFC_task,59.94998972162162,
stimuli/rgb_scene000150_render000000.png,stimuli/rgb_scene000150_render000001.png,0,113,113,105,"[1, 0]",left,1,26,19,f,y,y,2019_Jul_15_1247,2AFC_task,59.94998972162162,
stimuli/rgb_scene000056_render000000.png,stimuli/rgb_scene000056_render000001.png,0,114,114,42,"[0, 1]",right,1,26,19,f,y,y,2019_Jul_15_1247,2AFC_task,59.94998972162162,
stimuli/rgb_scene000047_render000001.png,stimuli/rgb_scene000047_render000004.png,0,115,115,29,"[0, 1]",right,1,26,19,f,y,y,2019_Jul_15_1247,2AFC_task,59.94998972162162,
stimuli/rgb_scene000047_render000003.png,stimuli/rgb_scene000047_render000005.png,0,116,116,37,"[1, 0]",left,1,26,19,f,y,y,2019_Jul_15_1247,2AFC_task,59.94998972162162,
stimuli/rgb_scene000047_render000000.png,stimuli/rgb_scene000047_render000003.png,0,117,117,23,"[0, 1]",right,1,26,19,f,y,y,2019_Jul_15_1247,2AFC_task,59.94998972162162,
stimuli/rgb_scene000066_render000005.png,stimuli/rgb_scene000066_render000006.png,0,118,118,83,"[0, 1]",right,1,26,19,f,y,y,2019_Jul_15_1247,2AFC_task,59.94998972162162,
stimuli/rgb_scene000150_render000005.png,stimuli/rgb_scene000150_render000006.png,0,119,119,125,"[0, 1]",left,0,26,19,f,y,y,2019_Jul_15_1247,2AFC_task,59.94998972162162,
stimuli/rgb_scene000165_render000000.png,stimuli/rgb_scene000165_render000004.png,0,120,120,150,"[1, 0]",left,1,26,19,f,y,y,2019_Jul_15_1247,2AFC_task,59.94998972162162,
stimuli/rgb_scene000047_render000003.png,stimuli/rgb_scene000047_render000006.png,0,121,121,38,"[0, 1]",right,1,26,19,f,y,y,2019_Jul_15_1247,2AFC_task,59.94998972162162,
stimuli/rgb_scene000056_render000001.png,stimuli/rgb_scene000056_render000003.png,0,122,122,49,"[1, 0]",left,1,26,19,f,y,y,2019_Jul_15_1247,2AFC_task,59.94998972162162,
stimuli/rgb_scene000047_render000000.png,stimuli/rgb_scene000047_render000002.png,0,123,123,22,"[0, 1]",right,1,26,19,f,y,y,2019_Jul_15_1247,2AFC_task,59.94998972162162,
stimuli/rgb_scene000066_render000004.png,stimuli/rgb_scene000066_render000006.png,0,124,124,82,"[1, 0]",left,1,26,19,f,y,y,2019_Jul_15_1247,2AFC_task,59.94998972162162,
stimuli/rgb_scene000165_render000003.png,stimuli/rgb_scene000165_render000005.png,0,125,125,163,"[1, 0]",left,1,26,19,f,y,y,2019_Jul_15_1247,2AFC_task,59.94998972162162,
stimuli/rgb_scene000056_render000000.png,stimuli/rgb_scene000056_render000004.png,0,126,126,45,"[1, 0]",left,1,26,19,f,y,y,2019_Jul_15_1247,2AFC_task,59.94998972162162,
stimuli/rgb_scene000147_render000000.png,stimuli/rgb_scene000147_render000002.png,0,127,127,85,"[0, 1]",right,1,26,19,f,y,y,2019_Jul_15_1247,2AFC_task,59.94998972162162,
stimuli/rgb_scene000042_render000000.png,stimuli/rgb_scene000042_render000006.png,0,128,128,5,"[0, 1]",right,1,26,19,f,y,y,2019_Jul_15_1247,2AFC_task,59.94998972162162,
stimuli/rgb_scene000047_render000004.png,stimuli/rgb_scene000047_render000006.png,0,129,129,40,"[0, 1]",right,1,26,19,f,y,y,2019_Jul_15_1247,2AFC_task,59.94998972162162,
stimuli/rgb_scene000165_render000003.png,stimuli/rgb_scene000165_render000006.png,0,130,130,164,"[0, 1]",right,1,26,19,f,y,y,2019_Jul_15_1247,2AFC_task,59.94998972162162,
stimuli/rgb_scene000066_render000000.png,stimuli/rgb_scene000066_render000001.png,0,131,131,63,"[1, 0]",left,1,26,19,f,y,y,2019_Jul_15_1247,2AFC_task,59.94998972162162,
stimuli/rgb_scene000147_render000003.png,stimuli/rgb_scene000147_render000004.png,0,132,132,99,"[1, 0]",left,1,26,19,f,y,y,2019_Jul_15_1247,2AFC_task,59.94998972162162,
stimuli/rgb_scene000150_render000000.png,stimuli/rgb_scene000150_render000002.png,0,133,133,106,"[0, 1]",right,1,26,19,f,y,y,2019_Jul_15_1247,2AFC_task,59.94998972162162,
stimuli/rgb_scene000165_render000001.png,stimuli/rgb_scene000165_render000006.png,0,134,134,157,"[1, 0]",left,1,26,19,f,y,y,2019_Jul_15_1247,2AFC_task,59.94998972162162,
stimuli/rgb_scene000042_render000003.png,stimuli/rgb_scene000042_render000004.png,0,135,135,15,"[0, 1]",right,1,26,19,f,y,y,2019_Jul_15_1247,2AFC_task,59.94998972162162,
stimuli/rgb_scene000047_render000002.png,stimuli/rgb_scene000047_render000004.png,0,136,136,33,"[1, 0]",left,1,26,19,f,y,y,2019_Jul_15_1247,2AFC_task,59.94998972162162,
stimuli/rgb_scene000066_render000001.png,stimuli/rgb_scene000066_render000006.png,0,137,137,73,"[1, 0]",left,1,26,19,f,y,y,2019_Jul_15_1247,2AFC_task,59.94998972162162,
stimuli/rgb_scene000196_render000000.png,stimuli/rgb_scene000196_render000002.png,0,138,138,190,"[1, 0]",right,0,26,19,f,y,y,2019_Jul_15_1247,2AFC_task,59.94998972162162,
stimuli/rgb_scene000042_render000002.png,stimuli/rgb_scene000042_render000003.png,0,139,139,11,"[0, 1]",right,1,26,19,f,y,y,2019_Jul_15_1247,2AFC_task,59.94998972162162,
stimuli/rgb_scene000169_render000001.png,stimuli/rgb_scene000169_render000002.png,0,140,140,174,"[0, 1]",right,1,26,19,f,y,y,2019_Jul_15_1247,2AFC_task,59.94998972162162,
stimuli/rgb_scene000042_render000000.png,stimuli/rgb_scene000042_render000004.png,0,141,141,3,"[1, 0]",left,1,26,19,f,y,y,2019_Jul_15_1247,2AFC_task,59.94998972162162,
stimuli/rgb_scene000042_render000003.png,stimuli/rgb_scene000042_render000005.png,0,142,142,16,"[0, 1]",right,1,26,19,f,y,y,2019_Jul_15_1247,2AFC_task,59.94998972162162,
stimuli/rgb_scene000169_render000001.png,stimuli/rgb_scene000169_render000003.png,0,143,143,175,"[0, 1]",right,1,26,19,f,y,y,2019_Jul_15_1247,2AFC_task,59.94998972162162,
stimuli/rgb_scene000160_render000000.png,stimuli/rgb_scene000160_render000001.png,0,144,144,126,"[1, 0]",left,1,26,19,f,y,y,2019_Jul_15_1247,2AFC_task,59.94998972162162,
stimuli/rgb_scene000196_render000000.png,stimuli/rgb_scene000196_render000001.png,0,145,145,189,"[0, 1]",right,1,26,19,f,y,y,2019_Jul_15_1247,2AFC_task,59.94998972162162,
stimuli/rgb_scene000169_render000002.png,stimuli/rgb_scene000169_render000003.png,0,146,146,179,"[0, 1]",right,1,26,19,f,y,y,2019_Jul_15_1247,2AFC_task,59.94998972162162,
stimuli/rgb_scene000147_render000000.png,stimuli/rgb_scene000147_render000003.png,0,147,147,86,"[1, 0]",left,1,26,19,f,y,y,2019_Jul_15_1247,2AFC_task,59.94998972162162,
stimuli/rgb_scene000147_render000002.png,stimuli/rgb_scene000147_render000006.png,0,148,148,98,"[1, 0]",left,1,26,19,f,y,y,2019_Jul_15_1247,2AFC_task,59.94998972162162,
stimuli/rgb_scene000150_render000000.png,stimuli/rgb_scene000150_render000006.png,0,149,149,110,"[0, 1]",right,1,26,19,f,y,y,2019_Jul_15_1247,2AFC_task,59.94998972162162,
stimuli/rgb_scene000056_render000001.png,stimuli/rgb_scene000056_render000002.png,0,150,150,48,"[1, 0]",left,1,26,19,f,y,y,2019_Jul_15_1247,2AFC_task,59.94998972162162,
stimuli/rgb_scene000160_render000001.png,stimuli/rgb_scene000160_render000006.png,0,151,151,136,"[1, 0]",left,1,26,19,f,y,y,2019_Jul_15_1247,2AFC_task,59.94998972162162,
stimuli/rgb_scene000160_render000000.png,stimuli/rgb_scene000160_render000005.png,0,152,152,130,"[0, 1]",right,1,26,19,f,y,y,2019_Jul_15_1247,2AFC_task,59.94998972162162,
stimuli/rgb_scene000169_render000004.png,stimuli/rgb_scene000169_render000005.png,0,153,153,186,"[1, 0]",left,1,26,19,f,y,y,2019_Jul_15_1247,2AFC_task,59.94998972162162,
stimuli/rgb_scene000042_render000004.png,stimuli/rgb_scene000042_render000005.png,0,154,154,18,"[1, 0]",left,1,26,19,f,y,y,2019_Jul_15_1247,2AFC_task,59.94998972162162,
stimuli/rgb_scene000150_render000004.png,stimuli/rgb_scene000150_render000005.png,0,155,155,123,"[0, 1]",right,1,26,19,f,y,y,2019_Jul_15_1247,2AFC_task,59.94998972162162,
stimuli/rgb_scene000169_render000003.png,stimuli/rgb_scene000169_render000005.png,0,156,156,184,"[0, 1]",right,1,26,19,f,y,y,2019_Jul_15_1247,2AFC_task,59.94998972162162,
stimuli/rgb_scene000066_render000002.png,stimuli/rgb_scene000066_render000006.png,0,157,157,77,"[1, 0]",left,1,26,19,f,y,y,2019_Jul_15_1247,2AFC_task,59.94998972162162,
stimuli/rgb_scene000056_render000000.png,stimuli/rgb_scene000056_render000005.png,0,158,158,46,"[1, 0]",left,1,26,19,f,y,y,2019_Jul_15_1247,2AFC_task,59.94998972162162,
stimuli/rgb_scene000042_render000002.png,stimuli/rgb_scene000042_render000005.png,0,159,159,13,"[1, 0]",left,1,26,19,f,y,y,2019_Jul_15_1247,2AFC_task,59.94998972162162,
stimuli/rgb_scene000160_render000002.png,stimuli/rgb_scene000160_render000006.png,0,160,160,140,"[0, 1]",right,1,26,19,f,y,y,2019_Jul_15_1247,2AFC_task,59.94998972162162,
stimuli/rgb_scene000169_render000002.png,stimuli/rgb_scene000169_render000004.png,0,161,161,180,"[0, 1]",right,1,26,19,f,y,y,2019_Jul_15_1247,2AFC_task,59.94998972162162,
stimuli/rgb_scene000056_render000003.png,stimuli/rgb_scene000056_render000004.png,0,162,162,57,"[0, 1]",right,1,26,19,f,y,y,2019_Jul_15_1247,2AFC_task,59.94998972162162,
stimuli/rgb_scene000047_render000000.png,stimuli/rgb_scene000047_render000006.png,0,163,163,26,"[0, 1]",right,1,26,19,f,y,y,2019_Jul_15_1247,2AFC_task,59.94998972162162,
stimuli/rgb_scene000169_render000000.png,stimuli/rgb_scene000169_render000002.png,0,164,164,169,"[1, 0]",right,0,26,19,f,y,y,2019_Jul_15_1247,2AFC_task,59.94998972162162,
stimuli/rgb_scene000147_render000001.png,stimuli/rgb_scene000147_render000004.png,0,165,165,92,"[1, 0]",left,1,26,19,f,y,y,2019_Jul_15_1247,2AFC_task,59.94998972162162,
stimuli/rgb_scene000150_render000003.png,stimuli/rgb_scene000150_render000006.png,0,166,166,122,"[1, 0]",left,1,26,19,f,y,y,2019_Jul_15_1247,2AFC_task,59.94998972162162,
stimuli/rgb_scene000147_render000002.png,stimuli/rgb_scene000147_render000005.png,0,167,167,97,"[0, 1]",right,1,26,19,f,y,y,2019_Jul_15_1247,2AFC_task,59.94998972162162,
stimuli/rgb_scene000056_render000002.png,stimuli/rgb_scene000056_render000003.png,0,168,168,53,"[1, 0]",left,1,26,19,f,y,y,2019_Jul_15_1247,2AFC_task,59.94998972162162,
stimuli/rgb_scene000165_render000001.png,stimuli/rgb_scene000165_render000005.png,0,169,169,156,"[1, 0]",left,1,26,19,f,y,y,2019_Jul_15_1247,2AFC_task,59.94998972162162,
stimuli/rgb_scene000066_render000000.png,stimuli/rgb_scene000066_render000005.png,0,170,170,67,"[0, 1]",right,1,26,19,f,y,y,2019_Jul_15_1247,2AFC_task,59.94998972162162,
stimuli/rgb_scene000042_render000003.png,stimuli/rgb_scene000042_render000006.png,0,171,171,17,"[1, 0]",left,1,26,19,f,y,y,2019_Jul_15_1247,2AFC_task,59.94998972162162,
stimuli/rgb_scene000160_render000004.png,stimuli/rgb_scene000160_render000005.png,0,172,172,144,"[1, 0]",left,1,26,19,f,y,y,2019_Jul_15_1247,2AFC_task,59.94998972162162,
stimuli/rgb_scene000196_render000001.png,stimuli/rgb_scene000196_render000005.png,0,173,173,198,"[0, 1]",left,0,26,19,f,y,y,2019_Jul_15_1247,2AFC_task,59.94998972162162,
stimuli/rgb_scene000160_render000005.png,stimuli/rgb_scene000160_render000006.png,0,174,174,146,"[0, 1]",right,1,26,19,f,y,y,2019_Jul_15_1247,2AFC_task,59.94998972162162,
stimuli/rgb_scene000196_render000000.png,stimuli/rgb_scene000196_render000003.png,0,175,175,191,"[1, 0]",right,0,26,19,f,y,y,2019_Jul_15_1247,2AFC_task,59.94998972162162,
stimuli/rgb_scene000056_render000001.png,stimuli/rgb_scene000056_render000004.png,0,176,176,50,"[1, 0]",left,1,26,19,f,y,y,2019_Jul_15_1247,2AFC_task,59.94998972162162,
stimuli/rgb_scene000147_render000000.png,stimuli/rgb_scene000147_render000005.png,0,177,177,88,"[0, 1]",right,1,26,19,f,y,y,2019_Jul_15_1247,2AFC_task,59.94998972162162,
stimuli/rgb_scene000169_render000003.png,stimuli/rgb_scene000169_render000006.png,0,178,178,185,"[1, 0]",left,1,26,19,f,y,y,2019_Jul_15_1247,2AFC_task,59.94998972162162,
stimuli/rgb_scene000042_render000004.png,stimuli/rgb_scene000042_render000006.png,0,179,179,19,"[1, 0]",left,1,26,19,f,y,y,2019_Jul_15_1247,2AFC_task,59.94998972162162,
stimuli/rgb_scene000042_render000002.png,stimuli/rgb_scene000042_render000004.png,0,180,180,12,"[0, 1]",right,1,26,19,f,y,y,2019_Jul_15_1247,2AFC_task,59.94998972162162,
stimuli/rgb_scene000165_render000002.png,stimuli/rgb_scene000165_render000004.png,0,181,181,159,"[1, 0]",left,1,26,19,f,y,y,2019_Jul_15_1247,2AFC_task,59.94998972162162,
stimuli/rgb_scene000196_render000002.png,stimuli/rgb_scene000196_render000006.png,0,182,182,203,"[0, 1]",left,0,26,19,f,y,y,2019_Jul_15_1247,2AFC_task,59.94998972162162,
stimuli/rgb_scene000066_render000001.png,stimuli/rgb_scene000066_render000002.png,0,183,183,69,"[0, 1]",right,1,26,19,f,y,y,2019_Jul_15_1247,2AFC_task,59.94998972162162,
stimuli/rgb_scene000066_render000001.png,stimuli/rgb_scene000066_render000004.png,0,184,184,71,"[1, 0]",left,1,26,19,f,y,y,2019_Jul_15_1247,2AFC_task,59.94998972162162,
stimuli/rgb_scene000066_render000003.png,stimuli/rgb_scene000066_render000005.png,0,185,185,79,"[0, 1]",right,1,26,19,f,y,y,2019_Jul_15_1247,2AFC_task,59.94998972162162,
stimuli/rgb_scene000147_render000000.png,stimuli/rgb_scene000147_render000004.png,0,186,186,87,"[1, 0]",left,1,26,19,f,y,y,2019_Jul_15_1247,2AFC_task,59.94998972162162,
stimuli/rgb_scene000150_render000001.png,stimuli/rgb_scene000150_render000006.png,0,187,187,115,"[1, 0]",left,1,26,19,f,y,y,2019_Jul_15_1247,2AFC_task,59.94998972162162,
stimuli/rgb_scene000165_render000002.png,stimuli/rgb_scene000165_render000006.png,0,188,188,161,"[0, 1]",right,1,26,19,f,y,y,2019_Jul_15_1247,2AFC_task,59.94998972162162,
stimuli/rgb_scene000196_render000004.png,stimuli/rgb_scene000196_render000006.png,0,189,189,208,"[0, 1]",left,0,26,19,f,y,y,2019_Jul_15_1247,2AFC_task,59.94998972162162,
stimuli/rgb_scene000196_render000003.png,stimuli/rgb_scene000196_render000005.png,0,190,190,205,"[0, 1]",right,1,26,19,f,y,y,2019_Jul_15_1247,2AFC_task,59.94998972162162,
stimuli/rgb_scene000196_render000000.png,stimuli/rgb_scene000196_render000006.png,0,191,191,194,"[0, 1]",left,0,26,19,f,y,y,2019_Jul_15_1247,2AFC_task,59.94998972162162,
stimuli/rgb_scene000160_render000002.png,stimuli/rgb_scene000160_render000003.png,0,192,192,137,"[1, 0]",left,1,26,19,f,y,y,2019_Jul_15_1247,2AFC_task,59.94998972162162,
stimuli/rgb_scene000042_render000000.png,stimuli/rgb_scene000042_render000005.png,0,193,193,4,"[0, 1]",right,1,26,19,f,y,y,2019_Jul_15_1247,2AFC_task,59.94998972162162,
stimuli/rgb_scene000066_render000000.png,stimuli/rgb_scene000066_render000004.png,0,194,194,66,"[1, 0]",left,1,26,19,f,y,y,2019_Jul_15_1247,2AFC_task,59.94998972162162,
stimuli/rgb_scene000169_render000004.png,stimuli/rgb_scene000169_render000006.png,0,195,195,187,"[0, 1]",right,1,26,19,f,y,y,2019_Jul_15_1247,2AFC_task,59.94998972162162,
stimuli/rgb_scene000196_render000001.png,stimuli/rgb_scene000196_render000002.png,0,196,196,195,"[0, 1]",right,1,26,19,f,y,y,2019_Jul_15_1247,2AFC_task,59.94998972162162,
stimuli/rgb_scene000196_render000002.png,stimuli/rgb_scene000196_render000004.png,0,197,197,201,"[1, 0]",left,1,26,19,f,y,y,2019_Jul_15_1247,2AFC_task,59.94998972162162,
stimuli/rgb_scene000056_render000002.png,stimuli/rgb_scene000056_render000004.png,0,198,198,54,"[1, 0]",left,1,26,19,f,y,y,2019_Jul_15_1247,2AFC_task,59.94998972162162,
stimuli/rgb_scene000066_render000000.png,stimuli/rgb_scene000066_render000006.png,0,199,199,68,"[0, 1]",right,1,26,19,f,y,y,2019_Jul_15_1247,2AFC_task,59.94998972162162,
stimuli/rgb_scene000047_render000002.png,stimuli/rgb_scene000047_render000006.png,0,200,200,35,"[0, 1]",right,1,26,19,f,y,y,2019_Jul_15_1247,2AFC_task,59.94998972162162,
stimuli/rgb_scene000047_render000001.png,stimuli/rgb_scene000047_render000006.png,0,201,201,31,"[1, 0]",left,1,26,19,f,y,y,2019_Jul_15_1247,2AFC_task,59.94998972162162,
stimuli/rgb_scene000160_render000000.png,stimuli/rgb_scene000160_render000006.png,0,202,202,131,"[0, 1]",right,1,26,19,f,y,y,2019_Jul_15_1247,2AFC_task,59.94998972162162,
stimuli/rgb_scene000147_render000004.png,stimuli/rgb_scene000147_render000006.png,0,203,203,103,"[1, 0]",left,1,26,19,f,y,y,2019_Jul_15_1247,2AFC_task,59.94998972162162,
stimuli/rgb_scene000042_render000000.png,stimuli/rgb_scene000042_render000003.png,0,204,204,2,"[1, 0]",left,1,26,19,f,y,y,2019_Jul_15_1247,2AFC_task,59.94998972162162,
stimuli/rgb_scene000160_render000000.png,stimuli/rgb_scene000160_render000002.png,0,205,205,127,"[1, 0]",left,1,26,19,f,y,y,2019_Jul_15_1247,2AFC_task,59.94998972162162,
stimuli/rgb_scene000196_render000000.png,stimuli/rgb_scene000196_render000005.png,0,206,206,193,"[0, 1]",right,1,26,19,f,y,y,2019_Jul_15_1247,2AFC_task,59.94998972162162,
stimuli/rgb_scene000042_render000000.png,stimuli/rgb_scene000042_render000001.png,0,207,207,0,"[1, 0]",left,1,26,19,f,y,y,2019_Jul_15_1247,2AFC_task,59.94998972162162,
stimuli/rgb_scene000056_render000003.png,stimuli/rgb_scene000056_render000005.png,0,208,208,58,"[0, 1]",right,1,26,19,f,y,y,2019_Jul_15_1247,2AFC_task,59.94998972162162,
stimuli/rgb_scene000196_render000001.png,stimuli/rgb_scene000196_render000003.png,0,209,209,196,"[0, 1]",right,1,26,19,f,y,y,2019_Jul_15_1247,2AFC_task,59.94998972162162,
stimuli/rgb_scene000169_render000001.png,stimuli/rgb_scene000169_render000004.png,1,0,210,176,"[0, 1]",right,1,26,19,f,y,y,2019_Jul_15_1247,2AFC_task,59.94998972162162,
stimuli/rgb_scene000160_render000001.png,stimuli/rgb_scene000160_render000002.png,1,1,211,132,"[0, 1]",right,1,26,19,f,y,y,2019_Jul_15_1247,2AFC_task,59.94998972162162,
stimuli/rgb_scene000150_render000002.png,stimuli/rgb_scene000150_render000005.png,1,2,212,118,"[1, 0]",left,1,26,19,f,y,y,2019_Jul_15_1247,2AFC_task,59.94998972162162,
stimuli/rgb_scene000150_render000000.png,stimuli/rgb_scene000150_render000006.png,1,3,213,110,"[1, 0]",left,1,26,19,f,y,y,2019_Jul_15_1247,2AFC_task,59.94998972162162,
stimuli/rgb_scene000056_render000003.png,stimuli/rgb_scene000056_render000004.png,1,4,214,57,"[1, 0]",left,1,26,19,f,y,y,2019_Jul_15_1247,2AFC_task,59.94998972162162,
stimuli/rgb_scene000042_render000003.png,stimuli/rgb_scene000042_render000004.png,1,5,215,15,"[0, 1]",right,1,26,19,f,y,y,2019_Jul_15_1247,2AFC_task,59.94998972162162,
stimuli/rgb_scene000056_render000001.png,stimuli/rgb_scene000056_render000006.png,1,6,216,52,"[0, 1]",right,1,26,19,f,y,y,2019_Jul_15_1247,2AFC_task,59.94998972162162,
stimuli/rgb_scene000066_render000001.png,stimuli/rgb_scene000066_render000005.png,1,7,217,72,"[1, 0]",left,1,26,19,f,y,y,2019_Jul_15_1247,2AFC_task,59.94998972162162,
stimuli/rgb_scene000160_render000000.png,stimuli/rgb_scene000160_render000005.png,1,8,218,130,"[1, 0]",left,1,26,19,f,y,y,2019_Jul_15_1247,2AFC_task,59.94998972162162,
stimuli/rgb_scene000169_render000003.png,stimuli/rgb_scene000169_render000004.png,1,9,219,183,"[1, 0]",right,0,26,19,f,y,y,2019_Jul_15_1247,2AFC_task,59.94998972162162,
stimuli/rgb_scene000169_render000003.png,stimuli/rgb_scene000169_render000006.png,1,10,220,185,"[0, 1]",right,1,26,19,f,y,y,2019_Jul_15_1247,2AFC_task,59.94998972162162,
stimuli/rgb_scene000147_render000000.png,stimuli/rgb_scene000147_render000006.png,1,11,221,89,"[1, 0]",left,1,26,19,f,y,y,2019_Jul_15_1247,2AFC_task,59.94998972162162,
stimuli/rgb_scene000066_render000000.png,stimuli/rgb_scene000066_render000005.png,1,12,222,67,"[1, 0]",left,1,26,19,f,y,y,2019_Jul_15_1247,2AFC_task,59.94998972162162,
stimuli/rgb_scene000150_render000001.png,stimuli/rgb_scene000150_render000002.png,1,13,223,111,"[1, 0]",left,1,26,19,f,y,y,2019_Jul_15_1247,2AFC_task,59.94998972162162,
stimuli/rgb_scene000196_render000001.png,stimuli/rgb_scene000196_render000004.png,1,14,224,197,"[0, 1]",left,0,26,19,f,y,y,2019_Jul_15_1247,2AFC_task,59.94998972162162,
stimuli/rgb_scene000196_render000000.png,stimuli/rgb_scene000196_render000003.png,1,15,225,191,"[1, 0]",right,0,26,19,f,y,y,2019_Jul_15_1247,2AFC_task,59.94998972162162,
stimuli/rgb_scene000150_render000004.png,stimuli/rgb_scene000150_render000006.png,1,16,226,124,"[1, 0]",right,0,26,19,f,y,y,2019_Jul_15_1247,2AFC_task,59.94998972162162,
stimuli/rgb_scene000066_render000003.png,stimuli/rgb_scene000066_render000006.png,1,17,227,80,"[1, 0]",left,1,26,19,f,y,y,2019_Jul_15_1247,2AFC_task,59.94998972162162,
stimuli/rgb_scene000160_render000000.png,stimuli/rgb_scene000160_render000004.png,1,18,228,129,"[0, 1]",right,1,26,19,f,y,y,2019_Jul_15_1247,2AFC_task,59.94998972162162,
stimuli/rgb_scene000160_render000005.png,stimuli/rgb_scene000160_render000006.png,1,19,229,146,"[1, 0]",left,1,26,19,f,y,y,2019_Jul_15_1247,2AFC_task,59.94998972162162,
stimuli/rgb_scene000196_render000002.png,stimuli/rgb_scene000196_render000005.png,1,20,230,202,"[0, 1]",left,0,26,19,f,y,y,2019_Jul_15_1247,2AFC_task,59.94998972162162,
stimuli/rgb_scene000042_render000001.png,stimuli/rgb_scene000042_render000003.png,1,21,231,7,"[1, 0]",left,1,26,19,f,y,y,2019_Jul_15_1247,2AFC_task,59.94998972162162,
stimuli/rgb_scene000066_render000001.png,stimuli/rgb_scene000066_render000004.png,1,22,232,71,"[1, 0]",left,1,26,19,f,y,y,2019_Jul_15_1247,2AFC_task,59.94998972162162,
stimuli/rgb_scene000147_render000000.png,stimuli/rgb_scene000147_render000003.png,1,23,233,86,"[0, 1]",right,1,26,19,f,y,y,2019_Jul_15_1247,2AFC_task,59.94998972162162,
stimuli/rgb_scene000196_render000004.png,stimuli/rgb_scene000196_render000006.png,1,24,234,208,"[0, 1]",left,0,26,19,f,y,y,2019_Jul_15_1247,2AFC_task,59.94998972162162,
stimuli/rgb_scene000196_render000002.png,stimuli/rgb_scene000196_render000003.png,1,25,235,200,"[0, 1]",left,0,26,19,f,y,y,2019_Jul_15_1247,2AFC_task,59.94998972162162,
stimuli/rgb_scene000147_render000005.png,stimuli/rgb_scene000147_render000006.png,1,26,236,104,"[1, 0]",left,1,26,19,f,y,y,2019_Jul_15_1247,2AFC_task,59.94998972162162,
stimuli/rgb_scene000042_render000000.png,stimuli/rgb_scene000042_render000005.png,1,27,237,4,"[1, 0]",left,1,26,19,f,y,y,2019_Jul_15_1247,2AFC_task,59.94998972162162,
stimuli/rgb_scene000066_render000002.png,stimuli/rgb_scene000066_render000004.png,1,28,238,75,"[0, 1]",right,1,26,19,f,y,y,2019_Jul_15_1247,2AFC_task,59.94998972162162,
stimuli/rgb_scene000056_render000000.png,stimuli/rgb_scene000056_render000001.png,1,29,239,42,"[1, 0]",left,1,26,19,f,y,y,2019_Jul_15_1247,2AFC_task,59.94998972162162,
stimuli/rgb_scene000150_render000003.png,stimuli/rgb_scene000150_render000004.png,1,30,240,120,"[1, 0]",left,1,26,19,f,y,y,2019_Jul_15_1247,2AFC_task,59.94998972162162,
stimuli/rgb_scene000042_render000001.png,stimuli/rgb_scene000042_render000006.png,1,31,241,10,"[1, 0]",left,1,26,19,f,y,y,2019_Jul_15_1247,2AFC_task,59.94998972162162,
stimuli/rgb_scene000147_render000001.png,stimuli/rgb_scene000147_render000004.png,1,32,242,92,"[0, 1]",right,1,26,19,f,y,y,2019_Jul_15_1247,2AFC_task,59.94998972162162,
stimuli/rgb_scene000165_render000005.png,stimuli/rgb_scene000165_render000006.png,1,33,243,167,"[1, 0]",left,1,26,19,f,y,y,2019_Jul_15_1247,2AFC_task,59.94998972162162,
stimuli/rgb_scene000196_render000000.png,stimuli/rgb_scene000196_render000001.png,1,34,244,189,"[0, 1]",right,1,26,19,f,y,y,2019_Jul_15_1247,2AFC_task,59.94998972162162,
stimuli/rgb_scene000169_render000004.png,stimuli/rgb_scene000169_render000005.png,1,35,245,186,"[0, 1]",right,1,26,19,f,y,y,2019_Jul_15_1247,2AFC_task,59.94998972162162,
stimuli/rgb_scene000160_render000003.png,stimuli/rgb_scene000160_render000006.png,1,36,246,143,"[0, 1]",right,1,26,19,f,y,y,2019_Jul_15_1247,2AFC_task,59.94998972162162,
stimuli/rgb_scene000196_render000000.png,stimuli/rgb_scene000196_render000006.png,1,37,247,194,"[0, 1]",right,1,26,19,f,y,y,2019_Jul_15_1247,2AFC_task,59.94998972162162,
stimuli/rgb_scene000066_render000002.png,stimuli/rgb_scene000066_render000003.png,1,38,248,74,"[1, 0]",left,1,26,19,f,y,y,2019_Jul_15_1247,2AFC_task,59.94998972162162,
stimuli/rgb_scene000147_render000000.png,stimuli/rgb_scene000147_render000005.png,1,39,249,88,"[0, 1]",right,1,26,19,f,y,y,2019_Jul_15_1247,2AFC_task,59.94998972162162,
stimuli/rgb_scene000147_render000002.png,stimuli/rgb_scene000147_render000004.png,1,40,250,96,"[1, 0]",left,1,26,19,f,y,y,2019_Jul_15_1247,2AFC_task,59.94998972162162,
stimuli/rgb_scene000196_render000003.png,stimuli/rgb_scene000196_render000004.png,1,41,251,204,"[0, 1]",left,0,26,19,f,y,y,2019_Jul_15_1247,2AFC_task,59.94998972162162,
stimuli/rgb_scene000056_render000001.png,stimuli/rgb_scene000056_render000004.png,1,42,252,50,"[1, 0]",left,1,26,19,f,y,y,2019_Jul_15_1247,2AFC_task,59.94998972162162,
stimuli/rgb_scene000165_render000000.png,stimuli/rgb_scene000165_render000005.png,1,43,253,151,"[0, 1]",right,1,26,19,f,y,y,2019_Jul_15_1247,2AFC_task,59.94998972162162,
stimuli/rgb_scene000165_render000002.png,stimuli/rgb_scene000165_render000003.png,1,44,254,158,"[1, 0]",left,1,26,19,f,y,y,2019_Jul_15_1247,2AFC_task,59.94998972162162,
stimuli/rgb_scene000047_render000002.png,stimuli/rgb_scene000047_render000003.png,1,45,255,32,"[0, 1]",right,1,26,19,f,y,y,2019_Jul_15_1247,2AFC_task,59.94998972162162,
stimuli/rgb_scene000150_render000003.png,stimuli/rgb_scene000150_render000005.png,1,46,256,121,"[1, 0]",left,1,26,19,f,y,y,2019_Jul_15_1247,2AFC_task,59.94998972162162,
stimuli/rgb_scene000066_render000000.png,stimuli/rgb_scene000066_render000002.png,1,47,257,64,"[1, 0]",left,1,26,19,f,y,y,2019_Jul_15_1247,2AFC_task,59.94998972162162,
stimuli/rgb_scene000066_render000004.png,stimuli/rgb_scene000066_render000006.png,1,48,258,82,"[0, 1]",right,1,26,19,f,y,y,2019_Jul_15_1247,2AFC_task,59.94998972162162,
stimuli/rgb_scene000169_render000000.png,stimuli/rgb_scene000169_render000001.png,1,49,259,168,"[0, 1]",right,1,26,19,f,y,y,2019_Jul_15_1247,2AFC_task,59.94998972162162,
stimuli/rgb_scene000150_render000001.png,stimuli/rgb_scene000150_render000003.png,1,50,260,112,"[0, 1]",right,1,26,19,f,y,y,2019_Jul_15_1247,2AFC_task,59.94998972162162,
stimuli/rgb_scene000150_render000002.png,stimuli/rgb_scene000150_render000003.png,1,51,261,116,"[0, 1]",right,1,26,19,f,y,y,2019_Jul_15_1247,2AFC_task,59.94998972162162,
stimuli/rgb_scene000047_render000001.png,stimuli/rgb_scene000047_render000003.png,1,52,262,28,"[0, 1]",right,1,26,19,f,y,y,2019_Jul_15_1247,2AFC_task,59.94998972162162,
stimuli/rgb_scene000169_render000001.png,stimuli/rgb_scene000169_render000006.png,1,53,263,178,"[1, 0]",left,1,26,19,f,y,y,2019_Jul_15_1247,2AFC_task,59.94998972162162,
stimuli/rgb_scene000066_render000000.png,stimuli/rgb_scene000066_render000001.png,1,54,264,63,"[1, 0]",left,1,26,19,f,y,y,2019_Jul_15_1247,2AFC_task,59.94998972162162,
stimuli/rgb_scene000160_render000000.png,stimuli/rgb_scene000160_render000002.png,1,55,265,127,"[0, 1]",right,1,26,19,f,y,y,2019_Jul_15_1247,2AFC_task,59.94998972162162,
stimuli/rgb_scene000047_render000000.png,stimuli/rgb_scene000047_render000004.png,1,56,266,24,"[1, 0]",left,1,26,19,f,y,y,2019_Jul_15_1247,2AFC_task,59.94998972162162,
stimuli/rgb_scene000042_render000002.png,stimuli/rgb_scene000042_render000003.png,1,57,267,11,"[1, 0]",left,1,26,19,f,y,y,2019_Jul_15_1247,2AFC_task,59.94998972162162,
stimuli/rgb_scene000042_render000002.png,stimuli/rgb_scene000042_render000004.png,1,58,268,12,"[1, 0]",left,1,26,19,f,y,y,2019_Jul_15_1247,2AFC_task,59.94998972162162,
stimuli/rgb_scene000066_render000003.png,stimuli/rgb_scene000066_render000004.png,1,59,269,78,"[1, 0]",left,1,26,19,f,y,y,2019_Jul_15_1247,2AFC_task,59.94998972162162,
stimuli/rgb_scene000066_render000001.png,stimuli/rgb_scene000066_render000003.png,1,60,270,70,"[0, 1]",right,1,26,19,f,y,y,2019_Jul_15_1247,2AFC_task,59.94998972162162,
stimuli/rgb_scene000047_render000000.png,stimuli/rgb_scene000047_render000006.png,1,61,271,26,"[1, 0]",left,1,26,19,f,y,y,2019_Jul_15_1247,2AFC_task,59.94998972162162,
stimuli/rgb_scene000169_render000001.png,stimuli/rgb_scene000169_render000003.png,1,62,272,175,"[1, 0]",right,0,26,19,f,y,y,2019_Jul_15_1247,2AFC_task,59.94998972162162,
stimuli/rgb_scene000147_render000001.png,stimuli/rgb_scene000147_render000006.png,1,63,273,94,"[0, 1]",right,1,26,19,f,y,y,2019_Jul_15_1247,2AFC_task,59.94998972162162,
stimuli/rgb_scene000042_render000000.png,stimuli/rgb_scene000042_render000001.png,1,64,274,0,"[0, 1]",right,1,26,19,f,y,y,2019_Jul_15_1247,2AFC_task,59.94998972162162,
stimuli/rgb_scene000165_render000000.png,stimuli/rgb_scene000165_render000003.png,1,65,275,149,"[0, 1]",right,1,26,19,f,y,y,2019_Jul_15_1247,2AFC_task,59.94998972162162,
stimuli/rgb_scene000165_render000001.png,stimuli/rgb_scene000165_render000005.png,1,66,276,156,"[0, 1]",right,1,26,19,f,y,y,2019_Jul_15_1247,2AFC_task,59.94998972162162,
stimuli/rgb_scene000147_render000003.png,stimuli/rgb_scene000147_render000006.png,1,67,277,101,"[0, 1]",right,1,26,19,f,y,y,2019_Jul_15_1247,2AFC_task,59.94998972162162,
stimuli/rgb_scene000056_render000000.png,stimuli/rgb_scene000056_render000004.png,1,68,278,45,"[0, 1]",right,1,26,19,f,y,y,2019_Jul_15_1247,2AFC_task,59.94998972162162,
stimuli/rgb_scene000147_render000000.png,stimuli/rgb_scene000147_render000002.png,1,69,279,85,"[1, 0]",left,1,26,19,f,y,y,2019_Jul_15_1247,2AFC_task,59.94998972162162,
stimuli/rgb_scene000047_render000002.png,stimuli/rgb_scene000047_render000004.png,1,70,280,33,"[1, 0]",left,1,26,19,f,y,y,2019_Jul_15_1247,2AFC_task,59.94998972162162,
stimuli/rgb_scene000160_render000001.png,stimuli/rgb_scene000160_render000005.png,1,71,281,135,"[1, 0]",left,1,26,19,f,y,y,2019_Jul_15_1247,2AFC_task,59.94998972162162,
stimuli/rgb_scene000160_render000001.png,stimuli/rgb_scene000160_render000003.png,1,72,282,133,"[1, 0]",left,1,26,19,f,y,y,2019_Jul_15_1247,2AFC_task,59.94998972162162,
stimuli/rgb_scene000066_render000002.png,stimuli/rgb_scene000066_render000006.png,1,73,283,77,"[1, 0]",left,1,26,19,f,y,y,2019_Jul_15_1247,2AFC_task,59.94998972162162,
stimuli/rgb_scene000056_render000004.png,stimuli/rgb_scene000056_render000005.png,1,74,284,60,"[1, 0]",left,1,26,19,f,y,y,2019_Jul_15_1247,2AFC_task,59.94998972162162,
stimuli/rgb_scene000056_render000002.png,stimuli/rgb_scene000056_render000004.png,1,75,285,54,"[1, 0]",left,1,26,19,f,y,y,2019_Jul_15_1247,2AFC_task,59.94998972162162,
stimuli/rgb_scene000196_render000000.png,stimuli/rgb_scene000196_render000002.png,1,76,286,190,"[1, 0]",right,0,26,19,f,y,y,2019_Jul_15_1247,2AFC_task,59.94998972162162,
stimuli/rgb_scene000165_render000001.png,stimuli/rgb_scene000165_render000003.png,1,77,287,154,"[0, 1]",right,1,26,19,f,y,y,2019_Jul_15_1247,2AFC_task,59.94998972162162,
stimuli/rgb_scene000150_render000004.png,stimuli/rgb_scene000150_render000005.png,1,78,288,123,"[1, 0]",left,1,26,19,f,y,y,2019_Jul_15_1247,2AFC_task,59.94998972162162,
stimuli/rgb_scene000147_render000000.png,stimuli/rgb_scene000147_render000001.png,1,79,289,84,"[0, 1]",right,1,26,19,f,y,y,2019_Jul_15_1247,2AFC_task,59.94998972162162,
stimuli/rgb_scene000066_render000000.png,stimuli/rgb_scene000066_render000004.png,1,80,290,66,"[1, 0]",left,1,26,19,f,y,y,2019_Jul_15_1247,2AFC_task,59.94998972162162,
stimuli/rgb_scene000150_render000000.png,stimuli/rgb_scene000150_render000005.png,1,81,291,109,"[1, 0]",left,1,26,19,f,y,y,2019_Jul_15_1247,2AFC_task,59.94998972162162,
stimuli/rgb_scene000165_render000001.png,stimuli/rgb_scene000165_render000006.png,1,82,292,157,"[0, 1]",right,1,26,19,f,y,y,2019_Jul_15_1247,2AFC_task,59.94998972162162,
stimuli/rgb_scene000047_render000005.png,stimuli/rgb_scene000047_render000006.png,1,83,293,41,"[0, 1]",right,1,26,19,f,y,y,2019_Jul_15_1247,2AFC_task,59.94998972162162,
stimuli/rgb_scene000150_render000005.png,stimuli/rgb_scene000150_render000006.png,1,84,294,125,"[1, 0]",right,0,26,19,f,y,y,2019_Jul_15_1247,2AFC_task,59.94998972162162,
stimuli/rgb_scene000056_render000001.png,stimuli/rgb_scene000056_render000005.png,1,85,295,51,"[1, 0]",left,1,26,19,f,y,y,2019_Jul_15_1247,2AFC_task,59.94998972162162,
stimuli/rgb_scene000196_render000001.png,stimuli/rgb_scene000196_render000003.png,1,86,296,196,"[0, 1]",right,1,26,19,f,y,y,2019_Jul_15_1247,2AFC_task,59.94998972162162,
stimuli/rgb_scene000160_render000002.png,stimuli/rgb_scene000160_render000003.png,1,87,297,137,"[1, 0]",left,1,26,19,f,y,y,2019_Jul_15_1247,2AFC_task,59.94998972162162,
stimuli/rgb_scene000056_render000005.png,stimuli/rgb_scene000056_render000006.png,1,88,298,62,"[0, 1]",right,1,26,19,f,y,y,2019_Jul_15_1247,2AFC_task,59.94998972162162,
stimuli/rgb_scene000160_render000000.png,stimuli/rgb_scene000160_render000003.png,1,89,299,128,"[1, 0]",left,1,26,19,f,y,y,2019_Jul_15_1247,2AFC_task,59.94998972162162,
stimuli/rgb_scene000169_render000004.png,stimuli/rgb_scene000169_render000006.png,1,90,300,187,"[0, 1]",right,1,26,19,f,y,y,2019_Jul_15_1247,2AFC_task,59.94998972162162,
stimuli/rgb_scene000042_render000002.png,stimuli/rgb_scene000042_render000006.png,1,91,301,14,"[1, 0]",left,1,26,19,f,y,y,2019_Jul_15_1247,2AFC_task,59.94998972162162,
stimuli/rgb_scene000160_render000002.png,stimuli/rgb_scene000160_render000006.png,1,92,302,140,"[1, 0]",left,1,26,19,f,y,y,2019_Jul_15_1247,2AFC_task,59.94998972162162,
stimuli/rgb_scene000147_render000003.png,stimuli/rgb_scene000147_render000004.png,1,93,303,99,"[1, 0]",left,1,26,19,f,y,y,2019_Jul_15_1247,2AFC_task,59.94998972162162,
stimuli/rgb_scene000150_render000003.png,stimuli/rgb_scene000150_render000006.png,1,94,304,122,"[1, 0]",left,1,26,19,f,y,y,2019_Jul_15_1247,2AFC_task,59.94998972162162,
stimuli/rgb_scene000165_render000002.png,stimuli/rgb_scene000165_render000005.png,1,95,305,160,"[0, 1]",right,1,26,19,f,y,y,2019_Jul_15_1247,2AFC_task,59.94998972162162,
stimuli/rgb_scene000047_render000001.png,stimuli/rgb_scene000047_render000005.png,1,96,306,30,"[0, 1]",right,1,26,19,f,y,y,2019_Jul_15_1247,2AFC_task,59.94998972162162,
stimuli/rgb_scene000165_render000000.png,stimuli/rgb_scene000165_render000004.png,1,97,307,150,"[1, 0]",left,1,26,19,f,y,y,2019_Jul_15_1247,2AFC_task,59.94998972162162,
stimuli/rgb_scene000150_render000001.png,stimuli/rgb_scene000150_render000004.png,1,98,308,113,"[0, 1]",right,1,26,19,f,y,y,2019_Jul_15_1247,2AFC_task,59.94998972162162,
stimuli/rgb_scene000047_render000001.png,stimuli/rgb_scene000047_render000004.png,1,99,309,29,"[0, 1]",right,1,26,19,f,y,y,2019_Jul_15_1247,2AFC_task,59.94998972162162,
stimuli/rgb_scene000047_render000000.png,stimuli/rgb_scene000047_render000002.png,1,100,310,22,"[1, 0]",left,1,26,19,f,y,y,2019_Jul_15_1247,2AFC_task,59.94998972162162,
stimuli/rgb_scene000165_render000003.png,stimuli/rgb_scene000165_render000004.png,1,101,311,162,"[1, 0]",left,1,26,19,f,y,y,2019_Jul_15_1247,2AFC_task,59.94998972162162,
stimuli/rgb_scene000147_render000002.png,stimuli/rgb_scene000147_render000003.png,1,102,312,95,"[1, 0]",left,1,26,19,f,y,y,2019_Jul_15_1247,2AFC_task,59.94998972162162,
stimuli/rgb_scene000147_render000002.png,stimuli/rgb_scene000147_render000005.png,1,103,313,97,"[0, 1]",right,1,26,19,f,y,y,2019_Jul_15_1247,2AFC_task,59.94998972162162,
stimuli/rgb_scene000196_render000001.png,stimuli/rgb_scene000196_render000006.png,1,104,314,199,"[1, 0]",right,0,26,19,f,y,y,2019_Jul_15_1247,2AFC_task,59.94998972162162,
stimuli/rgb_scene000169_render000002.png,stimuli/rgb_scene000169_render000003.png,1,105,315,179,"[1, 0]",left,1,26,19,f,y,y,2019_Jul_15_1247,2AFC_task,59.94998972162162,
stimuli/rgb_scene000165_render000004.png,stimuli/rgb_scene000165_render000005.png,1,106,316,165,"[0, 1]",right,1,26,19,f,y,y,2019_Jul_15_1247,2AFC_task,59.94998972162162,
stimuli/rgb_scene000047_render000000.png,stimuli/rgb_scene000047_render000005.png,1,107,317,25,"[0, 1]",right,1,26,19,f,y,y,2019_Jul_15_1247,2AFC_task,59.94998972162162,
stimuli/rgb_scene000196_render000002.png,stimuli/rgb_scene000196_render000006.png,1,108,318,203,"[1, 0]",right,0,26,19,f,y,y,2019_Jul_15_1247,2AFC_task,59.94998972162162,
stimuli/rgb_scene000150_render000000.png,stimuli/rgb_scene000150_render000004.png,1,109,319,108,"[1, 0]",left,1,26,19,f,y,y,2019_Jul_15_1247,2AFC_task,59.94998972162162,
stimuli/rgb_scene000056_render000000.png,stimuli/rgb_scene000056_render000002.png,1,110,320,43,"[1, 0]",left,1,26,19,f,y,y,2019_Jul_15_1247,2AFC_task,59.94998972162162,
stimuli/rgb_scene000047_render000000.png,stimuli/rgb_scene000047_render000001.png,1,111,321,21,"[1, 0]",left,1,26,19,f,y,y,2019_Jul_15_1247,2AFC_task,59.94998972162162,
stimuli/rgb_scene000056_render000001.png,stimuli/rgb_scene000056_render000002.png,1,112,322,48,"[1, 0]",left,1,26,19,f,y,y,2019_Jul_15_1247,2AFC_task,59.94998972162162,
stimuli/rgb_scene000169_render000000.png,stimuli/rgb_scene000169_render000006.png,1,113,323,173,"[0, 1]",right,1,26,19,f,y,y,2019_Jul_15_1247,2AFC_task,59.94998972162162,
stimuli/rgb_scene000150_render000001.png,stimuli/rgb_scene000150_render000005.png,1,114,324,114,"[1, 0]",left,1,26,19,f,y,y,2019_Jul_15_1247,2AFC_task,59.94998972162162,
stimuli/rgb_scene000169_render000002.png,stimuli/rgb_scene000169_render000005.png,1,115,325,181,"[0, 1]",right,1,26,19,f,y,y,2019_Jul_15_1247,2AFC_task,59.94998972162162,
stimuli/rgb_scene000147_render000001.png,stimuli/rgb_scene000147_render000003.png,1,116,326,91,"[0, 1]",right,1,26,19,f,y,y,2019_Jul_15_1247,2AFC_task,59.94998972162162,
stimuli/rgb_scene000150_render000000.png,stimuli/rgb_scene000150_render000001.png,1,117,327,105,"[1, 0]",left,1,26,19,f,y,y,2019_Jul_15_1247,2AFC_task,59.94998972162162,
stimuli/rgb_scene000047_render000003.png,stimuli/rgb_scene000047_render000005.png,1,118,328,37,"[0, 1]",right,1,26,19,f,y,y,2019_Jul_15_1247,2AFC_task,59.94998972162162,
stimuli/rgb_scene000056_render000004.png,stimuli/rgb_scene000056_render000006.png,1,119,329,61,"[0, 1]",right,1,26,19,f,y,y,2019_Jul_15_1247,2AFC_task,59.94998972162162,
stimuli/rgb_scene000196_render000003.png,stimuli/rgb_scene000196_render000005.png,1,120,330,205,"[1, 0]",right,0,26,19,f,y,y,2019_Jul_15_1247,2AFC_task,59.94998972162162,
stimuli/rgb_scene000150_render000000.png,stimuli/rgb_scene000150_render000003.png,1,121,331,107,"[1, 0]",left,1,26,19,f,y,y,2019_Jul_15_1247,2AFC_task,59.94998972162162,
stimuli/rgb_scene000169_render000000.png,stimuli/rgb_scene000169_render000003.png,1,122,332,170,"[0, 1]",right,1,26,19,f,y,y,2019_Jul_15_1247,2AFC_task,59.94998972162162,
stimuli/rgb_scene000047_render000002.png,stimuli/rgb_scene000047_render000006.png,1,123,333,35,"[0, 1]",right,1,26,19,f,y,y,2019_Jul_15_1247,2AFC_task,59.94998972162162,
stimuli/rgb_scene000066_render000000.png,stimuli/rgb_scene000066_render000006.png,1,124,334,68,"[1, 0]",left,1,26,19,f,y,y,2019_Jul_15_1247,2AFC_task,59.94998972162162,
stimuli/rgb_scene000196_render000002.png,stimuli/rgb_scene000196_render000004.png,1,125,335,201,"[1, 0]",right,0,26,19,f,y,y,2019_Jul_15_1247,2AFC_task,59.94998972162162,
stimuli/rgb_scene000066_render000005.png,stimuli/rgb_scene000066_render000006.png,1,126,336,83,"[0, 1]",right,1,26,19,f,y,y,2019_Jul_15_1247,2AFC_task,59.94998972162162,
stimuli/rgb_scene000150_render000002.png,stimuli/rgb_scene000150_render000006.png,1,127,337,119,"[1, 0]",left,1,26,19,f,y,y,2019_Jul_15_1247,2AFC_task,59.94998972162162,
stimuli/rgb_scene000160_render000003.png,stimuli/rgb_scene000160_render000004.png,1,128,338,141,"[0, 1]",left,0,26,19,f,y,y,2019_Jul_15_1247,2AFC_task,59.94998972162162,
stimuli/rgb_scene000042_render000003.png,stimuli/rgb_scene000042_render000006.png,1,129,339,17,"[1, 0]",left,1,26,19,f,y,y,2019_Jul_15_1247,2AFC_task,59.94998972162162,
stimuli/rgb_scene000066_render000001.png,stimuli/rgb_scene000066_render000002.png,1,130,340,69,"[1, 0]",left,1,26,19,f,y,y,2019_Jul_15_1247,2AFC_task,59.94998972162162,
stimuli/rgb_scene000160_render000003.png,stimuli/rgb_scene000160_render000005.png,1,131,341,142,"[1, 0]",left,1,26,19,f,y,y,2019_Jul_15_1247,2AFC_task,59.94998972162162,
stimuli/rgb_scene000056_render000000.png,stimuli/rgb_scene000056_render000003.png,1,132,342,44,"[0, 1]",right,1,26,19,f,y,y,2019_Jul_15_1247,2AFC_task,59.94998972162162,
stimuli/rgb_scene000147_render000001.png,stimuli/rgb_scene000147_render000002.png,1,133,343,90,"[0, 1]",right,1,26,19,f,y,y,2019_Jul_15_1247,2AFC_task,59.94998972162162,
stimuli/rgb_scene000147_render000004.png,stimuli/rgb_scene000147_render000005.png,1,134,344,102,"[0, 1]",right,1,26,19,f,y,y,2019_Jul_15_1247,2AFC_task,59.94998972162162,
stimuli/rgb_scene000165_render000001.png,stimuli/rgb_scene000165_render000004.png,1,135,345,155,"[1, 0]",left,1,26,19,f,y,y,2019_Jul_15_1247,2AFC_task,59.94998972162162,
stimuli/rgb_scene000160_render000000.png,stimuli/rgb_scene000160_render000006.png,1,136,346,131,"[1, 0]",left,1,26,19,f,y,y,2019_Jul_15_1247,2AFC_task,59.94998972162162,
stimuli/rgb_scene000169_render000002.png,stimuli/rgb_scene000169_render000004.png,1,137,347,180,"[0, 1]",right,1,26,19,f,y,y,2019_Jul_15_1247,2AFC_task,59.94998972162162,
stimuli/rgb_scene000042_render000000.png,stimuli/rgb_scene000042_render000003.png,1,138,348,2,"[1, 0]",left,1,26,19,f,y,y,2019_Jul_15_1247,2AFC_task,59.94998972162162,
stimuli/rgb_scene000042_render000004.png,stimuli/rgb_scene000042_render000006.png,1,139,349,19,"[1, 0]",left,1,26,19,f,y,y,2019_Jul_15_1247,2AFC_task,59.94998972162162,
stimuli/rgb_scene000150_render000000.png,stimuli/rgb_scene000150_render000002.png,1,140,350,106,"[0, 1]",right,1,26,19,f,y,y,2019_Jul_15_1247,2AFC_task,59.94998972162162,
stimuli/rgb_scene000066_render000000.png,stimuli/rgb_scene000066_render000003.png,1,141,351,65,"[0, 1]",right,1,26,19,f,y,y,2019_Jul_15_1247,2AFC_task,59.94998972162162,
stimuli/rgb_scene000165_render000003.png,stimuli/rgb_scene000165_render000006.png,1,142,352,164,"[0, 1]",right,1,26,19,f,y,y,2019_Jul_15_1247,2AFC_task,59.94998972162162,
stimuli/rgb_scene000196_render000001.png,stimuli/rgb_scene000196_render000002.png,1,143,353,195,"[0, 1]",right,1,26,19,f,y,y,2019_Jul_15_1247,2AFC_task,59.94998972162162,
stimuli/rgb_scene000047_render000004.png,stimuli/rgb_scene000047_render000006.png,1,144,354,40,"[1, 0]",left,1,26,19,f,y,y,2019_Jul_15_1247,2AFC_task,59.94998972162162,
stimuli/rgb_scene000165_render000001.png,stimuli/rgb_scene000165_render000002.png,1,145,355,153,"[0, 1]",right,1,26,19,f,y,y,2019_Jul_15_1247,2AFC_task,59.94998972162162,
stimuli/rgb_scene000169_render000003.png,stimuli/rgb_scene000169_render000005.png,1,146,356,184,"[1, 0]",left,1,26,19,f,y,y,2019_Jul_15_1247,2AFC_task,59.94998972162162,
stimuli/rgb_scene000169_render000000.png,stimuli/rgb_scene000169_render000004.png,1,147,357,171,"[0, 1]",right,1,26,19,f,y,y,2019_Jul_15_1247,2AFC_task,59.94998972162162,
stimuli/rgb_scene000147_render000001.png,stimuli/rgb_scene000147_render000005.png,1,148,358,93,"[0, 1]",right,1,26,19,f,y,y,2019_Jul_15_1247,2AFC_task,59.94998972162162,
stimuli/rgb_scene000056_render000000.png,stimuli/rgb_scene000056_render000005.png,1,149,359,46,"[0, 1]",right,1,26,19,f,y,y,2019_Jul_15_1247,2AFC_task,59.94998972162162,
stimuli/rgb_scene000196_render000005.png,stimuli/rgb_scene000196_render000006.png,1,150,360,209,"[0, 1]",right,1,26,19,f,y,y,2019_Jul_15_1247,2AFC_task,59.94998972162162,
stimuli/rgb_scene000066_render000002.png,stimuli/rgb_scene000066_render000005.png,1,151,361,76,"[1, 0]",left,1,26,19,f,y,y,2019_Jul_15_1247,2AFC_task,59.94998972162162,
stimuli/rgb_scene000047_render000001.png,stimuli/rgb_scene000047_render000002.png,1,152,362,27,"[0, 1]",right,1,26,19,f,y,y,2019_Jul_15_1247,2AFC_task,59.94998972162162,
stimuli/rgb_scene000196_render000000.png,stimuli/rgb_scene000196_render000005.png,1,153,363,193,"[1, 0]",right,0,26,19,f,y,y,2019_Jul_15_1247,2AFC_task,59.94998972162162,
stimuli/rgb_scene000047_render000002.png,stimuli/rgb_scene000047_render000005.png,1,154,364,34,"[0, 1]",right,1,26,19,f,y,y,2019_Jul_15_1247,2AFC_task,59.94998972162162,
stimuli/rgb_scene000056_render000000.png,stimuli/rgb_scene000056_render000006.png,1,155,365,47,"[1, 0]",left,1,26,19,f,y,y,2019_Jul_15_1247,2AFC_task,59.94998972162162,
stimuli/rgb_scene000056_render000003.png,stimuli/rgb_scene000056_render000005.png,1,156,366,58,"[1, 0]",left,1,26,19,f,y,y,2019_Jul_15_1247,2AFC_task,59.94998972162162,
stimuli/rgb_scene000169_render000000.png,stimuli/rgb_scene000169_render000002.png,1,157,367,169,"[0, 1]",right,1,26,19,f,y,y,2019_Jul_15_1247,2AFC_task,59.94998972162162,
stimuli/rgb_scene000042_render000002.png,stimuli/rgb_scene000042_render000005.png,1,158,368,13,"[0, 1]",right,1,26,19,f,y,y,2019_Jul_15_1247,2AFC_task,59.94998972162162,
stimuli/rgb_scene000047_render000003.png,stimuli/rgb_scene000047_render000006.png,1,159,369,38,"[0, 1]",right,1,26,19,f,y,y,2019_Jul_15_1247,2AFC_task,59.94998972162162,
stimuli/rgb_scene000042_render000003.png,stimuli/rgb_scene000042_render000005.png,1,160,370,16,"[1, 0]",left,1,26,19,f,y,y,2019_Jul_15_1247,2AFC_task,59.94998972162162,
stimuli/rgb_scene000160_render000004.png,stimuli/rgb_scene000160_render000005.png,1,161,371,144,"[0, 1]",right,1,26,19,f,y,y,2019_Jul_15_1247,2AFC_task,59.94998972162162,
stimuli/rgb_scene000042_render000000.png,stimuli/rgb_scene000042_render000006.png,1,162,372,5,"[1, 0]",left,1,26,19,f,y,y,2019_Jul_15_1247,2AFC_task,59.94998972162162,
stimuli/rgb_scene000147_render000000.png,stimuli/rgb_scene000147_render000004.png,1,163,373,87,"[0, 1]",right,1,26,19,f,y,y,2019_Jul_15_1247,2AFC_task,59.94998972162162,
stimuli/rgb_scene000196_render000003.png,stimuli/rgb_scene000196_render000006.png,1,164,374,206,"[1, 0]",right,0,26,19,f,y,y,2019_Jul_15_1247,2AFC_task,59.94998972162162,
stimuli/rgb_scene000196_render000004.png,stimuli/rgb_scene000196_render000005.png,1,165,375,207,"[0, 1]",right,1,26,19,f,y,y,2019_Jul_15_1247,2AFC_task,59.94998972162162,
stimuli/rgb_scene000047_render000001.png,stimuli/rgb_scene000047_render000006.png,1,166,376,31,"[1, 0]",left,1,26,19,f,y,y,2019_Jul_15_1247,2AFC_task,59.94998972162162,
stimuli/rgb_scene000165_render000004.png,stimuli/rgb_scene000165_render000006.png,1,167,377,166,"[0, 1]",right,1,26,19,f,y,y,2019_Jul_15_1247,2AFC_task,59.94998972162162,
stimuli/rgb_scene000165_render000000.png,stimuli/rgb_scene000165_render000006.png,1,168,378,152,"[1, 0]",left,1,26,19,f,y,y,2019_Jul_15_1247,2AFC_task,59.94998972162162,
stimuli/rgb_scene000147_render000004.png,stimuli/rgb_scene000147_render000006.png,1,169,379,103,"[0, 1]",right,1,26,19,f,y,y,2019_Jul_15_1247,2AFC_task,59.94998972162162,
stimuli/rgb_scene000042_render000005.png,stimuli/rgb_scene000042_render000006.png,1,170,380,20,"[0, 1]",right,1,26,19,f,y,y,2019_Jul_15_1247,2AFC_task,59.94998972162162,
stimuli/rgb_scene000160_render000001.png,stimuli/rgb_scene000160_render000006.png,1,171,381,136,"[1, 0]",left,1,26,19,f,y,y,2019_Jul_15_1247,2AFC_task,59.94998972162162,
stimuli/rgb_scene000147_render000002.png,stimuli/rgb_scene000147_render000006.png,1,172,382,98,"[1, 0]",left,1,26,19,f,y,y,2019_Jul_15_1247,2AFC_task,59.94998972162162,
stimuli/rgb_scene000165_render000000.png,stimuli/rgb_scene000165_render000002.png,1,173,383,148,"[0, 1]",right,1,26,19,f,y,y,2019_Jul_15_1247,2AFC_task,59.94998972162162,
stimuli/rgb_scene000042_render000004.png,stimuli/rgb_scene000042_render000005.png,1,174,384,18,"[1, 0]",left,1,26,19,f,y,y,2019_Jul_15_1247,2AFC_task,59.94998972162162,
stimuli/rgb_scene000056_render000002.png,stimuli/rgb_scene000056_render000006.png,1,175,385,56,"[0, 1]",right,1,26,19,f,y,y,2019_Jul_15_1247,2AFC_task,59.94998972162162,
stimuli/rgb_scene000047_render000000.png,stimuli/rgb_scene000047_render000003.png,1,176,386,23,"[0, 1]",right,1,26,19,f,y,y,2019_Jul_15_1247,2AFC_task,59.94998972162162,
stimuli/rgb_scene000042_render000001.png,stimuli/rgb_scene000042_render000004.png,1,177,387,8,"[0, 1]",right,1,26,19,f,y,y,2019_Jul_15_1247,2AFC_task,59.94998972162162,
stimuli/rgb_scene000150_render000002.png,stimuli/rgb_scene000150_render000004.png,1,178,388,117,"[1, 0]",left,1,26,19,f,y,y,2019_Jul_15_1247,2AFC_task,59.94998972162162,
stimuli/rgb_scene000066_render000004.png,stimuli/rgb_scene000066_render000005.png,1,179,389,81,"[0, 1]",right,1,26,19,f,y,y,2019_Jul_15_1247,2AFC_task,59.94998972162162,
stimuli/rgb_scene000165_render000002.png,stimuli/rgb_scene000165_render000006.png,1,180,390,161,"[0, 1]",right,1,26,19,f,y,y,2019_Jul_15_1247,2AFC_task,59.94998972162162,
stimuli/rgb_scene000196_render000001.png,stimuli/rgb_scene000196_render000005.png,1,181,391,198,"[0, 1]",right,1,26,19,f,y,y,2019_Jul_15_1247,2AFC_task,59.94998972162162,
stimuli/rgb_scene000047_render000004.png,stimuli/rgb_scene000047_render000005.png,1,182,392,39,"[0, 1]",right,1,26,19,f,y,y,2019_Jul_15_1247,2AFC_task,59.94998972162162,
stimuli/rgb_scene000047_render000003.png,stimuli/rgb_scene000047_render000004.png,1,183,393,36,"[0, 1]",right,1,26,19,f,y,y,2019_Jul_15_1247,2AFC_task,59.94998972162162,
stimuli/rgb_scene000169_render000000.png,stimuli/rgb_scene000169_render000005.png,1,184,394,172,"[1, 0]",left,1,26,19,f,y,y,2019_Jul_15_1247,2AFC_task,59.94998972162162,
stimuli/rgb_scene000169_render000005.png,stimuli/rgb_scene000169_render000006.png,1,185,395,188,"[1, 0]",left,1,26,19,f,y,y,2019_Jul_15_1247,2AFC_task,59.94998972162162,
stimuli/rgb_scene000160_render000001.png,stimuli/rgb_scene000160_render000004.png,1,186,396,134,"[1, 0]",left,1,26,19,f,y,y,2019_Jul_15_1247,2AFC_task,59.94998972162162,
stimuli/rgb_scene000147_render000003.png,stimuli/rgb_scene000147_render000005.png,1,187,397,100,"[1, 0]",left,1,26,19,f,y,y,2019_Jul_15_1247,2AFC_task,59.94998972162162,
stimuli/rgb_scene000160_render000002.png,stimuli/rgb_scene000160_render000004.png,1,188,398,138,"[1, 0]",left,1,26,19,f,y,y,2019_Jul_15_1247,2AFC_task,59.94998972162162,
stimuli/rgb_scene000169_render000002.png,stimuli/rgb_scene000169_render000006.png,1,189,399,182,"[1, 0]",left,1,26,19,f,y,y,2019_Jul_15_1247,2AFC_task,59.94998972162162,
stimuli/rgb_scene000056_render000003.png,stimuli/rgb_scene000056_render000006.png,1,190,400,59,"[1, 0]",left,1,26,19,f,y,y,2019_Jul_15_1247,2AFC_task,59.94998972162162,
stimuli/rgb_scene000042_render000001.png,stimuli/rgb_scene000042_render000002.png,1,191,401,6,"[1, 0]",left,1,26,19,f,y,y,2019_Jul_15_1247,2AFC_task,59.94998972162162,
stimuli/rgb_scene000160_render000000.png,stimuli/rgb_scene000160_render000001.png,1,192,402,126,"[1, 0]",left,1,26,19,f,y,y,2019_Jul_15_1247,2AFC_task,59.94998972162162,
stimuli/rgb_scene000196_render000000.png,stimuli/rgb_scene000196_render000004.png,1,193,403,192,"[0, 1]",left,0,26,19,f,y,y,2019_Jul_15_1247,2AFC_task,59.94998972162162,
stimuli/rgb_scene000160_render000004.png,stimuli/rgb_scene000160_render000006.png,1,194,404,145,"[0, 1]",right,1,26,19,f,y,y,2019_Jul_15_1247,2AFC_task,59.94998972162162,
stimuli/rgb_scene000169_render000001.png,stimuli/rgb_scene000169_render000005.png,1,195,405,177,"[1, 0]",left,1,26,19,f,y,y,2019_Jul_15_1247,2AFC_task,59.94998972162162,
stimuli/rgb_scene000160_render000002.png,stimuli/rgb_scene000160_render000005.png,1,196,406,139,"[0, 1]",right,1,26,19,f,y,y,2019_Jul_15_1247,2AFC_task,59.94998972162162,
stimuli/rgb_scene000165_render000000.png,stimuli/rgb_scene000165_render000001.png,1,197,407,147,"[0, 1]",right,1,26,19,f,y,y,2019_Jul_15_1247,2AFC_task,59.94998972162162,
stimuli/rgb_scene000056_render000002.png,stimuli/rgb_scene000056_render000003.png,1,198,408,53,"[0, 1]",right,1,26,19,f,y,y,2019_Jul_15_1247,2AFC_task,59.94998972162162,
stimuli/rgb_scene000066_render000001.png,stimuli/rgb_scene000066_render000006.png,1,199,409,73,"[0, 1]",right,1,26,19,f,y,y,2019_Jul_15_1247,2AFC_task,59.94998972162162,
stimuli/rgb_scene000150_render000001.png,stimuli/rgb_scene000150_render000006.png,1,200,410,115,"[1, 0]",left,1,26,19,f,y,y,2019_Jul_15_1247,2AFC_task,59.94998972162162,
stimuli/rgb_scene000066_render000003.png,stimuli/rgb_scene000066_render000005.png,1,201,411,79,"[0, 1]",right,1,26,19,f,y,y,2019_Jul_15_1247,2AFC_task,59.94998972162162,
stimuli/rgb_scene000042_render000001.png,stimuli/rgb_scene000042_render000005.png,1,202,412,9,"[0, 1]",right,1,26,19,f,y,y,2019_Jul_15_1247,2AFC_task,59.94998972162162,
stimuli/rgb_scene000165_render000003.png,stimuli/rgb_scene000165_render000005.png,1,203,413,163,"[0, 1]",right,1,26,19,f,y,y,2019_Jul_15_1247,2AFC_task,59.94998972162162,
stimuli/rgb_scene000165_render000002.png,stimuli/rgb_scene000165_render000004.png,1,204,414,159,"[0, 1]",right,1,26,19,f,y,y,2019_Jul_15_1247,2AFC_task,59.94998972162162,
stimuli/rgb_scene000056_render000001.png,stimuli/rgb_scene000056_render000003.png,1,205,415,49,"[0, 1]",right,1,26,19,f,y,y,2019_Jul_15_1247,2AFC_task,59.94998972162162,
stimuli/rgb_scene000042_render000000.png,stimuli/rgb_scene000042_render000004.png,1,206,416,3,"[0, 1]",right,1,26,19,f,y,y,2019_Jul_15_1247,2AFC_task,59.94998972162162,
stimuli/rgb_scene000056_render000002.png,stimuli/rgb_scene000056_render000005.png,1,207,417,55,"[0, 1]",right,1,26,19,f,y,y,2019_Jul_15_1247,2AFC_task,59.94998972162162,
stimuli/rgb_scene000169_render000001.png,stimuli/rgb_scene000169_render000002.png,1,208,418,174,"[0, 1]",right,1,26,19,f,y,y,2019_Jul_15_1247,2AFC_task,59.94998972162162,
stimuli/rgb_scene000042_render000000.png,stimuli/rgb_scene000042_render000002.png,1,209,419,1,"[1, 0]",left,1,26,19,f,y,y,2019_Jul_15_1247,2AFC_task,59.94998972162162,
