stimOne,stimTwo,trials_1.thisRepN,trials_1.thisTrialN,trials_1.thisN,trials_1.thisIndex,presentation_positions,resp_key,corresponding_image,participant ID (two digits, e.g. 01),age,gender (m/f/-),normal or corrected-to-normal vision (y/n),normal colour vision (y/n),date,expName,frameRate,
stimuli/rgb_scene000056_render000002.png,stimuli/rgb_scene000056_render000004.png,0,0,0,54,"[0, 1]",right,1,27,32,m,y,y,2019_Jul_16_1436,2AFC_task,59.96339834217518,
stimuli/rgb_scene000056_render000000.png,stimuli/rgb_scene000056_render000001.png,0,1,1,42,"[1, 0]",left,1,27,32,m,y,y,2019_Jul_16_1436,2AFC_task,59.96339834217518,
stimuli/rgb_scene000066_render000001.png,stimuli/rgb_scene000066_render000002.png,0,2,2,69,"[0, 1]",right,1,27,32,m,y,y,2019_Jul_16_1436,2AFC_task,59.96339834217518,
stimuli/rgb_scene000066_render000001.png,stimuli/rgb_scene000066_render000003.png,0,3,3,70,"[0, 1]",right,1,27,32,m,y,y,2019_Jul_16_1436,2AFC_task,59.96339834217518,
stimuli/rgb_scene000160_render000004.png,stimuli/rgb_scene000160_render000005.png,0,4,4,144,"[1, 0]",left,1,27,32,m,y,y,2019_Jul_16_1436,2AFC_task,59.96339834217518,
stimuli/rgb_scene000165_render000001.png,stimuli/rgb_scene000165_render000004.png,0,5,5,155,"[0, 1]",right,1,27,32,m,y,y,2019_Jul_16_1436,2AFC_task,59.96339834217518,
stimuli/rgb_scene000066_render000001.png,stimuli/rgb_scene000066_render000006.png,0,6,6,73,"[1, 0]",left,1,27,32,m,y,y,2019_Jul_16_1436,2AFC_task,59.96339834217518,
stimuli/rgb_scene000056_render000001.png,stimuli/rgb_scene000056_render000005.png,0,7,7,51,"[0, 1]",right,1,27,32,m,y,y,2019_Jul_16_1436,2AFC_task,59.96339834217518,
stimuli/rgb_scene000042_render000003.png,stimuli/rgb_scene000042_render000004.png,0,8,8,15,"[0, 1]",left,0,27,32,m,y,y,2019_Jul_16_1436,2AFC_task,59.96339834217518,
stimuli/rgb_scene000165_render000000.png,stimuli/rgb_scene000165_render000001.png,0,9,9,147,"[1, 0]",left,1,27,32,m,y,y,2019_Jul_16_1436,2AFC_task,59.96339834217518,
stimuli/rgb_scene000150_render000003.png,stimuli/rgb_scene000150_render000004.png,0,10,10,120,"[0, 1]",right,1,27,32,m,y,y,2019_Jul_16_1436,2AFC_task,59.96339834217518,
stimuli/rgb_scene000066_render000005.png,stimuli/rgb_scene000066_render000006.png,0,11,11,83,"[1, 0]",left,1,27,32,m,y,y,2019_Jul_16_1436,2AFC_task,59.96339834217518,
stimuli/rgb_scene000165_render000002.png,stimuli/rgb_scene000165_render000006.png,0,12,12,161,"[1, 0]",left,1,27,32,m,y,y,2019_Jul_16_1436,2AFC_task,59.96339834217518,
stimuli/rgb_scene000196_render000002.png,stimuli/rgb_scene000196_render000004.png,0,13,13,201,"[0, 1]",left,0,27,32,m,y,y,2019_Jul_16_1436,2AFC_task,59.96339834217518,
stimuli/rgb_scene000047_render000002.png,stimuli/rgb_scene000047_render000006.png,0,14,14,35,"[0, 1]",right,1,27,32,m,y,y,2019_Jul_16_1436,2AFC_task,59.96339834217518,
stimuli/rgb_scene000165_render000000.png,stimuli/rgb_scene000165_render000004.png,0,15,15,150,"[1, 0]",left,1,27,32,m,y,y,2019_Jul_16_1436,2AFC_task,59.96339834217518,
stimuli/rgb_scene000165_render000001.png,stimuli/rgb_scene000165_render000003.png,0,16,16,154,"[0, 1]",right,1,27,32,m,y,y,2019_Jul_16_1436,2AFC_task,59.96339834217518,
stimuli/rgb_scene000056_render000003.png,stimuli/rgb_scene000056_render000005.png,0,17,17,58,"[1, 0]",left,1,27,32,m,y,y,2019_Jul_16_1436,2AFC_task,59.96339834217518,
stimuli/rgb_scene000042_render000002.png,stimuli/rgb_scene000042_render000004.png,0,18,18,12,"[0, 1]",right,1,27,32,m,y,y,2019_Jul_16_1436,2AFC_task,59.96339834217518,
stimuli/rgb_scene000160_render000001.png,stimuli/rgb_scene000160_render000006.png,0,19,19,136,"[1, 0]",left,1,27,32,m,y,y,2019_Jul_16_1436,2AFC_task,59.96339834217518,
stimuli/rgb_scene000066_render000000.png,stimuli/rgb_scene000066_render000004.png,0,20,20,66,"[0, 1]",right,1,27,32,m,y,y,2019_Jul_16_1436,2AFC_task,59.96339834217518,
stimuli/rgb_scene000196_render000001.png,stimuli/rgb_scene000196_render000003.png,0,21,21,196,"[0, 1]",right,1,27,32,m,y,y,2019_Jul_16_1436,2AFC_task,59.96339834217518,
stimuli/rgb_scene000196_render000000.png,stimuli/rgb_scene000196_render000004.png,0,22,22,192,"[0, 1]",right,1,27,32,m,y,y,2019_Jul_16_1436,2AFC_task,59.96339834217518,
stimuli/rgb_scene000042_render000003.png,stimuli/rgb_scene000042_render000006.png,0,23,23,17,"[0, 1]",right,1,27,32,m,y,y,2019_Jul_16_1436,2AFC_task,59.96339834217518,
stimuli/rgb_scene000169_render000002.png,stimuli/rgb_scene000169_render000005.png,0,24,24,181,"[0, 1]",right,1,27,32,m,y,y,2019_Jul_16_1436,2AFC_task,59.96339834217518,
stimuli/rgb_scene000160_render000003.png,stimuli/rgb_scene000160_render000004.png,0,25,25,141,"[0, 1]",right,1,27,32,m,y,y,2019_Jul_16_1436,2AFC_task,59.96339834217518,
stimuli/rgb_scene000056_render000000.png,stimuli/rgb_scene000056_render000006.png,0,26,26,47,"[0, 1]",right,1,27,32,m,y,y,2019_Jul_16_1436,2AFC_task,59.96339834217518,
stimuli/rgb_scene000165_render000000.png,stimuli/rgb_scene000165_render000003.png,0,27,27,149,"[1, 0]",left,1,27,32,m,y,y,2019_Jul_16_1436,2AFC_task,59.96339834217518,
stimuli/rgb_scene000042_render000005.png,stimuli/rgb_scene000042_render000006.png,0,28,28,20,"[1, 0]",left,1,27,32,m,y,y,2019_Jul_16_1436,2AFC_task,59.96339834217518,
stimuli/rgb_scene000165_render000002.png,stimuli/rgb_scene000165_render000004.png,0,29,29,159,"[0, 1]",right,1,27,32,m,y,y,2019_Jul_16_1436,2AFC_task,59.96339834217518,
stimuli/rgb_scene000066_render000003.png,stimuli/rgb_scene000066_render000005.png,0,30,30,79,"[0, 1]",right,1,27,32,m,y,y,2019_Jul_16_1436,2AFC_task,59.96339834217518,
stimuli/rgb_scene000047_render000001.png,stimuli/rgb_scene000047_render000004.png,0,31,31,29,"[1, 0]",left,1,27,32,m,y,y,2019_Jul_16_1436,2AFC_task,59.96339834217518,
stimuli/rgb_scene000196_render000003.png,stimuli/rgb_scene000196_render000005.png,0,32,32,205,"[0, 1]",left,0,27,32,m,y,y,2019_Jul_16_1436,2AFC_task,59.96339834217518,
stimuli/rgb_scene000042_render000000.png,stimuli/rgb_scene000042_render000003.png,0,33,33,2,"[1, 0]",left,1,27,32,m,y,y,2019_Jul_16_1436,2AFC_task,59.96339834217518,
stimuli/rgb_scene000160_render000001.png,stimuli/rgb_scene000160_render000002.png,0,34,34,132,"[1, 0]",left,1,27,32,m,y,y,2019_Jul_16_1436,2AFC_task,59.96339834217518,
stimuli/rgb_scene000196_render000001.png,stimuli/rgb_scene000196_render000002.png,0,35,35,195,"[1, 0]",left,1,27,32,m,y,y,2019_Jul_16_1436,2AFC_task,59.96339834217518,
stimuli/rgb_scene000047_render000005.png,stimuli/rgb_scene000047_render000006.png,0,36,36,41,"[1, 0]",left,1,27,32,m,y,y,2019_Jul_16_1436,2AFC_task,59.96339834217518,
stimuli/rgb_scene000169_render000001.png,stimuli/rgb_scene000169_render000002.png,0,37,37,174,"[0, 1]",right,1,27,32,m,y,y,2019_Jul_16_1436,2AFC_task,59.96339834217518,
stimuli/rgb_scene000056_render000001.png,stimuli/rgb_scene000056_render000006.png,0,38,38,52,"[0, 1]",right,1,27,32,m,y,y,2019_Jul_16_1436,2AFC_task,59.96339834217518,
stimuli/rgb_scene000160_render000000.png,stimuli/rgb_scene000160_render000005.png,0,39,39,130,"[0, 1]",right,1,27,32,m,y,y,2019_Jul_16_1436,2AFC_task,59.96339834217518,
stimuli/rgb_scene000066_render000000.png,stimuli/rgb_scene000066_render000001.png,0,40,40,63,"[0, 1]",left,0,27,32,m,y,y,2019_Jul_16_1436,2AFC_task,59.96339834217518,
stimuli/rgb_scene000042_render000000.png,stimuli/rgb_scene000042_render000006.png,0,41,41,5,"[1, 0]",left,1,27,32,m,y,y,2019_Jul_16_1436,2AFC_task,59.96339834217518,
stimuli/rgb_scene000047_render000000.png,stimuli/rgb_scene000047_render000003.png,0,42,42,23,"[0, 1]",right,1,27,32,m,y,y,2019_Jul_16_1436,2AFC_task,59.96339834217518,
stimuli/rgb_scene000160_render000000.png,stimuli/rgb_scene000160_render000001.png,0,43,43,126,"[0, 1]",right,1,27,32,m,y,y,2019_Jul_16_1436,2AFC_task,59.96339834217518,
stimuli/rgb_scene000147_render000005.png,stimuli/rgb_scene000147_render000006.png,0,44,44,104,"[0, 1]",right,1,27,32,m,y,y,2019_Jul_16_1436,2AFC_task,59.96339834217518,
stimuli/rgb_scene000165_render000002.png,stimuli/rgb_scene000165_render000003.png,0,45,45,158,"[1, 0]",left,1,27,32,m,y,y,2019_Jul_16_1436,2AFC_task,59.96339834217518,
stimuli/rgb_scene000169_render000002.png,stimuli/rgb_scene000169_render000003.png,0,46,46,179,"[0, 1]",right,1,27,32,m,y,y,2019_Jul_16_1436,2AFC_task,59.96339834217518,
stimuli/rgb_scene000165_render000003.png,stimuli/rgb_scene000165_render000004.png,0,47,47,162,"[1, 0]",left,1,27,32,m,y,y,2019_Jul_16_1436,2AFC_task,59.96339834217518,
stimuli/rgb_scene000066_render000002.png,stimuli/rgb_scene000066_render000003.png,0,48,48,74,"[0, 1]",right,1,27,32,m,y,y,2019_Jul_16_1436,2AFC_task,59.96339834217518,
stimuli/rgb_scene000056_render000004.png,stimuli/rgb_scene000056_render000006.png,0,49,49,61,"[0, 1]",left,0,27,32,m,y,y,2019_Jul_16_1436,2AFC_task,59.96339834217518,
stimuli/rgb_scene000165_render000000.png,stimuli/rgb_scene000165_render000002.png,0,50,50,148,"[0, 1]",right,1,27,32,m,y,y,2019_Jul_16_1436,2AFC_task,59.96339834217518,
stimuli/rgb_scene000047_render000002.png,stimuli/rgb_scene000047_render000005.png,0,51,51,34,"[0, 1]",right,1,27,32,m,y,y,2019_Jul_16_1436,2AFC_task,59.96339834217518,
stimuli/rgb_scene000056_render000000.png,stimuli/rgb_scene000056_render000005.png,0,52,52,46,"[1, 0]",left,1,27,32,m,y,y,2019_Jul_16_1436,2AFC_task,59.96339834217518,
stimuli/rgb_scene000150_render000000.png,stimuli/rgb_scene000150_render000001.png,0,53,53,105,"[1, 0]",left,1,27,32,m,y,y,2019_Jul_16_1436,2AFC_task,59.96339834217518,
stimuli/rgb_scene000047_render000001.png,stimuli/rgb_scene000047_render000006.png,0,54,54,31,"[1, 0]",left,1,27,32,m,y,y,2019_Jul_16_1436,2AFC_task,59.96339834217518,
stimuli/rgb_scene000165_render000001.png,stimuli/rgb_scene000165_render000005.png,0,55,55,156,"[1, 0]",left,1,27,32,m,y,y,2019_Jul_16_1436,2AFC_task,59.96339834217518,
stimuli/rgb_scene000047_render000002.png,stimuli/rgb_scene000047_render000003.png,0,56,56,32,"[0, 1]",right,1,27,32,m,y,y,2019_Jul_16_1436,2AFC_task,59.96339834217518,
stimuli/rgb_scene000047_render000003.png,stimuli/rgb_scene000047_render000006.png,0,57,57,38,"[1, 0]",left,1,27,32,m,y,y,2019_Jul_16_1436,2AFC_task,59.96339834217518,
stimuli/rgb_scene000150_render000002.png,stimuli/rgb_scene000150_render000006.png,0,58,58,119,"[0, 1]",right,1,27,32,m,y,y,2019_Jul_16_1436,2AFC_task,59.96339834217518,
stimuli/rgb_scene000066_render000002.png,stimuli/rgb_scene000066_render000006.png,0,59,59,77,"[1, 0]",left,1,27,32,m,y,y,2019_Jul_16_1436,2AFC_task,59.96339834217518,
stimuli/rgb_scene000047_render000000.png,stimuli/rgb_scene000047_render000006.png,0,60,60,26,"[1, 0]",left,1,27,32,m,y,y,2019_Jul_16_1436,2AFC_task,59.96339834217518,
stimuli/rgb_scene000169_render000000.png,stimuli/rgb_scene000169_render000003.png,0,61,61,170,"[1, 0]",right,0,27,32,m,y,y,2019_Jul_16_1436,2AFC_task,59.96339834217518,
stimuli/rgb_scene000047_render000001.png,stimuli/rgb_scene000047_render000003.png,0,62,62,28,"[1, 0]",left,1,27,32,m,y,y,2019_Jul_16_1436,2AFC_task,59.96339834217518,
stimuli/rgb_scene000169_render000003.png,stimuli/rgb_scene000169_render000004.png,0,63,63,183,"[0, 1]",right,1,27,32,m,y,y,2019_Jul_16_1436,2AFC_task,59.96339834217518,
stimuli/rgb_scene000165_render000003.png,stimuli/rgb_scene000165_render000006.png,0,64,64,164,"[0, 1]",right,1,27,32,m,y,y,2019_Jul_16_1436,2AFC_task,59.96339834217518,
stimuli/rgb_scene000165_render000001.png,stimuli/rgb_scene000165_render000006.png,0,65,65,157,"[0, 1]",right,1,27,32,m,y,y,2019_Jul_16_1436,2AFC_task,59.96339834217518,
stimuli/rgb_scene000169_render000004.png,stimuli/rgb_scene000169_render000006.png,0,66,66,187,"[1, 0]",left,1,27,32,m,y,y,2019_Jul_16_1436,2AFC_task,59.96339834217518,
stimuli/rgb_scene000147_render000001.png,stimuli/rgb_scene000147_render000005.png,0,67,67,93,"[1, 0]",left,1,27,32,m,y,y,2019_Jul_16_1436,2AFC_task,59.96339834217518,
stimuli/rgb_scene000160_render000000.png,stimuli/rgb_scene000160_render000003.png,0,68,68,128,"[0, 1]",right,1,27,32,m,y,y,2019_Jul_16_1436,2AFC_task,59.96339834217518,
stimuli/rgb_scene000042_render000001.png,stimuli/rgb_scene000042_render000005.png,0,69,69,9,"[1, 0]",left,1,27,32,m,y,y,2019_Jul_16_1436,2AFC_task,59.96339834217518,
stimuli/rgb_scene000196_render000004.png,stimuli/rgb_scene000196_render000005.png,0,70,70,207,"[0, 1]",left,0,27,32,m,y,y,2019_Jul_16_1436,2AFC_task,59.96339834217518,
stimuli/rgb_scene000160_render000002.png,stimuli/rgb_scene000160_render000003.png,0,71,71,137,"[0, 1]",right,1,27,32,m,y,y,2019_Jul_16_1436,2AFC_task,59.96339834217518,
stimuli/rgb_scene000056_render000002.png,stimuli/rgb_scene000056_render000005.png,0,72,72,55,"[1, 0]",left,1,27,32,m,y,y,2019_Jul_16_1436,2AFC_task,59.96339834217518,
stimuli/rgb_scene000066_render000001.png,stimuli/rgb_scene000066_render000005.png,0,73,73,72,"[1, 0]",left,1,27,32,m,y,y,2019_Jul_16_1436,2AFC_task,59.96339834217518,
stimuli/rgb_scene000196_render000000.png,stimuli/rgb_scene000196_render000001.png,0,74,74,189,"[0, 1]",right,1,27,32,m,y,y,2019_Jul_16_1436,2AFC_task,59.96339834217518,
stimuli/rgb_scene000150_render000000.png,stimuli/rgb_scene000150_render000006.png,0,75,75,110,"[0, 1]",right,1,27,32,m,y,y,2019_Jul_16_1436,2AFC_task,59.96339834217518,
stimuli/rgb_scene000160_render000004.png,stimuli/rgb_scene000160_render000006.png,0,76,76,145,"[0, 1]",right,1,27,32,m,y,y,2019_Jul_16_1436,2AFC_task,59.96339834217518,
stimuli/rgb_scene000147_render000004.png,stimuli/rgb_scene000147_render000006.png,0,77,77,103,"[1, 0]",left,1,27,32,m,y,y,2019_Jul_16_1436,2AFC_task,59.96339834217518,
stimuli/rgb_scene000160_render000002.png,stimuli/rgb_scene000160_render000004.png,0,78,78,138,"[0, 1]",right,1,27,32,m,y,y,2019_Jul_16_1436,2AFC_task,59.96339834217518,
stimuli/rgb_scene000047_render000000.png,stimuli/rgb_scene000047_render000002.png,0,79,79,22,"[1, 0]",right,0,27,32,m,y,y,2019_Jul_16_1436,2AFC_task,59.96339834217518,
stimuli/rgb_scene000150_render000001.png,stimuli/rgb_scene000150_render000003.png,0,80,80,112,"[0, 1]",right,1,27,32,m,y,y,2019_Jul_16_1436,2AFC_task,59.96339834217518,
stimuli/rgb_scene000169_render000002.png,stimuli/rgb_scene000169_render000006.png,0,81,81,182,"[1, 0]",left,1,27,32,m,y,y,2019_Jul_16_1436,2AFC_task,59.96339834217518,
stimuli/rgb_scene000042_render000001.png,stimuli/rgb_scene000042_render000006.png,0,82,82,10,"[1, 0]",left,1,27,32,m,y,y,2019_Jul_16_1436,2AFC_task,59.96339834217518,
stimuli/rgb_scene000150_render000001.png,stimuli/rgb_scene000150_render000004.png,0,83,83,113,"[1, 0]",left,1,27,32,m,y,y,2019_Jul_16_1436,2AFC_task,59.96339834217518,
stimuli/rgb_scene000196_render000001.png,stimuli/rgb_scene000196_render000005.png,0,84,84,198,"[1, 0]",left,1,27,32,m,y,y,2019_Jul_16_1436,2AFC_task,59.96339834217518,
stimuli/rgb_scene000196_render000003.png,stimuli/rgb_scene000196_render000006.png,0,85,85,206,"[1, 0]",right,0,27,32,m,y,y,2019_Jul_16_1436,2AFC_task,59.96339834217518,
stimuli/rgb_scene000150_render000001.png,stimuli/rgb_scene000150_render000006.png,0,86,86,115,"[1, 0]",left,1,27,32,m,y,y,2019_Jul_16_1436,2AFC_task,59.96339834217518,
stimuli/rgb_scene000150_render000003.png,stimuli/rgb_scene000150_render000006.png,0,87,87,122,"[1, 0]",left,1,27,32,m,y,y,2019_Jul_16_1436,2AFC_task,59.96339834217518,
stimuli/rgb_scene000150_render000001.png,stimuli/rgb_scene000150_render000002.png,0,88,88,111,"[1, 0]",left,1,27,32,m,y,y,2019_Jul_16_1436,2AFC_task,59.96339834217518,
stimuli/rgb_scene000056_render000000.png,stimuli/rgb_scene000056_render000003.png,0,89,89,44,"[0, 1]",right,1,27,32,m,y,y,2019_Jul_16_1436,2AFC_task,59.96339834217518,
stimuli/rgb_scene000147_render000002.png,stimuli/rgb_scene000147_render000004.png,0,90,90,96,"[0, 1]",right,1,27,32,m,y,y,2019_Jul_16_1436,2AFC_task,59.96339834217518,
stimuli/rgb_scene000196_render000005.png,stimuli/rgb_scene000196_render000006.png,0,91,91,209,"[0, 1]",left,0,27,32,m,y,y,2019_Jul_16_1436,2AFC_task,59.96339834217518,
stimuli/rgb_scene000150_render000002.png,stimuli/rgb_scene000150_render000003.png,0,92,92,116,"[0, 1]",right,1,27,32,m,y,y,2019_Jul_16_1436,2AFC_task,59.96339834217518,
stimuli/rgb_scene000165_render000000.png,stimuli/rgb_scene000165_render000005.png,0,93,93,151,"[1, 0]",left,1,27,32,m,y,y,2019_Jul_16_1436,2AFC_task,59.96339834217518,
stimuli/rgb_scene000042_render000002.png,stimuli/rgb_scene000042_render000006.png,0,94,94,14,"[1, 0]",left,1,27,32,m,y,y,2019_Jul_16_1436,2AFC_task,59.96339834217518,
stimuli/rgb_scene000169_render000000.png,stimuli/rgb_scene000169_render000002.png,0,95,95,169,"[0, 1]",right,1,27,32,m,y,y,2019_Jul_16_1436,2AFC_task,59.96339834217518,
stimuli/rgb_scene000066_render000004.png,stimuli/rgb_scene000066_render000006.png,0,96,96,82,"[0, 1]",right,1,27,32,m,y,y,2019_Jul_16_1436,2AFC_task,59.96339834217518,
stimuli/rgb_scene000165_render000003.png,stimuli/rgb_scene000165_render000005.png,0,97,97,163,"[0, 1]",right,1,27,32,m,y,y,2019_Jul_16_1436,2AFC_task,59.96339834217518,
stimuli/rgb_scene000066_render000003.png,stimuli/rgb_scene000066_render000004.png,0,98,98,78,"[0, 1]",right,1,27,32,m,y,y,2019_Jul_16_1436,2AFC_task,59.96339834217518,
stimuli/rgb_scene000169_render000000.png,stimuli/rgb_scene000169_render000006.png,0,99,99,173,"[0, 1]",right,1,27,32,m,y,y,2019_Jul_16_1436,2AFC_task,59.96339834217518,
stimuli/rgb_scene000165_render000005.png,stimuli/rgb_scene000165_render000006.png,0,100,100,167,"[1, 0]",left,1,27,32,m,y,y,2019_Jul_16_1436,2AFC_task,59.96339834217518,
stimuli/rgb_scene000047_render000000.png,stimuli/rgb_scene000047_render000005.png,0,101,101,25,"[1, 0]",left,1,27,32,m,y,y,2019_Jul_16_1436,2AFC_task,59.96339834217518,
stimuli/rgb_scene000150_render000000.png,stimuli/rgb_scene000150_render000005.png,0,102,102,109,"[1, 0]",left,1,27,32,m,y,y,2019_Jul_16_1436,2AFC_task,59.96339834217518,
stimuli/rgb_scene000147_render000002.png,stimuli/rgb_scene000147_render000005.png,0,103,103,97,"[1, 0]",left,1,27,32,m,y,y,2019_Jul_16_1436,2AFC_task,59.96339834217518,
stimuli/rgb_scene000196_render000000.png,stimuli/rgb_scene000196_render000002.png,0,104,104,190,"[1, 0]",left,1,27,32,m,y,y,2019_Jul_16_1436,2AFC_task,59.96339834217518,
stimuli/rgb_scene000196_render000000.png,stimuli/rgb_scene000196_render000003.png,0,105,105,191,"[1, 0]",left,1,27,32,m,y,y,2019_Jul_16_1436,2AFC_task,59.96339834217518,
stimuli/rgb_scene000160_render000001.png,stimuli/rgb_scene000160_render000004.png,0,106,106,134,"[0, 1]",right,1,27,32,m,y,y,2019_Jul_16_1436,2AFC_task,59.96339834217518,
stimuli/rgb_scene000160_render000001.png,stimuli/rgb_scene000160_render000003.png,0,107,107,133,"[1, 0]",left,1,27,32,m,y,y,2019_Jul_16_1436,2AFC_task,59.96339834217518,
stimuli/rgb_scene000056_render000004.png,stimuli/rgb_scene000056_render000005.png,0,108,108,60,"[0, 1]",left,0,27,32,m,y,y,2019_Jul_16_1436,2AFC_task,59.96339834217518,
stimuli/rgb_scene000066_render000003.png,stimuli/rgb_scene000066_render000006.png,0,109,109,80,"[0, 1]",right,1,27,32,m,y,y,2019_Jul_16_1436,2AFC_task,59.96339834217518,
stimuli/rgb_scene000150_render000004.png,stimuli/rgb_scene000150_render000006.png,0,110,110,124,"[0, 1]",left,0,27,32,m,y,y,2019_Jul_16_1436,2AFC_task,59.96339834217518,
stimuli/rgb_scene000169_render000005.png,stimuli/rgb_scene000169_render000006.png,0,111,111,188,"[1, 0]",left,1,27,32,m,y,y,2019_Jul_16_1436,2AFC_task,59.96339834217518,
stimuli/rgb_scene000047_render000004.png,stimuli/rgb_scene000047_render000006.png,0,112,112,40,"[0, 1]",right,1,27,32,m,y,y,2019_Jul_16_1436,2AFC_task,59.96339834217518,
stimuli/rgb_scene000160_render000000.png,stimuli/rgb_scene000160_render000004.png,0,113,113,129,"[0, 1]",right,1,27,32,m,y,y,2019_Jul_16_1436,2AFC_task,59.96339834217518,
stimuli/rgb_scene000047_render000003.png,stimuli/rgb_scene000047_render000004.png,0,114,114,36,"[1, 0]",left,1,27,32,m,y,y,2019_Jul_16_1436,2AFC_task,59.96339834217518,
stimuli/rgb_scene000042_render000002.png,stimuli/rgb_scene000042_render000003.png,0,115,115,11,"[0, 1]",right,1,27,32,m,y,y,2019_Jul_16_1436,2AFC_task,59.96339834217518,
stimuli/rgb_scene000147_render000004.png,stimuli/rgb_scene000147_render000005.png,0,116,116,102,"[0, 1]",left,0,27,32,m,y,y,2019_Jul_16_1436,2AFC_task,59.96339834217518,
stimuli/rgb_scene000169_render000003.png,stimuli/rgb_scene000169_render000006.png,0,117,117,185,"[0, 1]",right,1,27,32,m,y,y,2019_Jul_16_1436,2AFC_task,59.96339834217518,
stimuli/rgb_scene000042_render000004.png,stimuli/rgb_scene000042_render000005.png,0,118,118,18,"[1, 0]",left,1,27,32,m,y,y,2019_Jul_16_1436,2AFC_task,59.96339834217518,
stimuli/rgb_scene000169_render000001.png,stimuli/rgb_scene000169_render000005.png,0,119,119,177,"[1, 0]",left,1,27,32,m,y,y,2019_Jul_16_1436,2AFC_task,59.96339834217518,
stimuli/rgb_scene000169_render000000.png,stimuli/rgb_scene000169_render000001.png,0,120,120,168,"[0, 1]",right,1,27,32,m,y,y,2019_Jul_16_1436,2AFC_task,59.96339834217518,
stimuli/rgb_scene000042_render000000.png,stimuli/rgb_scene000042_render000005.png,0,121,121,4,"[0, 1]",right,1,27,32,m,y,y,2019_Jul_16_1436,2AFC_task,59.96339834217518,
stimuli/rgb_scene000169_render000004.png,stimuli/rgb_scene000169_render000005.png,0,122,122,186,"[0, 1]",left,0,27,32,m,y,y,2019_Jul_16_1436,2AFC_task,59.96339834217518,
stimuli/rgb_scene000169_render000001.png,stimuli/rgb_scene000169_render000003.png,0,123,123,175,"[1, 0]",left,1,27,32,m,y,y,2019_Jul_16_1436,2AFC_task,59.96339834217518,
stimuli/rgb_scene000150_render000004.png,stimuli/rgb_scene000150_render000005.png,0,124,124,123,"[1, 0]",left,1,27,32,m,y,y,2019_Jul_16_1436,2AFC_task,59.96339834217518,
stimuli/rgb_scene000150_render000003.png,stimuli/rgb_scene000150_render000005.png,0,125,125,121,"[0, 1]",right,1,27,32,m,y,y,2019_Jul_16_1436,2AFC_task,59.96339834217518,
stimuli/rgb_scene000169_render000003.png,stimuli/rgb_scene000169_render000005.png,0,126,126,184,"[0, 1]",left,0,27,32,m,y,y,2019_Jul_16_1436,2AFC_task,59.96339834217518,
stimuli/rgb_scene000196_render000004.png,stimuli/rgb_scene000196_render000006.png,0,127,127,208,"[1, 0]",right,0,27,32,m,y,y,2019_Jul_16_1436,2AFC_task,59.96339834217518,
stimuli/rgb_scene000066_render000002.png,stimuli/rgb_scene000066_render000005.png,0,128,128,76,"[0, 1]",right,1,27,32,m,y,y,2019_Jul_16_1436,2AFC_task,59.96339834217518,
stimuli/rgb_scene000147_render000002.png,stimuli/rgb_scene000147_render000006.png,0,129,129,98,"[1, 0]",left,1,27,32,m,y,y,2019_Jul_16_1436,2AFC_task,59.96339834217518,
stimuli/rgb_scene000047_render000001.png,stimuli/rgb_scene000047_render000002.png,0,130,130,27,"[0, 1]",right,1,27,32,m,y,y,2019_Jul_16_1436,2AFC_task,59.96339834217518,
stimuli/rgb_scene000042_render000000.png,stimuli/rgb_scene000042_render000004.png,0,131,131,3,"[0, 1]",right,1,27,32,m,y,y,2019_Jul_16_1436,2AFC_task,59.96339834217518,
stimuli/rgb_scene000160_render000005.png,stimuli/rgb_scene000160_render000006.png,0,132,132,146,"[1, 0]",left,1,27,32,m,y,y,2019_Jul_16_1436,2AFC_task,59.96339834217518,
stimuli/rgb_scene000147_render000003.png,stimuli/rgb_scene000147_render000004.png,0,133,133,99,"[1, 0]",left,1,27,32,m,y,y,2019_Jul_16_1436,2AFC_task,59.96339834217518,
stimuli/rgb_scene000042_render000001.png,stimuli/rgb_scene000042_render000004.png,0,134,134,8,"[0, 1]",right,1,27,32,m,y,y,2019_Jul_16_1436,2AFC_task,59.96339834217518,
stimuli/rgb_scene000150_render000000.png,stimuli/rgb_scene000150_render000002.png,0,135,135,106,"[1, 0]",left,1,27,32,m,y,y,2019_Jul_16_1436,2AFC_task,59.96339834217518,
stimuli/rgb_scene000056_render000003.png,stimuli/rgb_scene000056_render000004.png,0,136,136,57,"[0, 1]",right,1,27,32,m,y,y,2019_Jul_16_1436,2AFC_task,59.96339834217518,
stimuli/rgb_scene000066_render000002.png,stimuli/rgb_scene000066_render000004.png,0,137,137,75,"[0, 1]",right,1,27,32,m,y,y,2019_Jul_16_1436,2AFC_task,59.96339834217518,
stimuli/rgb_scene000147_render000003.png,stimuli/rgb_scene000147_render000006.png,0,138,138,101,"[0, 1]",right,1,27,32,m,y,y,2019_Jul_16_1436,2AFC_task,59.96339834217518,
stimuli/rgb_scene000066_render000004.png,stimuli/rgb_scene000066_render000005.png,0,139,139,81,"[0, 1]",right,1,27,32,m,y,y,2019_Jul_16_1436,2AFC_task,59.96339834217518,
stimuli/rgb_scene000042_render000001.png,stimuli/rgb_scene000042_render000003.png,0,140,140,7,"[0, 1]",right,1,27,32,m,y,y,2019_Jul_16_1436,2AFC_task,59.96339834217518,
stimuli/rgb_scene000147_render000003.png,stimuli/rgb_scene000147_render000005.png,0,141,141,100,"[1, 0]",left,1,27,32,m,y,y,2019_Jul_16_1436,2AFC_task,59.96339834217518,
stimuli/rgb_scene000056_render000003.png,stimuli/rgb_scene000056_render000006.png,0,142,142,59,"[1, 0]",left,1,27,32,m,y,y,2019_Jul_16_1436,2AFC_task,59.96339834217518,
stimuli/rgb_scene000165_render000002.png,stimuli/rgb_scene000165_render000005.png,0,143,143,160,"[0, 1]",right,1,27,32,m,y,y,2019_Jul_16_1436,2AFC_task,59.96339834217518,
stimuli/rgb_scene000196_render000000.png,stimuli/rgb_scene000196_render000005.png,0,144,144,193,"[1, 0]",left,1,27,32,m,y,y,2019_Jul_16_1436,2AFC_task,59.96339834217518,
stimuli/rgb_scene000066_render000000.png,stimuli/rgb_scene000066_render000006.png,0,145,145,68,"[0, 1]",right,1,27,32,m,y,y,2019_Jul_16_1436,2AFC_task,59.96339834217518,
stimuli/rgb_scene000165_render000001.png,stimuli/rgb_scene000165_render000002.png,0,146,146,153,"[1, 0]",left,1,27,32,m,y,y,2019_Jul_16_1436,2AFC_task,59.96339834217518,
stimuli/rgb_scene000196_render000002.png,stimuli/rgb_scene000196_render000006.png,0,147,147,203,"[0, 1]",left,0,27,32,m,y,y,2019_Jul_16_1436,2AFC_task,59.96339834217518,
stimuli/rgb_scene000160_render000000.png,stimuli/rgb_scene000160_render000006.png,0,148,148,131,"[0, 1]",right,1,27,32,m,y,y,2019_Jul_16_1436,2AFC_task,59.96339834217518,
stimuli/rgb_scene000056_render000001.png,stimuli/rgb_scene000056_render000002.png,0,149,149,48,"[0, 1]",left,0,27,32,m,y,y,2019_Jul_16_1436,2AFC_task,59.96339834217518,
stimuli/rgb_scene000047_render000003.png,stimuli/rgb_scene000047_render000005.png,0,150,150,37,"[1, 0]",left,1,27,32,m,y,y,2019_Jul_16_1436,2AFC_task,59.96339834217518,
stimuli/rgb_scene000160_render000000.png,stimuli/rgb_scene000160_render000002.png,0,151,151,127,"[1, 0]",left,1,27,32,m,y,y,2019_Jul_16_1436,2AFC_task,59.96339834217518,
stimuli/rgb_scene000150_render000000.png,stimuli/rgb_scene000150_render000004.png,0,152,152,108,"[1, 0]",left,1,27,32,m,y,y,2019_Jul_16_1436,2AFC_task,59.96339834217518,
stimuli/rgb_scene000047_render000004.png,stimuli/rgb_scene000047_render000005.png,0,153,153,39,"[0, 1]",right,1,27,32,m,y,y,2019_Jul_16_1436,2AFC_task,59.96339834217518,
stimuli/rgb_scene000196_render000002.png,stimuli/rgb_scene000196_render000003.png,0,154,154,200,"[0, 1]",left,0,27,32,m,y,y,2019_Jul_16_1436,2AFC_task,59.96339834217518,
stimuli/rgb_scene000147_render000001.png,stimuli/rgb_scene000147_render000002.png,0,155,155,90,"[1, 0]",left,1,27,32,m,y,y,2019_Jul_16_1436,2AFC_task,59.96339834217518,
stimuli/rgb_scene000147_render000002.png,stimuli/rgb_scene000147_render000003.png,0,156,156,95,"[1, 0]",left,1,27,32,m,y,y,2019_Jul_16_1436,2AFC_task,59.96339834217518,
stimuli/rgb_scene000042_render000004.png,stimuli/rgb_scene000042_render000006.png,0,157,157,19,"[1, 0]",left,1,27,32,m,y,y,2019_Jul_16_1436,2AFC_task,59.96339834217518,
stimuli/rgb_scene000160_render000002.png,stimuli/rgb_scene000160_render000005.png,0,158,158,139,"[0, 1]",right,1,27,32,m,y,y,2019_Jul_16_1436,2AFC_task,59.96339834217518,
stimuli/rgb_scene000056_render000002.png,stimuli/rgb_scene000056_render000006.png,0,159,159,56,"[0, 1]",right,1,27,32,m,y,y,2019_Jul_16_1436,2AFC_task,59.96339834217518,
stimuli/rgb_scene000066_render000000.png,stimuli/rgb_scene000066_render000002.png,0,160,160,64,"[1, 0]",left,1,27,32,m,y,y,2019_Jul_16_1436,2AFC_task,59.96339834217518,
stimuli/rgb_scene000056_render000001.png,stimuli/rgb_scene000056_render000003.png,0,161,161,49,"[0, 1]",right,1,27,32,m,y,y,2019_Jul_16_1436,2AFC_task,59.96339834217518,
stimuli/rgb_scene000047_render000000.png,stimuli/rgb_scene000047_render000004.png,0,162,162,24,"[1, 0]",left,1,27,32,m,y,y,2019_Jul_16_1436,2AFC_task,59.96339834217518,
stimuli/rgb_scene000042_render000002.png,stimuli/rgb_scene000042_render000005.png,0,163,163,13,"[0, 1]",right,1,27,32,m,y,y,2019_Jul_16_1436,2AFC_task,59.96339834217518,
stimuli/rgb_scene000042_render000000.png,stimuli/rgb_scene000042_render000001.png,0,164,164,0,"[1, 0]",left,1,27,32,m,y,y,2019_Jul_16_1436,2AFC_task,59.96339834217518,
stimuli/rgb_scene000047_render000002.png,stimuli/rgb_scene000047_render000004.png,0,165,165,33,"[1, 0]",left,1,27,32,m,y,y,2019_Jul_16_1436,2AFC_task,59.96339834217518,
stimuli/rgb_scene000165_render000000.png,stimuli/rgb_scene000165_render000006.png,0,166,166,152,"[0, 1]",right,1,27,32,m,y,y,2019_Jul_16_1436,2AFC_task,59.96339834217518,
stimuli/rgb_scene000056_render000002.png,stimuli/rgb_scene000056_render000003.png,0,167,167,53,"[0, 1]",left,0,27,32,m,y,y,2019_Jul_16_1436,2AFC_task,59.96339834217518,
stimuli/rgb_scene000160_render000003.png,stimuli/rgb_scene000160_render000005.png,0,168,168,142,"[1, 0]",left,1,27,32,m,y,y,2019_Jul_16_1436,2AFC_task,59.96339834217518,
stimuli/rgb_scene000150_render000000.png,stimuli/rgb_scene000150_render000003.png,0,169,169,107,"[1, 0]",left,1,27,32,m,y,y,2019_Jul_16_1436,2AFC_task,59.96339834217518,
stimuli/rgb_scene000169_render000001.png,stimuli/rgb_scene000169_render000006.png,0,170,170,178,"[1, 0]",left,1,27,32,m,y,y,2019_Jul_16_1436,2AFC_task,59.96339834217518,
stimuli/rgb_scene000150_render000001.png,stimuli/rgb_scene000150_render000005.png,0,171,171,114,"[1, 0]",left,1,27,32,m,y,y,2019_Jul_16_1436,2AFC_task,59.96339834217518,
stimuli/rgb_scene000147_render000001.png,stimuli/rgb_scene000147_render000004.png,0,172,172,92,"[1, 0]",left,1,27,32,m,y,y,2019_Jul_16_1436,2AFC_task,59.96339834217518,
stimuli/rgb_scene000196_render000002.png,stimuli/rgb_scene000196_render000005.png,0,173,173,202,"[0, 1]",left,0,27,32,m,y,y,2019_Jul_16_1436,2AFC_task,59.96339834217518,
stimuli/rgb_scene000169_render000000.png,stimuli/rgb_scene000169_render000004.png,0,174,174,171,"[1, 0]",left,1,27,32,m,y,y,2019_Jul_16_1436,2AFC_task,59.96339834217518,
stimuli/rgb_scene000147_render000001.png,stimuli/rgb_scene000147_render000006.png,0,175,175,94,"[1, 0]",left,1,27,32,m,y,y,2019_Jul_16_1436,2AFC_task,59.96339834217518,
stimuli/rgb_scene000147_render000000.png,stimuli/rgb_scene000147_render000004.png,0,176,176,87,"[1, 0]",left,1,27,32,m,y,y,2019_Jul_16_1436,2AFC_task,59.96339834217518,
stimuli/rgb_scene000196_render000000.png,stimuli/rgb_scene000196_render000006.png,0,177,177,194,"[0, 1]",left,0,27,32,m,y,y,2019_Jul_16_1436,2AFC_task,59.96339834217518,
stimuli/rgb_scene000147_render000000.png,stimuli/rgb_scene000147_render000003.png,0,178,178,86,"[1, 0]",left,1,27,32,m,y,y,2019_Jul_16_1436,2AFC_task,59.96339834217518,
stimuli/rgb_scene000169_render000001.png,stimuli/rgb_scene000169_render000004.png,0,179,179,176,"[0, 1]",right,1,27,32,m,y,y,2019_Jul_16_1436,2AFC_task,59.96339834217518,
stimuli/rgb_scene000056_render000000.png,stimuli/rgb_scene000056_render000002.png,0,180,180,43,"[0, 1]",right,1,27,32,m,y,y,2019_Jul_16_1436,2AFC_task,59.96339834217518,
stimuli/rgb_scene000147_render000000.png,stimuli/rgb_scene000147_render000006.png,0,181,181,89,"[1, 0]",left,1,27,32,m,y,y,2019_Jul_16_1436,2AFC_task,59.96339834217518,
stimuli/rgb_scene000160_render000002.png,stimuli/rgb_scene000160_render000006.png,0,182,182,140,"[0, 1]",right,1,27,32,m,y,y,2019_Jul_16_1436,2AFC_task,59.96339834217518,
stimuli/rgb_scene000042_render000001.png,stimuli/rgb_scene000042_render000002.png,0,183,183,6,"[1, 0]",left,1,27,32,m,y,y,2019_Jul_16_1436,2AFC_task,59.96339834217518,
stimuli/rgb_scene000150_render000005.png,stimuli/rgb_scene000150_render000006.png,0,184,184,125,"[0, 1]",left,0,27,32,m,y,y,2019_Jul_16_1436,2AFC_task,59.96339834217518,
stimuli/rgb_scene000056_render000000.png,stimuli/rgb_scene000056_render000004.png,0,185,185,45,"[1, 0]",left,1,27,32,m,y,y,2019_Jul_16_1436,2AFC_task,59.96339834217518,
stimuli/rgb_scene000150_render000002.png,stimuli/rgb_scene000150_render000005.png,0,186,186,118,"[0, 1]",right,1,27,32,m,y,y,2019_Jul_16_1436,2AFC_task,59.96339834217518,
stimuli/rgb_scene000056_render000001.png,stimuli/rgb_scene000056_render000004.png,0,187,187,50,"[0, 1]",right,1,27,32,m,y,y,2019_Jul_16_1436,2AFC_task,59.96339834217518,
stimuli/rgb_scene000066_render000001.png,stimuli/rgb_scene000066_render000004.png,0,188,188,71,"[0, 1]",right,1,27,32,m,y,y,2019_Jul_16_1436,2AFC_task,59.96339834217518,
stimuli/rgb_scene000160_render000003.png,stimuli/rgb_scene000160_render000006.png,0,189,189,143,"[0, 1]",right,1,27,32,m,y,y,2019_Jul_16_1436,2AFC_task,59.96339834217518,
stimuli/rgb_scene000169_render000002.png,stimuli/rgb_scene000169_render000004.png,0,190,190,180,"[0, 1]",right,1,27,32,m,y,y,2019_Jul_16_1436,2AFC_task,59.96339834217518,
stimuli/rgb_scene000066_render000000.png,stimuli/rgb_scene000066_render000005.png,0,191,191,67,"[0, 1]",right,1,27,32,m,y,y,2019_Jul_16_1436,2AFC_task,59.96339834217518,
stimuli/rgb_scene000165_render000004.png,stimuli/rgb_scene000165_render000005.png,0,192,192,165,"[1, 0]",left,1,27,32,m,y,y,2019_Jul_16_1436,2AFC_task,59.96339834217518,
stimuli/rgb_scene000042_render000003.png,stimuli/rgb_scene000042_render000005.png,0,193,193,16,"[1, 0]",left,1,27,32,m,y,y,2019_Jul_16_1436,2AFC_task,59.96339834217518,
stimuli/rgb_scene000169_render000000.png,stimuli/rgb_scene000169_render000005.png,0,194,194,172,"[0, 1]",right,1,27,32,m,y,y,2019_Jul_16_1436,2AFC_task,59.96339834217518,
stimuli/rgb_scene000196_render000003.png,stimuli/rgb_scene000196_render000004.png,0,195,195,204,"[1, 0]",left,1,27,32,m,y,y,2019_Jul_16_1436,2AFC_task,59.96339834217518,
stimuli/rgb_scene000047_render000000.png,stimuli/rgb_scene000047_render000001.png,0,196,196,21,"[1, 0]",left,1,27,32,m,y,y,2019_Jul_16_1436,2AFC_task,59.96339834217518,
stimuli/rgb_scene000196_render000001.png,stimuli/rgb_scene000196_render000006.png,0,197,197,199,"[0, 1]",left,0,27,32,m,y,y,2019_Jul_16_1436,2AFC_task,59.96339834217518,
stimuli/rgb_scene000147_render000001.png,stimuli/rgb_scene000147_render000003.png,0,198,198,91,"[1, 0]",left,1,27,32,m,y,y,2019_Jul_16_1436,2AFC_task,59.96339834217518,
stimuli/rgb_scene000147_render000000.png,stimuli/rgb_scene000147_render000005.png,0,199,199,88,"[0, 1]",right,1,27,32,m,y,y,2019_Jul_16_1436,2AFC_task,59.96339834217518,
stimuli/rgb_scene000066_render000000.png,stimuli/rgb_scene000066_render000003.png,0,200,200,65,"[0, 1]",right,1,27,32,m,y,y,2019_Jul_16_1436,2AFC_task,59.96339834217518,
stimuli/rgb_scene000147_render000000.png,stimuli/rgb_scene000147_render000002.png,0,201,201,85,"[1, 0]",left,1,27,32,m,y,y,2019_Jul_16_1436,2AFC_task,59.96339834217518,
stimuli/rgb_scene000196_render000001.png,stimuli/rgb_scene000196_render000004.png,0,202,202,197,"[0, 1]",left,0,27,32,m,y,y,2019_Jul_16_1436,2AFC_task,59.96339834217518,
stimuli/rgb_scene000042_render000000.png,stimuli/rgb_scene000042_render000002.png,0,203,203,1,"[1, 0]",left,1,27,32,m,y,y,2019_Jul_16_1436,2AFC_task,59.96339834217518,
stimuli/rgb_scene000165_render000004.png,stimuli/rgb_scene000165_render000006.png,0,204,204,166,"[0, 1]",right,1,27,32,m,y,y,2019_Jul_16_1436,2AFC_task,59.96339834217518,
stimuli/rgb_scene000150_render000002.png,stimuli/rgb_scene000150_render000004.png,0,205,205,117,"[0, 1]",right,1,27,32,m,y,y,2019_Jul_16_1436,2AFC_task,59.96339834217518,
stimuli/rgb_scene000160_render000001.png,stimuli/rgb_scene000160_render000005.png,0,206,206,135,"[0, 1]",right,1,27,32,m,y,y,2019_Jul_16_1436,2AFC_task,59.96339834217518,
stimuli/rgb_scene000056_render000005.png,stimuli/rgb_scene000056_render000006.png,0,207,207,62,"[1, 0]",left,1,27,32,m,y,y,2019_Jul_16_1436,2AFC_task,59.96339834217518,
stimuli/rgb_scene000047_render000001.png,stimuli/rgb_scene000047_render000005.png,0,208,208,30,"[1, 0]",left,1,27,32,m,y,y,2019_Jul_16_1436,2AFC_task,59.96339834217518,
stimuli/rgb_scene000147_render000000.png,stimuli/rgb_scene000147_render000001.png,0,209,209,84,"[1, 0]",left,1,27,32,m,y,y,2019_Jul_16_1436,2AFC_task,59.96339834217518,
stimuli/rgb_scene000160_render000003.png,stimuli/rgb_scene000160_render000005.png,1,0,210,142,"[1, 0]",left,1,27,32,m,y,y,2019_Jul_16_1436,2AFC_task,59.96339834217518,
stimuli/rgb_scene000150_render000002.png,stimuli/rgb_scene000150_render000006.png,1,1,211,119,"[0, 1]",right,1,27,32,m,y,y,2019_Jul_16_1436,2AFC_task,59.96339834217518,
stimuli/rgb_scene000169_render000003.png,stimuli/rgb_scene000169_render000005.png,1,2,212,184,"[1, 0]",left,1,27,32,m,y,y,2019_Jul_16_1436,2AFC_task,59.96339834217518,
stimuli/rgb_scene000066_render000004.png,stimuli/rgb_scene000066_render000006.png,1,3,213,82,"[1, 0]",left,1,27,32,m,y,y,2019_Jul_16_1436,2AFC_task,59.96339834217518,
stimuli/rgb_scene000147_render000004.png,stimuli/rgb_scene000147_render000006.png,1,4,214,103,"[0, 1]",right,1,27,32,m,y,y,2019_Jul_16_1436,2AFC_task,59.96339834217518,
stimuli/rgb_scene000169_render000000.png,stimuli/rgb_scene000169_render000001.png,1,5,215,168,"[1, 0]",right,0,27,32,m,y,y,2019_Jul_16_1436,2AFC_task,59.96339834217518,
stimuli/rgb_scene000160_render000002.png,stimuli/rgb_scene000160_render000003.png,1,6,216,137,"[1, 0]",left,1,27,32,m,y,y,2019_Jul_16_1436,2AFC_task,59.96339834217518,
stimuli/rgb_scene000066_render000002.png,stimuli/rgb_scene000066_render000006.png,1,7,217,77,"[0, 1]",right,1,27,32,m,y,y,2019_Jul_16_1436,2AFC_task,59.96339834217518,
stimuli/rgb_scene000047_render000003.png,stimuli/rgb_scene000047_render000005.png,1,8,218,37,"[0, 1]",left,0,27,32,m,y,y,2019_Jul_16_1436,2AFC_task,59.96339834217518,
stimuli/rgb_scene000147_render000002.png,stimuli/rgb_scene000147_render000005.png,1,9,219,97,"[1, 0]",left,1,27,32,m,y,y,2019_Jul_16_1436,2AFC_task,59.96339834217518,
stimuli/rgb_scene000196_render000003.png,stimuli/rgb_scene000196_render000005.png,1,10,220,205,"[0, 1]",left,0,27,32,m,y,y,2019_Jul_16_1436,2AFC_task,59.96339834217518,
stimuli/rgb_scene000056_render000000.png,stimuli/rgb_scene000056_render000002.png,1,11,221,43,"[0, 1]",right,1,27,32,m,y,y,2019_Jul_16_1436,2AFC_task,59.96339834217518,
stimuli/rgb_scene000169_render000003.png,stimuli/rgb_scene000169_render000006.png,1,12,222,185,"[1, 0]",left,1,27,32,m,y,y,2019_Jul_16_1436,2AFC_task,59.96339834217518,
stimuli/rgb_scene000169_render000004.png,stimuli/rgb_scene000169_render000005.png,1,13,223,186,"[1, 0]",left,1,27,32,m,y,y,2019_Jul_16_1436,2AFC_task,59.96339834217518,
stimuli/rgb_scene000066_render000000.png,stimuli/rgb_scene000066_render000006.png,1,14,224,68,"[0, 1]",right,1,27,32,m,y,y,2019_Jul_16_1436,2AFC_task,59.96339834217518,
stimuli/rgb_scene000169_render000001.png,stimuli/rgb_scene000169_render000004.png,1,15,225,176,"[1, 0]",left,1,27,32,m,y,y,2019_Jul_16_1436,2AFC_task,59.96339834217518,
stimuli/rgb_scene000047_render000002.png,stimuli/rgb_scene000047_render000005.png,1,16,226,34,"[1, 0]",left,1,27,32,m,y,y,2019_Jul_16_1436,2AFC_task,59.96339834217518,
stimuli/rgb_scene000160_render000001.png,stimuli/rgb_scene000160_render000004.png,1,17,227,134,"[1, 0]",left,1,27,32,m,y,y,2019_Jul_16_1436,2AFC_task,59.96339834217518,
stimuli/rgb_scene000066_render000001.png,stimuli/rgb_scene000066_render000006.png,1,18,228,73,"[0, 1]",right,1,27,32,m,y,y,2019_Jul_16_1436,2AFC_task,59.96339834217518,
stimuli/rgb_scene000056_render000002.png,stimuli/rgb_scene000056_render000003.png,1,19,229,53,"[0, 1]",left,0,27,32,m,y,y,2019_Jul_16_1436,2AFC_task,59.96339834217518,
stimuli/rgb_scene000160_render000000.png,stimuli/rgb_scene000160_render000002.png,1,20,230,127,"[0, 1]",right,1,27,32,m,y,y,2019_Jul_16_1436,2AFC_task,59.96339834217518,
stimuli/rgb_scene000196_render000000.png,stimuli/rgb_scene000196_render000004.png,1,21,231,192,"[0, 1]",left,0,27,32,m,y,y,2019_Jul_16_1436,2AFC_task,59.96339834217518,
stimuli/rgb_scene000047_render000000.png,stimuli/rgb_scene000047_render000005.png,1,22,232,25,"[1, 0]",left,1,27,32,m,y,y,2019_Jul_16_1436,2AFC_task,59.96339834217518,
stimuli/rgb_scene000047_render000002.png,stimuli/rgb_scene000047_render000004.png,1,23,233,33,"[1, 0]",left,1,27,32,m,y,y,2019_Jul_16_1436,2AFC_task,59.96339834217518,
stimuli/rgb_scene000160_render000005.png,stimuli/rgb_scene000160_render000006.png,1,24,234,146,"[1, 0]",left,1,27,32,m,y,y,2019_Jul_16_1436,2AFC_task,59.96339834217518,
stimuli/rgb_scene000165_render000002.png,stimuli/rgb_scene000165_render000004.png,1,25,235,159,"[0, 1]",right,1,27,32,m,y,y,2019_Jul_16_1436,2AFC_task,59.96339834217518,
stimuli/rgb_scene000169_render000001.png,stimuli/rgb_scene000169_render000005.png,1,26,236,177,"[1, 0]",left,1,27,32,m,y,y,2019_Jul_16_1436,2AFC_task,59.96339834217518,
stimuli/rgb_scene000042_render000000.png,stimuli/rgb_scene000042_render000004.png,1,27,237,3,"[0, 1]",right,1,27,32,m,y,y,2019_Jul_16_1436,2AFC_task,59.96339834217518,
stimuli/rgb_scene000066_render000001.png,stimuli/rgb_scene000066_render000002.png,1,28,238,69,"[0, 1]",left,0,27,32,m,y,y,2019_Jul_16_1436,2AFC_task,59.96339834217518,
stimuli/rgb_scene000066_render000000.png,stimuli/rgb_scene000066_render000003.png,1,29,239,65,"[0, 1]",right,1,27,32,m,y,y,2019_Jul_16_1436,2AFC_task,59.96339834217518,
stimuli/rgb_scene000066_render000004.png,stimuli/rgb_scene000066_render000005.png,1,30,240,81,"[1, 0]",left,1,27,32,m,y,y,2019_Jul_16_1436,2AFC_task,59.96339834217518,
stimuli/rgb_scene000042_render000002.png,stimuli/rgb_scene000042_render000004.png,1,31,241,12,"[0, 1]",right,1,27,32,m,y,y,2019_Jul_16_1436,2AFC_task,59.96339834217518,
stimuli/rgb_scene000066_render000003.png,stimuli/rgb_scene000066_render000004.png,1,32,242,78,"[0, 1]",left,0,27,32,m,y,y,2019_Jul_16_1436,2AFC_task,59.96339834217518,
stimuli/rgb_scene000160_render000002.png,stimuli/rgb_scene000160_render000006.png,1,33,243,140,"[0, 1]",right,1,27,32,m,y,y,2019_Jul_16_1436,2AFC_task,59.96339834217518,
stimuli/rgb_scene000056_render000003.png,stimuli/rgb_scene000056_render000006.png,1,34,244,59,"[0, 1]",right,1,27,32,m,y,y,2019_Jul_16_1436,2AFC_task,59.96339834217518,
stimuli/rgb_scene000160_render000000.png,stimuli/rgb_scene000160_render000005.png,1,35,245,130,"[1, 0]",left,1,27,32,m,y,y,2019_Jul_16_1436,2AFC_task,59.96339834217518,
stimuli/rgb_scene000047_render000004.png,stimuli/rgb_scene000047_render000006.png,1,36,246,40,"[1, 0]",left,1,27,32,m,y,y,2019_Jul_16_1436,2AFC_task,59.96339834217518,
stimuli/rgb_scene000042_render000003.png,stimuli/rgb_scene000042_render000006.png,1,37,247,17,"[0, 1]",right,1,27,32,m,y,y,2019_Jul_16_1436,2AFC_task,59.96339834217518,
stimuli/rgb_scene000165_render000000.png,stimuli/rgb_scene000165_render000003.png,1,38,248,149,"[1, 0]",left,1,27,32,m,y,y,2019_Jul_16_1436,2AFC_task,59.96339834217518,
stimuli/rgb_scene000047_render000005.png,stimuli/rgb_scene000047_render000006.png,1,39,249,41,"[0, 1]",right,1,27,32,m,y,y,2019_Jul_16_1436,2AFC_task,59.96339834217518,
stimuli/rgb_scene000165_render000003.png,stimuli/rgb_scene000165_render000004.png,1,40,250,162,"[0, 1]",right,1,27,32,m,y,y,2019_Jul_16_1436,2AFC_task,59.96339834217518,
stimuli/rgb_scene000056_render000005.png,stimuli/rgb_scene000056_render000006.png,1,41,251,62,"[0, 1]",right,1,27,32,m,y,y,2019_Jul_16_1436,2AFC_task,59.96339834217518,
stimuli/rgb_scene000047_render000000.png,stimuli/rgb_scene000047_render000006.png,1,42,252,26,"[0, 1]",right,1,27,32,m,y,y,2019_Jul_16_1436,2AFC_task,59.96339834217518,
stimuli/rgb_scene000066_render000002.png,stimuli/rgb_scene000066_render000004.png,1,43,253,75,"[0, 1]",right,1,27,32,m,y,y,2019_Jul_16_1436,2AFC_task,59.96339834217518,
stimuli/rgb_scene000056_render000002.png,stimuli/rgb_scene000056_render000005.png,1,44,254,55,"[0, 1]",right,1,27,32,m,y,y,2019_Jul_16_1436,2AFC_task,59.96339834217518,
stimuli/rgb_scene000150_render000003.png,stimuli/rgb_scene000150_render000005.png,1,45,255,121,"[1, 0]",left,1,27,32,m,y,y,2019_Jul_16_1436,2AFC_task,59.96339834217518,
stimuli/rgb_scene000056_render000000.png,stimuli/rgb_scene000056_render000005.png,1,46,256,46,"[0, 1]",right,1,27,32,m,y,y,2019_Jul_16_1436,2AFC_task,59.96339834217518,
stimuli/rgb_scene000042_render000003.png,stimuli/rgb_scene000042_render000005.png,1,47,257,16,"[0, 1]",right,1,27,32,m,y,y,2019_Jul_16_1436,2AFC_task,59.96339834217518,
stimuli/rgb_scene000150_render000005.png,stimuli/rgb_scene000150_render000006.png,1,48,258,125,"[1, 0]",left,1,27,32,m,y,y,2019_Jul_16_1436,2AFC_task,59.96339834217518,
stimuli/rgb_scene000150_render000001.png,stimuli/rgb_scene000150_render000006.png,1,49,259,115,"[1, 0]",left,1,27,32,m,y,y,2019_Jul_16_1436,2AFC_task,59.96339834217518,
stimuli/rgb_scene000160_render000000.png,stimuli/rgb_scene000160_render000006.png,1,50,260,131,"[1, 0]",left,1,27,32,m,y,y,2019_Jul_16_1436,2AFC_task,59.96339834217518,
stimuli/rgb_scene000056_render000001.png,stimuli/rgb_scene000056_render000002.png,1,51,261,48,"[0, 1]",right,1,27,32,m,y,y,2019_Jul_16_1436,2AFC_task,59.96339834217518,
stimuli/rgb_scene000169_render000000.png,stimuli/rgb_scene000169_render000006.png,1,52,262,173,"[1, 0]",left,1,27,32,m,y,y,2019_Jul_16_1436,2AFC_task,59.96339834217518,
stimuli/rgb_scene000147_render000003.png,stimuli/rgb_scene000147_render000006.png,1,53,263,101,"[1, 0]",left,1,27,32,m,y,y,2019_Jul_16_1436,2AFC_task,59.96339834217518,
stimuli/rgb_scene000066_render000000.png,stimuli/rgb_scene000066_render000002.png,1,54,264,64,"[1, 0]",left,1,27,32,m,y,y,2019_Jul_16_1436,2AFC_task,59.96339834217518,
stimuli/rgb_scene000169_render000000.png,stimuli/rgb_scene000169_render000004.png,1,55,265,171,"[1, 0]",left,1,27,32,m,y,y,2019_Jul_16_1436,2AFC_task,59.96339834217518,
stimuli/rgb_scene000147_render000000.png,stimuli/rgb_scene000147_render000006.png,1,56,266,89,"[0, 1]",right,1,27,32,m,y,y,2019_Jul_16_1436,2AFC_task,59.96339834217518,
stimuli/rgb_scene000150_render000004.png,stimuli/rgb_scene000150_render000005.png,1,57,267,123,"[1, 0]",left,1,27,32,m,y,y,2019_Jul_16_1436,2AFC_task,59.96339834217518,
stimuli/rgb_scene000169_render000000.png,stimuli/rgb_scene000169_render000002.png,1,58,268,169,"[1, 0]",right,0,27,32,m,y,y,2019_Jul_16_1436,2AFC_task,59.96339834217518,
stimuli/rgb_scene000066_render000000.png,stimuli/rgb_scene000066_render000001.png,1,59,269,63,"[1, 0]",left,1,27,32,m,y,y,2019_Jul_16_1436,2AFC_task,59.96339834217518,
stimuli/rgb_scene000160_render000004.png,stimuli/rgb_scene000160_render000005.png,1,60,270,144,"[0, 1]",right,1,27,32,m,y,y,2019_Jul_16_1436,2AFC_task,59.96339834217518,
stimuli/rgb_scene000160_render000001.png,stimuli/rgb_scene000160_render000005.png,1,61,271,135,"[0, 1]",right,1,27,32,m,y,y,2019_Jul_16_1436,2AFC_task,59.96339834217518,
stimuli/rgb_scene000165_render000002.png,stimuli/rgb_scene000165_render000003.png,1,62,272,158,"[1, 0]",left,1,27,32,m,y,y,2019_Jul_16_1436,2AFC_task,59.96339834217518,
stimuli/rgb_scene000169_render000002.png,stimuli/rgb_scene000169_render000004.png,1,63,273,180,"[0, 1]",right,1,27,32,m,y,y,2019_Jul_16_1436,2AFC_task,59.96339834217518,
stimuli/rgb_scene000169_render000000.png,stimuli/rgb_scene000169_render000005.png,1,64,274,172,"[0, 1]",right,1,27,32,m,y,y,2019_Jul_16_1436,2AFC_task,59.96339834217518,
stimuli/rgb_scene000066_render000002.png,stimuli/rgb_scene000066_render000005.png,1,65,275,76,"[0, 1]",right,1,27,32,m,y,y,2019_Jul_16_1436,2AFC_task,59.96339834217518,
stimuli/rgb_scene000042_render000005.png,stimuli/rgb_scene000042_render000006.png,1,66,276,20,"[0, 1]",right,1,27,32,m,y,y,2019_Jul_16_1436,2AFC_task,59.96339834217518,
stimuli/rgb_scene000160_render000000.png,stimuli/rgb_scene000160_render000004.png,1,67,277,129,"[0, 1]",right,1,27,32,m,y,y,2019_Jul_16_1436,2AFC_task,59.96339834217518,
stimuli/rgb_scene000047_render000002.png,stimuli/rgb_scene000047_render000003.png,1,68,278,32,"[0, 1]",left,0,27,32,m,y,y,2019_Jul_16_1436,2AFC_task,59.96339834217518,
stimuli/rgb_scene000066_render000000.png,stimuli/rgb_scene000066_render000005.png,1,69,279,67,"[1, 0]",left,1,27,32,m,y,y,2019_Jul_16_1436,2AFC_task,59.96339834217518,
stimuli/rgb_scene000047_render000001.png,stimuli/rgb_scene000047_render000002.png,1,70,280,27,"[0, 1]",right,1,27,32,m,y,y,2019_Jul_16_1436,2AFC_task,59.96339834217518,
stimuli/rgb_scene000147_render000000.png,stimuli/rgb_scene000147_render000003.png,1,71,281,86,"[0, 1]",right,1,27,32,m,y,y,2019_Jul_16_1436,2AFC_task,59.96339834217518,
stimuli/rgb_scene000165_render000000.png,stimuli/rgb_scene000165_render000006.png,1,72,282,152,"[0, 1]",right,1,27,32,m,y,y,2019_Jul_16_1436,2AFC_task,59.96339834217518,
stimuli/rgb_scene000147_render000002.png,stimuli/rgb_scene000147_render000003.png,1,73,283,95,"[1, 0]",left,1,27,32,m,y,y,2019_Jul_16_1436,2AFC_task,59.96339834217518,
stimuli/rgb_scene000147_render000002.png,stimuli/rgb_scene000147_render000004.png,1,74,284,96,"[1, 0]",left,1,27,32,m,y,y,2019_Jul_16_1436,2AFC_task,59.96339834217518,
stimuli/rgb_scene000160_render000002.png,stimuli/rgb_scene000160_render000005.png,1,75,285,139,"[0, 1]",right,1,27,32,m,y,y,2019_Jul_16_1436,2AFC_task,59.96339834217518,
stimuli/rgb_scene000150_render000000.png,stimuli/rgb_scene000150_render000004.png,1,76,286,108,"[1, 0]",left,1,27,32,m,y,y,2019_Jul_16_1436,2AFC_task,59.96339834217518,
stimuli/rgb_scene000165_render000000.png,stimuli/rgb_scene000165_render000005.png,1,77,287,151,"[0, 1]",right,1,27,32,m,y,y,2019_Jul_16_1436,2AFC_task,59.96339834217518,
stimuli/rgb_scene000042_render000002.png,stimuli/rgb_scene000042_render000006.png,1,78,288,14,"[0, 1]",right,1,27,32,m,y,y,2019_Jul_16_1436,2AFC_task,59.96339834217518,
stimuli/rgb_scene000056_render000000.png,stimuli/rgb_scene000056_render000003.png,1,79,289,44,"[1, 0]",left,1,27,32,m,y,y,2019_Jul_16_1436,2AFC_task,59.96339834217518,
stimuli/rgb_scene000042_render000001.png,stimuli/rgb_scene000042_render000002.png,1,80,290,6,"[0, 1]",right,1,27,32,m,y,y,2019_Jul_16_1436,2AFC_task,59.96339834217518,
stimuli/rgb_scene000169_render000002.png,stimuli/rgb_scene000169_render000003.png,1,81,291,179,"[1, 0]",right,0,27,32,m,y,y,2019_Jul_16_1436,2AFC_task,59.96339834217518,
stimuli/rgb_scene000042_render000003.png,stimuli/rgb_scene000042_render000004.png,1,82,292,15,"[0, 1]",right,1,27,32,m,y,y,2019_Jul_16_1436,2AFC_task,59.96339834217518,
stimuli/rgb_scene000066_render000001.png,stimuli/rgb_scene000066_render000004.png,1,83,293,71,"[1, 0]",left,1,27,32,m,y,y,2019_Jul_16_1436,2AFC_task,59.96339834217518,
stimuli/rgb_scene000150_render000000.png,stimuli/rgb_scene000150_render000006.png,1,84,294,110,"[0, 1]",right,1,27,32,m,y,y,2019_Jul_16_1436,2AFC_task,59.96339834217518,
stimuli/rgb_scene000147_render000004.png,stimuli/rgb_scene000147_render000005.png,1,85,295,102,"[0, 1]",right,1,27,32,m,y,y,2019_Jul_16_1436,2AFC_task,59.96339834217518,
stimuli/rgb_scene000042_render000000.png,stimuli/rgb_scene000042_render000006.png,1,86,296,5,"[0, 1]",right,1,27,32,m,y,y,2019_Jul_16_1436,2AFC_task,59.96339834217518,
stimuli/rgb_scene000165_render000000.png,stimuli/rgb_scene000165_render000001.png,1,87,297,147,"[1, 0]",left,1,27,32,m,y,y,2019_Jul_16_1436,2AFC_task,59.96339834217518,
stimuli/rgb_scene000047_render000000.png,stimuli/rgb_scene000047_render000003.png,1,88,298,23,"[0, 1]",right,1,27,32,m,y,y,2019_Jul_16_1436,2AFC_task,59.96339834217518,
stimuli/rgb_scene000042_render000000.png,stimuli/rgb_scene000042_render000003.png,1,89,299,2,"[0, 1]",right,1,27,32,m,y,y,2019_Jul_16_1436,2AFC_task,59.96339834217518,
stimuli/rgb_scene000147_render000001.png,stimuli/rgb_scene000147_render000003.png,1,90,300,91,"[1, 0]",left,1,27,32,m,y,y,2019_Jul_16_1436,2AFC_task,59.96339834217518,
stimuli/rgb_scene000056_render000002.png,stimuli/rgb_scene000056_render000006.png,1,91,301,56,"[1, 0]",left,1,27,32,m,y,y,2019_Jul_16_1436,2AFC_task,59.96339834217518,
stimuli/rgb_scene000056_render000004.png,stimuli/rgb_scene000056_render000005.png,1,92,302,60,"[0, 1]",right,1,27,32,m,y,y,2019_Jul_16_1436,2AFC_task,59.96339834217518,
stimuli/rgb_scene000196_render000002.png,stimuli/rgb_scene000196_render000005.png,1,93,303,202,"[1, 0]",left,1,27,32,m,y,y,2019_Jul_16_1436,2AFC_task,59.96339834217518,
stimuli/rgb_scene000169_render000001.png,stimuli/rgb_scene000169_render000003.png,1,94,304,175,"[1, 0]",left,1,27,32,m,y,y,2019_Jul_16_1436,2AFC_task,59.96339834217518,
stimuli/rgb_scene000169_render000002.png,stimuli/rgb_scene000169_render000006.png,1,95,305,182,"[1, 0]",right,0,27,32,m,y,y,2019_Jul_16_1436,2AFC_task,59.96339834217518,
stimuli/rgb_scene000147_render000002.png,stimuli/rgb_scene000147_render000006.png,1,96,306,98,"[1, 0]",left,1,27,32,m,y,y,2019_Jul_16_1436,2AFC_task,59.96339834217518,
stimuli/rgb_scene000165_render000003.png,stimuli/rgb_scene000165_render000005.png,1,97,307,163,"[0, 1]",right,1,27,32,m,y,y,2019_Jul_16_1436,2AFC_task,59.96339834217518,
stimuli/rgb_scene000196_render000001.png,stimuli/rgb_scene000196_render000002.png,1,98,308,195,"[1, 0]",left,1,27,32,m,y,y,2019_Jul_16_1436,2AFC_task,59.96339834217518,
stimuli/rgb_scene000147_render000003.png,stimuli/rgb_scene000147_render000005.png,1,99,309,100,"[0, 1]",right,1,27,32,m,y,y,2019_Jul_16_1436,2AFC_task,59.96339834217518,
stimuli/rgb_scene000042_render000001.png,stimuli/rgb_scene000042_render000004.png,1,100,310,8,"[0, 1]",right,1,27,32,m,y,y,2019_Jul_16_1436,2AFC_task,59.96339834217518,
stimuli/rgb_scene000147_render000000.png,stimuli/rgb_scene000147_render000001.png,1,101,311,84,"[0, 1]",right,1,27,32,m,y,y,2019_Jul_16_1436,2AFC_task,59.96339834217518,
stimuli/rgb_scene000056_render000002.png,stimuli/rgb_scene000056_render000004.png,1,102,312,54,"[0, 1]",right,1,27,32,m,y,y,2019_Jul_16_1436,2AFC_task,59.96339834217518,
stimuli/rgb_scene000165_render000001.png,stimuli/rgb_scene000165_render000002.png,1,103,313,153,"[1, 0]",left,1,27,32,m,y,y,2019_Jul_16_1436,2AFC_task,59.96339834217518,
stimuli/rgb_scene000042_render000000.png,stimuli/rgb_scene000042_render000002.png,1,104,314,1,"[1, 0]",right,0,27,32,m,y,y,2019_Jul_16_1436,2AFC_task,59.96339834217518,
stimuli/rgb_scene000160_render000003.png,stimuli/rgb_scene000160_render000004.png,1,105,315,141,"[1, 0]",left,1,27,32,m,y,y,2019_Jul_16_1436,2AFC_task,59.96339834217518,
stimuli/rgb_scene000150_render000002.png,stimuli/rgb_scene000150_render000005.png,1,106,316,118,"[0, 1]",right,1,27,32,m,y,y,2019_Jul_16_1436,2AFC_task,59.96339834217518,
stimuli/rgb_scene000169_render000004.png,stimuli/rgb_scene000169_render000006.png,1,107,317,187,"[1, 0]",left,1,27,32,m,y,y,2019_Jul_16_1436,2AFC_task,59.96339834217518,
stimuli/rgb_scene000056_render000000.png,stimuli/rgb_scene000056_render000001.png,1,108,318,42,"[1, 0]",right,0,27,32,m,y,y,2019_Jul_16_1436,2AFC_task,59.96339834217518,
stimuli/rgb_scene000196_render000000.png,stimuli/rgb_scene000196_render000002.png,1,109,319,190,"[1, 0]",left,1,27,32,m,y,y,2019_Jul_16_1436,2AFC_task,59.96339834217518,
stimuli/rgb_scene000169_render000000.png,stimuli/rgb_scene000169_render000003.png,1,110,320,170,"[1, 0]",right,0,27,32,m,y,y,2019_Jul_16_1436,2AFC_task,59.96339834217518,
stimuli/rgb_scene000160_render000003.png,stimuli/rgb_scene000160_render000006.png,1,111,321,143,"[1, 0]",left,1,27,32,m,y,y,2019_Jul_16_1436,2AFC_task,59.96339834217518,
stimuli/rgb_scene000047_render000001.png,stimuli/rgb_scene000047_render000003.png,1,112,322,28,"[0, 1]",right,1,27,32,m,y,y,2019_Jul_16_1436,2AFC_task,59.96339834217518,
stimuli/rgb_scene000196_render000001.png,stimuli/rgb_scene000196_render000006.png,1,113,323,199,"[0, 1]",left,0,27,32,m,y,y,2019_Jul_16_1436,2AFC_task,59.96339834217518,
stimuli/rgb_scene000056_render000004.png,stimuli/rgb_scene000056_render000006.png,1,114,324,61,"[0, 1]",right,1,27,32,m,y,y,2019_Jul_16_1436,2AFC_task,59.96339834217518,
stimuli/rgb_scene000160_render000002.png,stimuli/rgb_scene000160_render000004.png,1,115,325,138,"[1, 0]",left,1,27,32,m,y,y,2019_Jul_16_1436,2AFC_task,59.96339834217518,
stimuli/rgb_scene000196_render000003.png,stimuli/rgb_scene000196_render000004.png,1,116,326,204,"[1, 0]",right,0,27,32,m,y,y,2019_Jul_16_1436,2AFC_task,59.96339834217518,
stimuli/rgb_scene000150_render000000.png,stimuli/rgb_scene000150_render000002.png,1,117,327,106,"[0, 1]",left,0,27,32,m,y,y,2019_Jul_16_1436,2AFC_task,59.96339834217518,
stimuli/rgb_scene000056_render000001.png,stimuli/rgb_scene000056_render000006.png,1,118,328,52,"[0, 1]",right,1,27,32,m,y,y,2019_Jul_16_1436,2AFC_task,59.96339834217518,
stimuli/rgb_scene000160_render000001.png,stimuli/rgb_scene000160_render000006.png,1,119,329,136,"[0, 1]",right,1,27,32,m,y,y,2019_Jul_16_1436,2AFC_task,59.96339834217518,
stimuli/rgb_scene000066_render000002.png,stimuli/rgb_scene000066_render000003.png,1,120,330,74,"[0, 1]",left,0,27,32,m,y,y,2019_Jul_16_1436,2AFC_task,59.96339834217518,
stimuli/rgb_scene000047_render000000.png,stimuli/rgb_scene000047_render000001.png,1,121,331,21,"[1, 0]",right,0,27,32,m,y,y,2019_Jul_16_1436,2AFC_task,59.96339834217518,
stimuli/rgb_scene000056_render000000.png,stimuli/rgb_scene000056_render000004.png,1,122,332,45,"[1, 0]",left,1,27,32,m,y,y,2019_Jul_16_1436,2AFC_task,59.96339834217518,
stimuli/rgb_scene000047_render000000.png,stimuli/rgb_scene000047_render000004.png,1,123,333,24,"[1, 0]",left,1,27,32,m,y,y,2019_Jul_16_1436,2AFC_task,59.96339834217518,
stimuli/rgb_scene000196_render000000.png,stimuli/rgb_scene000196_render000006.png,1,124,334,194,"[1, 0]",right,0,27,32,m,y,y,2019_Jul_16_1436,2AFC_task,59.96339834217518,
stimuli/rgb_scene000196_render000000.png,stimuli/rgb_scene000196_render000001.png,1,125,335,189,"[1, 0]",right,0,27,32,m,y,y,2019_Jul_16_1436,2AFC_task,59.96339834217518,
stimuli/rgb_scene000150_render000003.png,stimuli/rgb_scene000150_render000004.png,1,126,336,120,"[1, 0]",left,1,27,32,m,y,y,2019_Jul_16_1436,2AFC_task,59.96339834217518,
stimuli/rgb_scene000047_render000001.png,stimuli/rgb_scene000047_render000004.png,1,127,337,29,"[0, 1]",right,1,27,32,m,y,y,2019_Jul_16_1436,2AFC_task,59.96339834217518,
stimuli/rgb_scene000196_render000000.png,stimuli/rgb_scene000196_render000005.png,1,128,338,193,"[0, 1]",left,0,27,32,m,y,y,2019_Jul_16_1436,2AFC_task,59.96339834217518,
stimuli/rgb_scene000147_render000001.png,stimuli/rgb_scene000147_render000002.png,1,129,339,90,"[1, 0]",left,1,27,32,m,y,y,2019_Jul_16_1436,2AFC_task,59.96339834217518,
stimuli/rgb_scene000169_render000001.png,stimuli/rgb_scene000169_render000006.png,1,130,340,178,"[0, 1]",right,1,27,32,m,y,y,2019_Jul_16_1436,2AFC_task,59.96339834217518,
stimuli/rgb_scene000160_render000004.png,stimuli/rgb_scene000160_render000006.png,1,131,341,145,"[1, 0]",left,1,27,32,m,y,y,2019_Jul_16_1436,2AFC_task,59.96339834217518,
stimuli/rgb_scene000150_render000001.png,stimuli/rgb_scene000150_render000003.png,1,132,342,112,"[1, 0]",left,1,27,32,m,y,y,2019_Jul_16_1436,2AFC_task,59.96339834217518,
stimuli/rgb_scene000150_render000001.png,stimuli/rgb_scene000150_render000005.png,1,133,343,114,"[0, 1]",right,1,27,32,m,y,y,2019_Jul_16_1436,2AFC_task,59.96339834217518,
stimuli/rgb_scene000042_render000004.png,stimuli/rgb_scene000042_render000006.png,1,134,344,19,"[0, 1]",right,1,27,32,m,y,y,2019_Jul_16_1436,2AFC_task,59.96339834217518,
stimuli/rgb_scene000169_render000005.png,stimuli/rgb_scene000169_render000006.png,1,135,345,188,"[1, 0]",left,1,27,32,m,y,y,2019_Jul_16_1436,2AFC_task,59.96339834217518,
stimuli/rgb_scene000147_render000000.png,stimuli/rgb_scene000147_render000004.png,1,136,346,87,"[0, 1]",right,1,27,32,m,y,y,2019_Jul_16_1436,2AFC_task,59.96339834217518,
stimuli/rgb_scene000165_render000004.png,stimuli/rgb_scene000165_render000006.png,1,137,347,166,"[0, 1]",right,1,27,32,m,y,y,2019_Jul_16_1436,2AFC_task,59.96339834217518,
stimuli/rgb_scene000165_render000004.png,stimuli/rgb_scene000165_render000005.png,1,138,348,165,"[1, 0]",left,1,27,32,m,y,y,2019_Jul_16_1436,2AFC_task,59.96339834217518,
stimuli/rgb_scene000047_render000004.png,stimuli/rgb_scene000047_render000005.png,1,139,349,39,"[1, 0]",right,0,27,32,m,y,y,2019_Jul_16_1436,2AFC_task,59.96339834217518,
stimuli/rgb_scene000196_render000003.png,stimuli/rgb_scene000196_render000006.png,1,140,350,206,"[1, 0]",right,0,27,32,m,y,y,2019_Jul_16_1436,2AFC_task,59.96339834217518,
stimuli/rgb_scene000150_render000000.png,stimuli/rgb_scene000150_render000003.png,1,141,351,107,"[0, 1]",right,1,27,32,m,y,y,2019_Jul_16_1436,2AFC_task,59.96339834217518,
stimuli/rgb_scene000165_render000002.png,stimuli/rgb_scene000165_render000005.png,1,142,352,160,"[0, 1]",right,1,27,32,m,y,y,2019_Jul_16_1436,2AFC_task,59.96339834217518,
stimuli/rgb_scene000196_render000000.png,stimuli/rgb_scene000196_render000003.png,1,143,353,191,"[0, 1]",right,1,27,32,m,y,y,2019_Jul_16_1436,2AFC_task,59.96339834217518,
stimuli/rgb_scene000165_render000001.png,stimuli/rgb_scene000165_render000004.png,1,144,354,155,"[1, 0]",left,1,27,32,m,y,y,2019_Jul_16_1436,2AFC_task,59.96339834217518,
stimuli/rgb_scene000042_render000002.png,stimuli/rgb_scene000042_render000003.png,1,145,355,11,"[0, 1]",left,0,27,32,m,y,y,2019_Jul_16_1436,2AFC_task,59.96339834217518,
stimuli/rgb_scene000150_render000000.png,stimuli/rgb_scene000150_render000005.png,1,146,356,109,"[1, 0]",left,1,27,32,m,y,y,2019_Jul_16_1436,2AFC_task,59.96339834217518,
stimuli/rgb_scene000047_render000001.png,stimuli/rgb_scene000047_render000006.png,1,147,357,31,"[0, 1]",right,1,27,32,m,y,y,2019_Jul_16_1436,2AFC_task,59.96339834217518,
stimuli/rgb_scene000047_render000001.png,stimuli/rgb_scene000047_render000005.png,1,148,358,30,"[1, 0]",left,1,27,32,m,y,y,2019_Jul_16_1436,2AFC_task,59.96339834217518,
stimuli/rgb_scene000147_render000001.png,stimuli/rgb_scene000147_render000004.png,1,149,359,92,"[1, 0]",left,1,27,32,m,y,y,2019_Jul_16_1436,2AFC_task,59.96339834217518,
stimuli/rgb_scene000196_render000002.png,stimuli/rgb_scene000196_render000003.png,1,150,360,200,"[0, 1]",right,1,27,32,m,y,y,2019_Jul_16_1436,2AFC_task,59.96339834217518,
stimuli/rgb_scene000042_render000002.png,stimuli/rgb_scene000042_render000005.png,1,151,361,13,"[0, 1]",right,1,27,32,m,y,y,2019_Jul_16_1436,2AFC_task,59.96339834217518,
stimuli/rgb_scene000196_render000002.png,stimuli/rgb_scene000196_render000006.png,1,152,362,203,"[0, 1]",left,0,27,32,m,y,y,2019_Jul_16_1436,2AFC_task,59.96339834217518,
stimuli/rgb_scene000160_render000001.png,stimuli/rgb_scene000160_render000002.png,1,153,363,132,"[0, 1]",right,1,27,32,m,y,y,2019_Jul_16_1436,2AFC_task,59.96339834217518,
stimuli/rgb_scene000165_render000001.png,stimuli/rgb_scene000165_render000006.png,1,154,364,157,"[1, 0]",left,1,27,32,m,y,y,2019_Jul_16_1436,2AFC_task,59.96339834217518,
stimuli/rgb_scene000169_render000001.png,stimuli/rgb_scene000169_render000002.png,1,155,365,174,"[0, 1]",right,1,27,32,m,y,y,2019_Jul_16_1436,2AFC_task,59.96339834217518,
stimuli/rgb_scene000056_render000001.png,stimuli/rgb_scene000056_render000004.png,1,156,366,50,"[0, 1]",right,1,27,32,m,y,y,2019_Jul_16_1436,2AFC_task,59.96339834217518,
stimuli/rgb_scene000165_render000001.png,stimuli/rgb_scene000165_render000003.png,1,157,367,154,"[1, 0]",left,1,27,32,m,y,y,2019_Jul_16_1436,2AFC_task,59.96339834217518,
stimuli/rgb_scene000147_render000003.png,stimuli/rgb_scene000147_render000004.png,1,158,368,99,"[1, 0]",left,1,27,32,m,y,y,2019_Jul_16_1436,2AFC_task,59.96339834217518,
stimuli/rgb_scene000150_render000003.png,stimuli/rgb_scene000150_render000006.png,1,159,369,122,"[0, 1]",right,1,27,32,m,y,y,2019_Jul_16_1436,2AFC_task,59.96339834217518,
stimuli/rgb_scene000042_render000004.png,stimuli/rgb_scene000042_render000005.png,1,160,370,18,"[1, 0]",left,1,27,32,m,y,y,2019_Jul_16_1436,2AFC_task,59.96339834217518,
stimuli/rgb_scene000042_render000000.png,stimuli/rgb_scene000042_render000005.png,1,161,371,4,"[0, 1]",right,1,27,32,m,y,y,2019_Jul_16_1436,2AFC_task,59.96339834217518,
stimuli/rgb_scene000042_render000001.png,stimuli/rgb_scene000042_render000005.png,1,162,372,9,"[0, 1]",right,1,27,32,m,y,y,2019_Jul_16_1436,2AFC_task,59.96339834217518,
stimuli/rgb_scene000150_render000004.png,stimuli/rgb_scene000150_render000006.png,1,163,373,124,"[0, 1]",left,0,27,32,m,y,y,2019_Jul_16_1436,2AFC_task,59.96339834217518,
stimuli/rgb_scene000150_render000002.png,stimuli/rgb_scene000150_render000004.png,1,164,374,117,"[1, 0]",left,1,27,32,m,y,y,2019_Jul_16_1436,2AFC_task,59.96339834217518,
stimuli/rgb_scene000066_render000003.png,stimuli/rgb_scene000066_render000006.png,1,165,375,80,"[1, 0]",left,1,27,32,m,y,y,2019_Jul_16_1436,2AFC_task,59.96339834217518,
stimuli/rgb_scene000147_render000001.png,stimuli/rgb_scene000147_render000005.png,1,166,376,93,"[0, 1]",right,1,27,32,m,y,y,2019_Jul_16_1436,2AFC_task,59.96339834217518,
stimuli/rgb_scene000160_render000001.png,stimuli/rgb_scene000160_render000003.png,1,167,377,133,"[0, 1]",left,0,27,32,m,y,y,2019_Jul_16_1436,2AFC_task,59.96339834217518,
stimuli/rgb_scene000165_render000001.png,stimuli/rgb_scene000165_render000005.png,1,168,378,156,"[1, 0]",left,1,27,32,m,y,y,2019_Jul_16_1436,2AFC_task,59.96339834217518,
stimuli/rgb_scene000056_render000001.png,stimuli/rgb_scene000056_render000003.png,1,169,379,49,"[1, 0]",left,1,27,32,m,y,y,2019_Jul_16_1436,2AFC_task,59.96339834217518,
stimuli/rgb_scene000066_render000003.png,stimuli/rgb_scene000066_render000005.png,1,170,380,79,"[1, 0]",left,1,27,32,m,y,y,2019_Jul_16_1436,2AFC_task,59.96339834217518,
stimuli/rgb_scene000160_render000000.png,stimuli/rgb_scene000160_render000001.png,1,171,381,126,"[0, 1]",right,1,27,32,m,y,y,2019_Jul_16_1436,2AFC_task,59.96339834217518,
stimuli/rgb_scene000147_render000001.png,stimuli/rgb_scene000147_render000006.png,1,172,382,94,"[0, 1]",right,1,27,32,m,y,y,2019_Jul_16_1436,2AFC_task,59.96339834217518,
stimuli/rgb_scene000196_render000004.png,stimuli/rgb_scene000196_render000006.png,1,173,383,208,"[1, 0]",left,1,27,32,m,y,y,2019_Jul_16_1436,2AFC_task,59.96339834217518,
stimuli/rgb_scene000196_render000001.png,stimuli/rgb_scene000196_render000004.png,1,174,384,197,"[0, 1]",left,0,27,32,m,y,y,2019_Jul_16_1436,2AFC_task,59.96339834217518,
stimuli/rgb_scene000150_render000000.png,stimuli/rgb_scene000150_render000001.png,1,175,385,105,"[1, 0]",left,1,27,32,m,y,y,2019_Jul_16_1436,2AFC_task,59.96339834217518,
stimuli/rgb_scene000042_render000001.png,stimuli/rgb_scene000042_render000003.png,1,176,386,7,"[1, 0]",left,1,27,32,m,y,y,2019_Jul_16_1436,2AFC_task,59.96339834217518,
stimuli/rgb_scene000066_render000001.png,stimuli/rgb_scene000066_render000005.png,1,177,387,72,"[0, 1]",right,1,27,32,m,y,y,2019_Jul_16_1436,2AFC_task,59.96339834217518,
stimuli/rgb_scene000047_render000002.png,stimuli/rgb_scene000047_render000006.png,1,178,388,35,"[0, 1]",right,1,27,32,m,y,y,2019_Jul_16_1436,2AFC_task,59.96339834217518,
stimuli/rgb_scene000150_render000001.png,stimuli/rgb_scene000150_render000002.png,1,179,389,111,"[0, 1]",right,1,27,32,m,y,y,2019_Jul_16_1436,2AFC_task,59.96339834217518,
stimuli/rgb_scene000066_render000001.png,stimuli/rgb_scene000066_render000003.png,1,180,390,70,"[1, 0]",left,1,27,32,m,y,y,2019_Jul_16_1436,2AFC_task,59.96339834217518,
stimuli/rgb_scene000160_render000000.png,stimuli/rgb_scene000160_render000003.png,1,181,391,128,"[0, 1]",right,1,27,32,m,y,y,2019_Jul_16_1436,2AFC_task,59.96339834217518,
stimuli/rgb_scene000196_render000005.png,stimuli/rgb_scene000196_render000006.png,1,182,392,209,"[1, 0]",left,1,27,32,m,y,y,2019_Jul_16_1436,2AFC_task,59.96339834217518,
stimuli/rgb_scene000150_render000002.png,stimuli/rgb_scene000150_render000003.png,1,183,393,116,"[1, 0]",left,1,27,32,m,y,y,2019_Jul_16_1436,2AFC_task,59.96339834217518,
stimuli/rgb_scene000042_render000000.png,stimuli/rgb_scene000042_render000001.png,1,184,394,0,"[1, 0]",left,1,27,32,m,y,y,2019_Jul_16_1436,2AFC_task,59.96339834217518,
stimuli/rgb_scene000196_render000001.png,stimuli/rgb_scene000196_render000005.png,1,185,395,198,"[1, 0]",left,1,27,32,m,y,y,2019_Jul_16_1436,2AFC_task,59.96339834217518,
stimuli/rgb_scene000196_render000001.png,stimuli/rgb_scene000196_render000003.png,1,186,396,196,"[0, 1]",right,1,27,32,m,y,y,2019_Jul_16_1436,2AFC_task,59.96339834217518,
stimuli/rgb_scene000196_render000004.png,stimuli/rgb_scene000196_render000005.png,1,187,397,207,"[0, 1]",left,0,27,32,m,y,y,2019_Jul_16_1436,2AFC_task,59.96339834217518,
stimuli/rgb_scene000056_render000000.png,stimuli/rgb_scene000056_render000006.png,1,188,398,47,"[1, 0]",left,1,27,32,m,y,y,2019_Jul_16_1436,2AFC_task,59.96339834217518,
stimuli/rgb_scene000165_render000000.png,stimuli/rgb_scene000165_render000002.png,1,189,399,148,"[1, 0]",left,1,27,32,m,y,y,2019_Jul_16_1436,2AFC_task,59.96339834217518,
stimuli/rgb_scene000056_render000003.png,stimuli/rgb_scene000056_render000005.png,1,190,400,58,"[1, 0]",left,1,27,32,m,y,y,2019_Jul_16_1436,2AFC_task,59.96339834217518,
stimuli/rgb_scene000047_render000000.png,stimuli/rgb_scene000047_render000002.png,1,191,401,22,"[1, 0]",left,1,27,32,m,y,y,2019_Jul_16_1436,2AFC_task,59.96339834217518,
stimuli/rgb_scene000056_render000003.png,stimuli/rgb_scene000056_render000004.png,1,192,402,57,"[1, 0]",left,1,27,32,m,y,y,2019_Jul_16_1436,2AFC_task,59.96339834217518,
stimuli/rgb_scene000056_render000001.png,stimuli/rgb_scene000056_render000005.png,1,193,403,51,"[0, 1]",right,1,27,32,m,y,y,2019_Jul_16_1436,2AFC_task,59.96339834217518,
stimuli/rgb_scene000196_render000002.png,stimuli/rgb_scene000196_render000004.png,1,194,404,201,"[0, 1]",left,0,27,32,m,y,y,2019_Jul_16_1436,2AFC_task,59.96339834217518,
stimuli/rgb_scene000169_render000003.png,stimuli/rgb_scene000169_render000004.png,1,195,405,183,"[1, 0]",right,0,27,32,m,y,y,2019_Jul_16_1436,2AFC_task,59.96339834217518,
stimuli/rgb_scene000165_render000003.png,stimuli/rgb_scene000165_render000006.png,1,196,406,164,"[0, 1]",right,1,27,32,m,y,y,2019_Jul_16_1436,2AFC_task,59.96339834217518,
stimuli/rgb_scene000150_render000001.png,stimuli/rgb_scene000150_render000004.png,1,197,407,113,"[1, 0]",left,1,27,32,m,y,y,2019_Jul_16_1436,2AFC_task,59.96339834217518,
stimuli/rgb_scene000042_render000001.png,stimuli/rgb_scene000042_render000006.png,1,198,408,10,"[0, 1]",right,1,27,32,m,y,y,2019_Jul_16_1436,2AFC_task,59.96339834217518,
stimuli/rgb_scene000066_render000000.png,stimuli/rgb_scene000066_render000004.png,1,199,409,66,"[0, 1]",right,1,27,32,m,y,y,2019_Jul_16_1436,2AFC_task,59.96339834217518,
stimuli/rgb_scene000047_render000003.png,stimuli/rgb_scene000047_render000006.png,1,200,410,38,"[1, 0]",left,1,27,32,m,y,y,2019_Jul_16_1436,2AFC_task,59.96339834217518,
stimuli/rgb_scene000165_render000000.png,stimuli/rgb_scene000165_render000004.png,1,201,411,150,"[1, 0]",left,1,27,32,m,y,y,2019_Jul_16_1436,2AFC_task,59.96339834217518,
stimuli/rgb_scene000147_render000000.png,stimuli/rgb_scene000147_render000002.png,1,202,412,85,"[0, 1]",right,1,27,32,m,y,y,2019_Jul_16_1436,2AFC_task,59.96339834217518,
stimuli/rgb_scene000147_render000000.png,stimuli/rgb_scene000147_render000005.png,1,203,413,88,"[0, 1]",right,1,27,32,m,y,y,2019_Jul_16_1436,2AFC_task,59.96339834217518,
stimuli/rgb_scene000169_render000002.png,stimuli/rgb_scene000169_render000005.png,1,204,414,181,"[1, 0]",left,1,27,32,m,y,y,2019_Jul_16_1436,2AFC_task,59.96339834217518,
stimuli/rgb_scene000047_render000003.png,stimuli/rgb_scene000047_render000004.png,1,205,415,36,"[0, 1]",right,1,27,32,m,y,y,2019_Jul_16_1436,2AFC_task,59.96339834217518,
stimuli/rgb_scene000066_render000005.png,stimuli/rgb_scene000066_render000006.png,1,206,416,83,"[0, 1]",left,0,27,32,m,y,y,2019_Jul_16_1436,2AFC_task,59.96339834217518,
stimuli/rgb_scene000165_render000005.png,stimuli/rgb_scene000165_render000006.png,1,207,417,167,"[0, 1]",right,1,27,32,m,y,y,2019_Jul_16_1436,2AFC_task,59.96339834217518,
stimuli/rgb_scene000147_render000005.png,stimuli/rgb_scene000147_render000006.png,1,208,418,104,"[1, 0]",left,1,27,32,m,y,y,2019_Jul_16_1436,2AFC_task,59.96339834217518,
stimuli/rgb_scene000165_render000002.png,stimuli/rgb_scene000165_render000006.png,1,209,419,161,"[0, 1]",right,1,27,32,m,y,y,2019_Jul_16_1436,2AFC_task,59.96339834217518,
