stimOne,stimTwo,trials_1.thisRepN,trials_1.thisTrialN,trials_1.thisN,trials_1.thisIndex,presentation_positions,resp_key,corresponding_image,participant ID (two digits, e.g. 01),age,gender (m/f/-),normal or corrected-to-normal vision (y/n),normal colour vision (y/n),date,expName,frameRate,
stimuli/rgb_scene000196_render000001.png,stimuli/rgb_scene000196_render000004.png,0,0,0,197,"[1, 0]",left,1,28,21,f,y,y,2019_Jul_17_1110,2AFC_task,59.9527572305024,
stimuli/rgb_scene000056_render000003.png,stimuli/rgb_scene000056_render000004.png,0,1,1,57,"[1, 0]",left,1,28,21,f,y,y,2019_Jul_17_1110,2AFC_task,59.9527572305024,
stimuli/rgb_scene000042_render000001.png,stimuli/rgb_scene000042_render000006.png,0,2,2,10,"[1, 0]",left,1,28,21,f,y,y,2019_Jul_17_1110,2AFC_task,59.9527572305024,
stimuli/rgb_scene000042_render000004.png,stimuli/rgb_scene000042_render000005.png,0,3,3,18,"[1, 0]",left,1,28,21,f,y,y,2019_Jul_17_1110,2AFC_task,59.9527572305024,
stimuli/rgb_scene000047_render000000.png,stimuli/rgb_scene000047_render000004.png,0,4,4,24,"[0, 1]",right,1,28,21,f,y,y,2019_Jul_17_1110,2AFC_task,59.9527572305024,
stimuli/rgb_scene000047_render000002.png,stimuli/rgb_scene000047_render000004.png,0,5,5,33,"[0, 1]",right,1,28,21,f,y,y,2019_Jul_17_1110,2AFC_task,59.9527572305024,
stimuli/rgb_scene000042_render000001.png,stimuli/rgb_scene000042_render000003.png,0,6,6,7,"[0, 1]",right,1,28,21,f,y,y,2019_Jul_17_1110,2AFC_task,59.9527572305024,
stimuli/rgb_scene000160_render000000.png,stimuli/rgb_scene000160_render000006.png,0,7,7,131,"[1, 0]",left,1,28,21,f,y,y,2019_Jul_17_1110,2AFC_task,59.9527572305024,
stimuli/rgb_scene000150_render000003.png,stimuli/rgb_scene000150_render000006.png,0,8,8,122,"[0, 1]",right,1,28,21,f,y,y,2019_Jul_17_1110,2AFC_task,59.9527572305024,
stimuli/rgb_scene000066_render000000.png,stimuli/rgb_scene000066_render000005.png,0,9,9,67,"[1, 0]",left,1,28,21,f,y,y,2019_Jul_17_1110,2AFC_task,59.9527572305024,
stimuli/rgb_scene000066_render000001.png,stimuli/rgb_scene000066_render000003.png,0,10,10,70,"[1, 0]",left,1,28,21,f,y,y,2019_Jul_17_1110,2AFC_task,59.9527572305024,
stimuli/rgb_scene000196_render000002.png,stimuli/rgb_scene000196_render000003.png,0,11,11,200,"[1, 0]",right,0,28,21,f,y,y,2019_Jul_17_1110,2AFC_task,59.9527572305024,
stimuli/rgb_scene000169_render000003.png,stimuli/rgb_scene000169_render000006.png,0,12,12,185,"[0, 1]",right,1,28,21,f,y,y,2019_Jul_17_1110,2AFC_task,59.9527572305024,
stimuli/rgb_scene000196_render000005.png,stimuli/rgb_scene000196_render000006.png,0,13,13,209,"[1, 0]",left,1,28,21,f,y,y,2019_Jul_17_1110,2AFC_task,59.9527572305024,
stimuli/rgb_scene000056_render000000.png,stimuli/rgb_scene000056_render000003.png,0,14,14,44,"[1, 0]",left,1,28,21,f,y,y,2019_Jul_17_1110,2AFC_task,59.9527572305024,
stimuli/rgb_scene000147_render000003.png,stimuli/rgb_scene000147_render000004.png,0,15,15,99,"[1, 0]",left,1,28,21,f,y,y,2019_Jul_17_1110,2AFC_task,59.9527572305024,
stimuli/rgb_scene000169_render000002.png,stimuli/rgb_scene000169_render000004.png,0,16,16,180,"[1, 0]",left,1,28,21,f,y,y,2019_Jul_17_1110,2AFC_task,59.9527572305024,
stimuli/rgb_scene000160_render000005.png,stimuli/rgb_scene000160_render000006.png,0,17,17,146,"[1, 0]",left,1,28,21,f,y,y,2019_Jul_17_1110,2AFC_task,59.9527572305024,
stimuli/rgb_scene000066_render000005.png,stimuli/rgb_scene000066_render000006.png,0,18,18,83,"[1, 0]",left,1,28,21,f,y,y,2019_Jul_17_1110,2AFC_task,59.9527572305024,
stimuli/rgb_scene000066_render000003.png,stimuli/rgb_scene000066_render000005.png,0,19,19,79,"[1, 0]",left,1,28,21,f,y,y,2019_Jul_17_1110,2AFC_task,59.9527572305024,
stimuli/rgb_scene000147_render000002.png,stimuli/rgb_scene000147_render000004.png,0,20,20,96,"[1, 0]",left,1,28,21,f,y,y,2019_Jul_17_1110,2AFC_task,59.9527572305024,
stimuli/rgb_scene000066_render000001.png,stimuli/rgb_scene000066_render000004.png,0,21,21,71,"[0, 1]",right,1,28,21,f,y,y,2019_Jul_17_1110,2AFC_task,59.9527572305024,
stimuli/rgb_scene000047_render000000.png,stimuli/rgb_scene000047_render000005.png,0,22,22,25,"[0, 1]",right,1,28,21,f,y,y,2019_Jul_17_1110,2AFC_task,59.9527572305024,
stimuli/rgb_scene000047_render000001.png,stimuli/rgb_scene000047_render000003.png,0,23,23,28,"[1, 0]",left,1,28,21,f,y,y,2019_Jul_17_1110,2AFC_task,59.9527572305024,
stimuli/rgb_scene000056_render000000.png,stimuli/rgb_scene000056_render000005.png,0,24,24,46,"[0, 1]",right,1,28,21,f,y,y,2019_Jul_17_1110,2AFC_task,59.9527572305024,
stimuli/rgb_scene000160_render000003.png,stimuli/rgb_scene000160_render000006.png,0,25,25,143,"[1, 0]",left,1,28,21,f,y,y,2019_Jul_17_1110,2AFC_task,59.9527572305024,
stimuli/rgb_scene000066_render000002.png,stimuli/rgb_scene000066_render000005.png,0,26,26,76,"[0, 1]",right,1,28,21,f,y,y,2019_Jul_17_1110,2AFC_task,59.9527572305024,
stimuli/rgb_scene000056_render000002.png,stimuli/rgb_scene000056_render000006.png,0,27,27,56,"[0, 1]",right,1,28,21,f,y,y,2019_Jul_17_1110,2AFC_task,59.9527572305024,
stimuli/rgb_scene000066_render000000.png,stimuli/rgb_scene000066_render000004.png,0,28,28,66,"[1, 0]",left,1,28,21,f,y,y,2019_Jul_17_1110,2AFC_task,59.9527572305024,
stimuli/rgb_scene000150_render000001.png,stimuli/rgb_scene000150_render000005.png,0,29,29,114,"[1, 0]",left,1,28,21,f,y,y,2019_Jul_17_1110,2AFC_task,59.9527572305024,
stimuli/rgb_scene000147_render000000.png,stimuli/rgb_scene000147_render000001.png,0,30,30,84,"[0, 1]",right,1,28,21,f,y,y,2019_Jul_17_1110,2AFC_task,59.9527572305024,
stimuli/rgb_scene000165_render000001.png,stimuli/rgb_scene000165_render000004.png,0,31,31,155,"[0, 1]",right,1,28,21,f,y,y,2019_Jul_17_1110,2AFC_task,59.9527572305024,
stimuli/rgb_scene000196_render000000.png,stimuli/rgb_scene000196_render000003.png,0,32,32,191,"[1, 0]",left,1,28,21,f,y,y,2019_Jul_17_1110,2AFC_task,59.9527572305024,
stimuli/rgb_scene000196_render000003.png,stimuli/rgb_scene000196_render000005.png,0,33,33,205,"[0, 1]",right,1,28,21,f,y,y,2019_Jul_17_1110,2AFC_task,59.9527572305024,
stimuli/rgb_scene000147_render000005.png,stimuli/rgb_scene000147_render000006.png,0,34,34,104,"[1, 0]",left,1,28,21,f,y,y,2019_Jul_17_1110,2AFC_task,59.9527572305024,
stimuli/rgb_scene000056_render000002.png,stimuli/rgb_scene000056_render000005.png,0,35,35,55,"[0, 1]",right,1,28,21,f,y,y,2019_Jul_17_1110,2AFC_task,59.9527572305024,
stimuli/rgb_scene000169_render000001.png,stimuli/rgb_scene000169_render000004.png,0,36,36,176,"[1, 0]",right,0,28,21,f,y,y,2019_Jul_17_1110,2AFC_task,59.9527572305024,
stimuli/rgb_scene000196_render000002.png,stimuli/rgb_scene000196_render000004.png,0,37,37,201,"[1, 0]",right,0,28,21,f,y,y,2019_Jul_17_1110,2AFC_task,59.9527572305024,
stimuli/rgb_scene000165_render000004.png,stimuli/rgb_scene000165_render000006.png,0,38,38,166,"[1, 0]",left,1,28,21,f,y,y,2019_Jul_17_1110,2AFC_task,59.9527572305024,
stimuli/rgb_scene000196_render000000.png,stimuli/rgb_scene000196_render000006.png,0,39,39,194,"[1, 0]",left,1,28,21,f,y,y,2019_Jul_17_1110,2AFC_task,59.9527572305024,
stimuli/rgb_scene000056_render000003.png,stimuli/rgb_scene000056_render000006.png,0,40,40,59,"[1, 0]",left,1,28,21,f,y,y,2019_Jul_17_1110,2AFC_task,59.9527572305024,
stimuli/rgb_scene000150_render000002.png,stimuli/rgb_scene000150_render000006.png,0,41,41,119,"[0, 1]",right,1,28,21,f,y,y,2019_Jul_17_1110,2AFC_task,59.9527572305024,
stimuli/rgb_scene000047_render000002.png,stimuli/rgb_scene000047_render000003.png,0,42,42,32,"[0, 1]",right,1,28,21,f,y,y,2019_Jul_17_1110,2AFC_task,59.9527572305024,
stimuli/rgb_scene000165_render000000.png,stimuli/rgb_scene000165_render000001.png,0,43,43,147,"[0, 1]",right,1,28,21,f,y,y,2019_Jul_17_1110,2AFC_task,59.9527572305024,
stimuli/rgb_scene000066_render000004.png,stimuli/rgb_scene000066_render000006.png,0,44,44,82,"[1, 0]",left,1,28,21,f,y,y,2019_Jul_17_1110,2AFC_task,59.9527572305024,
stimuli/rgb_scene000056_render000000.png,stimuli/rgb_scene000056_render000004.png,0,45,45,45,"[1, 0]",left,1,28,21,f,y,y,2019_Jul_17_1110,2AFC_task,59.9527572305024,
stimuli/rgb_scene000196_render000000.png,stimuli/rgb_scene000196_render000004.png,0,46,46,192,"[1, 0]",left,1,28,21,f,y,y,2019_Jul_17_1110,2AFC_task,59.9527572305024,
stimuli/rgb_scene000165_render000001.png,stimuli/rgb_scene000165_render000002.png,0,47,47,153,"[0, 1]",right,1,28,21,f,y,y,2019_Jul_17_1110,2AFC_task,59.9527572305024,
stimuli/rgb_scene000165_render000000.png,stimuli/rgb_scene000165_render000006.png,0,48,48,152,"[0, 1]",right,1,28,21,f,y,y,2019_Jul_17_1110,2AFC_task,59.9527572305024,
stimuli/rgb_scene000056_render000005.png,stimuli/rgb_scene000056_render000006.png,0,49,49,62,"[1, 0]",left,1,28,21,f,y,y,2019_Jul_17_1110,2AFC_task,59.9527572305024,
stimuli/rgb_scene000165_render000005.png,stimuli/rgb_scene000165_render000006.png,0,50,50,167,"[0, 1]",right,1,28,21,f,y,y,2019_Jul_17_1110,2AFC_task,59.9527572305024,
stimuli/rgb_scene000066_render000003.png,stimuli/rgb_scene000066_render000006.png,0,51,51,80,"[1, 0]",left,1,28,21,f,y,y,2019_Jul_17_1110,2AFC_task,59.9527572305024,
stimuli/rgb_scene000042_render000001.png,stimuli/rgb_scene000042_render000002.png,0,52,52,6,"[0, 1]",right,1,28,21,f,y,y,2019_Jul_17_1110,2AFC_task,59.9527572305024,
stimuli/rgb_scene000160_render000001.png,stimuli/rgb_scene000160_render000005.png,0,53,53,135,"[0, 1]",right,1,28,21,f,y,y,2019_Jul_17_1110,2AFC_task,59.9527572305024,
stimuli/rgb_scene000066_render000000.png,stimuli/rgb_scene000066_render000001.png,0,54,54,63,"[1, 0]",left,1,28,21,f,y,y,2019_Jul_17_1110,2AFC_task,59.9527572305024,
stimuli/rgb_scene000047_render000000.png,stimuli/rgb_scene000047_render000002.png,0,55,55,22,"[0, 1]",right,1,28,21,f,y,y,2019_Jul_17_1110,2AFC_task,59.9527572305024,
stimuli/rgb_scene000165_render000002.png,stimuli/rgb_scene000165_render000003.png,0,56,56,158,"[1, 0]",left,1,28,21,f,y,y,2019_Jul_17_1110,2AFC_task,59.9527572305024,
stimuli/rgb_scene000196_render000000.png,stimuli/rgb_scene000196_render000005.png,0,57,57,193,"[0, 1]",right,1,28,21,f,y,y,2019_Jul_17_1110,2AFC_task,59.9527572305024,
stimuli/rgb_scene000042_render000003.png,stimuli/rgb_scene000042_render000006.png,0,58,58,17,"[1, 0]",left,1,28,21,f,y,y,2019_Jul_17_1110,2AFC_task,59.9527572305024,
stimuli/rgb_scene000147_render000002.png,stimuli/rgb_scene000147_render000006.png,0,59,59,98,"[0, 1]",right,1,28,21,f,y,y,2019_Jul_17_1110,2AFC_task,59.9527572305024,
stimuli/rgb_scene000169_render000003.png,stimuli/rgb_scene000169_render000005.png,0,60,60,184,"[0, 1]",right,1,28,21,f,y,y,2019_Jul_17_1110,2AFC_task,59.9527572305024,
stimuli/rgb_scene000066_render000000.png,stimuli/rgb_scene000066_render000002.png,0,61,61,64,"[0, 1]",right,1,28,21,f,y,y,2019_Jul_17_1110,2AFC_task,59.9527572305024,
stimuli/rgb_scene000165_render000003.png,stimuli/rgb_scene000165_render000006.png,0,62,62,164,"[0, 1]",right,1,28,21,f,y,y,2019_Jul_17_1110,2AFC_task,59.9527572305024,
stimuli/rgb_scene000056_render000001.png,stimuli/rgb_scene000056_render000003.png,0,63,63,49,"[1, 0]",left,1,28,21,f,y,y,2019_Jul_17_1110,2AFC_task,59.9527572305024,
stimuli/rgb_scene000056_render000003.png,stimuli/rgb_scene000056_render000005.png,0,64,64,58,"[0, 1]",right,1,28,21,f,y,y,2019_Jul_17_1110,2AFC_task,59.9527572305024,
stimuli/rgb_scene000160_render000003.png,stimuli/rgb_scene000160_render000004.png,0,65,65,141,"[0, 1]",right,1,28,21,f,y,y,2019_Jul_17_1110,2AFC_task,59.9527572305024,
stimuli/rgb_scene000150_render000000.png,stimuli/rgb_scene000150_render000006.png,0,66,66,110,"[1, 0]",left,1,28,21,f,y,y,2019_Jul_17_1110,2AFC_task,59.9527572305024,
stimuli/rgb_scene000196_render000002.png,stimuli/rgb_scene000196_render000005.png,0,67,67,202,"[0, 1]",right,1,28,21,f,y,y,2019_Jul_17_1110,2AFC_task,59.9527572305024,
stimuli/rgb_scene000042_render000001.png,stimuli/rgb_scene000042_render000004.png,0,68,68,8,"[1, 0]",left,1,28,21,f,y,y,2019_Jul_17_1110,2AFC_task,59.9527572305024,
stimuli/rgb_scene000147_render000004.png,stimuli/rgb_scene000147_render000006.png,0,69,69,103,"[1, 0]",left,1,28,21,f,y,y,2019_Jul_17_1110,2AFC_task,59.9527572305024,
stimuli/rgb_scene000147_render000000.png,stimuli/rgb_scene000147_render000002.png,0,70,70,85,"[1, 0]",left,1,28,21,f,y,y,2019_Jul_17_1110,2AFC_task,59.9527572305024,
stimuli/rgb_scene000150_render000002.png,stimuli/rgb_scene000150_render000003.png,0,71,71,116,"[1, 0]",left,1,28,21,f,y,y,2019_Jul_17_1110,2AFC_task,59.9527572305024,
stimuli/rgb_scene000196_render000001.png,stimuli/rgb_scene000196_render000002.png,0,72,72,195,"[1, 0]",left,1,28,21,f,y,y,2019_Jul_17_1110,2AFC_task,59.9527572305024,
stimuli/rgb_scene000147_render000001.png,stimuli/rgb_scene000147_render000004.png,0,73,73,92,"[1, 0]",left,1,28,21,f,y,y,2019_Jul_17_1110,2AFC_task,59.9527572305024,
stimuli/rgb_scene000160_render000002.png,stimuli/rgb_scene000160_render000003.png,0,74,74,137,"[1, 0]",left,1,28,21,f,y,y,2019_Jul_17_1110,2AFC_task,59.9527572305024,
stimuli/rgb_scene000042_render000000.png,stimuli/rgb_scene000042_render000006.png,0,75,75,5,"[0, 1]",right,1,28,21,f,y,y,2019_Jul_17_1110,2AFC_task,59.9527572305024,
stimuli/rgb_scene000196_render000000.png,stimuli/rgb_scene000196_render000002.png,0,76,76,190,"[1, 0]",left,1,28,21,f,y,y,2019_Jul_17_1110,2AFC_task,59.9527572305024,
stimuli/rgb_scene000150_render000000.png,stimuli/rgb_scene000150_render000005.png,0,77,77,109,"[1, 0]",left,1,28,21,f,y,y,2019_Jul_17_1110,2AFC_task,59.9527572305024,
stimuli/rgb_scene000047_render000005.png,stimuli/rgb_scene000047_render000006.png,0,78,78,41,"[0, 1]",right,1,28,21,f,y,y,2019_Jul_17_1110,2AFC_task,59.9527572305024,
stimuli/rgb_scene000150_render000003.png,stimuli/rgb_scene000150_render000005.png,0,79,79,121,"[1, 0]",left,1,28,21,f,y,y,2019_Jul_17_1110,2AFC_task,59.9527572305024,
stimuli/rgb_scene000169_render000002.png,stimuli/rgb_scene000169_render000005.png,0,80,80,181,"[0, 1]",right,1,28,21,f,y,y,2019_Jul_17_1110,2AFC_task,59.9527572305024,
stimuli/rgb_scene000147_render000000.png,stimuli/rgb_scene000147_render000003.png,0,81,81,86,"[0, 1]",right,1,28,21,f,y,y,2019_Jul_17_1110,2AFC_task,59.9527572305024,
stimuli/rgb_scene000169_render000000.png,stimuli/rgb_scene000169_render000005.png,0,82,82,172,"[0, 1]",right,1,28,21,f,y,y,2019_Jul_17_1110,2AFC_task,59.9527572305024,
stimuli/rgb_scene000147_render000001.png,stimuli/rgb_scene000147_render000006.png,0,83,83,94,"[0, 1]",right,1,28,21,f,y,y,2019_Jul_17_1110,2AFC_task,59.9527572305024,
stimuli/rgb_scene000165_render000001.png,stimuli/rgb_scene000165_render000005.png,0,84,84,156,"[0, 1]",right,1,28,21,f,y,y,2019_Jul_17_1110,2AFC_task,59.9527572305024,
stimuli/rgb_scene000056_render000000.png,stimuli/rgb_scene000056_render000002.png,0,85,85,43,"[0, 1]",right,1,28,21,f,y,y,2019_Jul_17_1110,2AFC_task,59.9527572305024,
stimuli/rgb_scene000169_render000001.png,stimuli/rgb_scene000169_render000002.png,0,86,86,174,"[0, 1]",right,1,28,21,f,y,y,2019_Jul_17_1110,2AFC_task,59.9527572305024,
stimuli/rgb_scene000160_render000004.png,stimuli/rgb_scene000160_render000005.png,0,87,87,144,"[0, 1]",right,1,28,21,f,y,y,2019_Jul_17_1110,2AFC_task,59.9527572305024,
stimuli/rgb_scene000160_render000001.png,stimuli/rgb_scene000160_render000004.png,0,88,88,134,"[0, 1]",right,1,28,21,f,y,y,2019_Jul_17_1110,2AFC_task,59.9527572305024,
stimuli/rgb_scene000160_render000001.png,stimuli/rgb_scene000160_render000006.png,0,89,89,136,"[0, 1]",right,1,28,21,f,y,y,2019_Jul_17_1110,2AFC_task,59.9527572305024,
stimuli/rgb_scene000150_render000004.png,stimuli/rgb_scene000150_render000005.png,0,90,90,123,"[0, 1]",left,0,28,21,f,y,y,2019_Jul_17_1110,2AFC_task,59.9527572305024,
stimuli/rgb_scene000147_render000000.png,stimuli/rgb_scene000147_render000004.png,0,91,91,87,"[0, 1]",right,1,28,21,f,y,y,2019_Jul_17_1110,2AFC_task,59.9527572305024,
stimuli/rgb_scene000165_render000003.png,stimuli/rgb_scene000165_render000005.png,0,92,92,163,"[1, 0]",left,1,28,21,f,y,y,2019_Jul_17_1110,2AFC_task,59.9527572305024,
stimuli/rgb_scene000147_render000003.png,stimuli/rgb_scene000147_render000006.png,0,93,93,101,"[0, 1]",right,1,28,21,f,y,y,2019_Jul_17_1110,2AFC_task,59.9527572305024,
stimuli/rgb_scene000047_render000001.png,stimuli/rgb_scene000047_render000006.png,0,94,94,31,"[0, 1]",right,1,28,21,f,y,y,2019_Jul_17_1110,2AFC_task,59.9527572305024,
stimuli/rgb_scene000066_render000002.png,stimuli/rgb_scene000066_render000006.png,0,95,95,77,"[1, 0]",left,1,28,21,f,y,y,2019_Jul_17_1110,2AFC_task,59.9527572305024,
stimuli/rgb_scene000042_render000000.png,stimuli/rgb_scene000042_render000004.png,0,96,96,3,"[0, 1]",right,1,28,21,f,y,y,2019_Jul_17_1110,2AFC_task,59.9527572305024,
stimuli/rgb_scene000147_render000000.png,stimuli/rgb_scene000147_render000005.png,0,97,97,88,"[0, 1]",right,1,28,21,f,y,y,2019_Jul_17_1110,2AFC_task,59.9527572305024,
stimuli/rgb_scene000047_render000003.png,stimuli/rgb_scene000047_render000005.png,0,98,98,37,"[1, 0]",left,1,28,21,f,y,y,2019_Jul_17_1110,2AFC_task,59.9527572305024,
stimuli/rgb_scene000160_render000000.png,stimuli/rgb_scene000160_render000003.png,0,99,99,128,"[1, 0]",left,1,28,21,f,y,y,2019_Jul_17_1110,2AFC_task,59.9527572305024,
stimuli/rgb_scene000066_render000002.png,stimuli/rgb_scene000066_render000004.png,0,100,100,75,"[0, 1]",right,1,28,21,f,y,y,2019_Jul_17_1110,2AFC_task,59.9527572305024,
stimuli/rgb_scene000160_render000004.png,stimuli/rgb_scene000160_render000006.png,0,101,101,145,"[1, 0]",left,1,28,21,f,y,y,2019_Jul_17_1110,2AFC_task,59.9527572305024,
stimuli/rgb_scene000042_render000002.png,stimuli/rgb_scene000042_render000004.png,0,102,102,12,"[1, 0]",left,1,28,21,f,y,y,2019_Jul_17_1110,2AFC_task,59.9527572305024,
stimuli/rgb_scene000047_render000004.png,stimuli/rgb_scene000047_render000006.png,0,103,103,40,"[0, 1]",right,1,28,21,f,y,y,2019_Jul_17_1110,2AFC_task,59.9527572305024,
stimuli/rgb_scene000066_render000001.png,stimuli/rgb_scene000066_render000002.png,0,104,104,69,"[0, 1]",right,1,28,21,f,y,y,2019_Jul_17_1110,2AFC_task,59.9527572305024,
stimuli/rgb_scene000066_render000003.png,stimuli/rgb_scene000066_render000004.png,0,105,105,78,"[1, 0]",left,1,28,21,f,y,y,2019_Jul_17_1110,2AFC_task,59.9527572305024,
stimuli/rgb_scene000042_render000000.png,stimuli/rgb_scene000042_render000001.png,0,106,106,0,"[0, 1]",right,1,28,21,f,y,y,2019_Jul_17_1110,2AFC_task,59.9527572305024,
stimuli/rgb_scene000160_render000000.png,stimuli/rgb_scene000160_render000005.png,0,107,107,130,"[1, 0]",left,1,28,21,f,y,y,2019_Jul_17_1110,2AFC_task,59.9527572305024,
stimuli/rgb_scene000147_render000004.png,stimuli/rgb_scene000147_render000005.png,0,108,108,102,"[1, 0]",left,1,28,21,f,y,y,2019_Jul_17_1110,2AFC_task,59.9527572305024,
stimuli/rgb_scene000056_render000001.png,stimuli/rgb_scene000056_render000002.png,0,109,109,48,"[0, 1]",right,1,28,21,f,y,y,2019_Jul_17_1110,2AFC_task,59.9527572305024,
stimuli/rgb_scene000196_render000001.png,stimuli/rgb_scene000196_render000005.png,0,110,110,198,"[1, 0]",left,1,28,21,f,y,y,2019_Jul_17_1110,2AFC_task,59.9527572305024,
stimuli/rgb_scene000147_render000003.png,stimuli/rgb_scene000147_render000005.png,0,111,111,100,"[0, 1]",right,1,28,21,f,y,y,2019_Jul_17_1110,2AFC_task,59.9527572305024,
stimuli/rgb_scene000150_render000002.png,stimuli/rgb_scene000150_render000005.png,0,112,112,118,"[0, 1]",right,1,28,21,f,y,y,2019_Jul_17_1110,2AFC_task,59.9527572305024,
stimuli/rgb_scene000196_render000003.png,stimuli/rgb_scene000196_render000006.png,0,113,113,206,"[0, 1]",left,0,28,21,f,y,y,2019_Jul_17_1110,2AFC_task,59.9527572305024,
stimuli/rgb_scene000066_render000000.png,stimuli/rgb_scene000066_render000003.png,0,114,114,65,"[0, 1]",right,1,28,21,f,y,y,2019_Jul_17_1110,2AFC_task,59.9527572305024,
stimuli/rgb_scene000169_render000002.png,stimuli/rgb_scene000169_render000006.png,0,115,115,182,"[1, 0]",left,1,28,21,f,y,y,2019_Jul_17_1110,2AFC_task,59.9527572305024,
stimuli/rgb_scene000160_render000001.png,stimuli/rgb_scene000160_render000002.png,0,116,116,132,"[1, 0]",left,1,28,21,f,y,y,2019_Jul_17_1110,2AFC_task,59.9527572305024,
stimuli/rgb_scene000165_render000002.png,stimuli/rgb_scene000165_render000006.png,0,117,117,161,"[1, 0]",left,1,28,21,f,y,y,2019_Jul_17_1110,2AFC_task,59.9527572305024,
stimuli/rgb_scene000169_render000005.png,stimuli/rgb_scene000169_render000006.png,0,118,118,188,"[0, 1]",right,1,28,21,f,y,y,2019_Jul_17_1110,2AFC_task,59.9527572305024,
stimuli/rgb_scene000056_render000004.png,stimuli/rgb_scene000056_render000005.png,0,119,119,60,"[1, 0]",left,1,28,21,f,y,y,2019_Jul_17_1110,2AFC_task,59.9527572305024,
stimuli/rgb_scene000160_render000000.png,stimuli/rgb_scene000160_render000001.png,0,120,120,126,"[1, 0]",left,1,28,21,f,y,y,2019_Jul_17_1110,2AFC_task,59.9527572305024,
stimuli/rgb_scene000165_render000003.png,stimuli/rgb_scene000165_render000004.png,0,121,121,162,"[0, 1]",right,1,28,21,f,y,y,2019_Jul_17_1110,2AFC_task,59.9527572305024,
stimuli/rgb_scene000165_render000000.png,stimuli/rgb_scene000165_render000005.png,0,122,122,151,"[0, 1]",right,1,28,21,f,y,y,2019_Jul_17_1110,2AFC_task,59.9527572305024,
stimuli/rgb_scene000169_render000004.png,stimuli/rgb_scene000169_render000005.png,0,123,123,186,"[1, 0]",left,1,28,21,f,y,y,2019_Jul_17_1110,2AFC_task,59.9527572305024,
stimuli/rgb_scene000169_render000000.png,stimuli/rgb_scene000169_render000002.png,0,124,124,169,"[1, 0]",left,1,28,21,f,y,y,2019_Jul_17_1110,2AFC_task,59.9527572305024,
stimuli/rgb_scene000169_render000000.png,stimuli/rgb_scene000169_render000006.png,0,125,125,173,"[0, 1]",right,1,28,21,f,y,y,2019_Jul_17_1110,2AFC_task,59.9527572305024,
stimuli/rgb_scene000160_render000001.png,stimuli/rgb_scene000160_render000003.png,0,126,126,133,"[1, 0]",left,1,28,21,f,y,y,2019_Jul_17_1110,2AFC_task,59.9527572305024,
stimuli/rgb_scene000169_render000001.png,stimuli/rgb_scene000169_render000005.png,0,127,127,177,"[1, 0]",left,1,28,21,f,y,y,2019_Jul_17_1110,2AFC_task,59.9527572305024,
stimuli/rgb_scene000160_render000002.png,stimuli/rgb_scene000160_render000006.png,0,128,128,140,"[0, 1]",right,1,28,21,f,y,y,2019_Jul_17_1110,2AFC_task,59.9527572305024,
stimuli/rgb_scene000165_render000001.png,stimuli/rgb_scene000165_render000003.png,0,129,129,154,"[0, 1]",right,1,28,21,f,y,y,2019_Jul_17_1110,2AFC_task,59.9527572305024,
stimuli/rgb_scene000169_render000004.png,stimuli/rgb_scene000169_render000006.png,0,130,130,187,"[0, 1]",right,1,28,21,f,y,y,2019_Jul_17_1110,2AFC_task,59.9527572305024,
stimuli/rgb_scene000160_render000000.png,stimuli/rgb_scene000160_render000004.png,0,131,131,129,"[1, 0]",left,1,28,21,f,y,y,2019_Jul_17_1110,2AFC_task,59.9527572305024,
stimuli/rgb_scene000150_render000000.png,stimuli/rgb_scene000150_render000001.png,0,132,132,105,"[0, 1]",right,1,28,21,f,y,y,2019_Jul_17_1110,2AFC_task,59.9527572305024,
stimuli/rgb_scene000042_render000002.png,stimuli/rgb_scene000042_render000006.png,0,133,133,14,"[0, 1]",right,1,28,21,f,y,y,2019_Jul_17_1110,2AFC_task,59.9527572305024,
stimuli/rgb_scene000150_render000004.png,stimuli/rgb_scene000150_render000006.png,0,134,134,124,"[1, 0]",left,1,28,21,f,y,y,2019_Jul_17_1110,2AFC_task,59.9527572305024,
stimuli/rgb_scene000066_render000001.png,stimuli/rgb_scene000066_render000006.png,0,135,135,73,"[1, 0]",left,1,28,21,f,y,y,2019_Jul_17_1110,2AFC_task,59.9527572305024,
stimuli/rgb_scene000047_render000000.png,stimuli/rgb_scene000047_render000001.png,0,136,136,21,"[1, 0]",left,1,28,21,f,y,y,2019_Jul_17_1110,2AFC_task,59.9527572305024,
stimuli/rgb_scene000147_render000002.png,stimuli/rgb_scene000147_render000003.png,0,137,137,95,"[1, 0]",left,1,28,21,f,y,y,2019_Jul_17_1110,2AFC_task,59.9527572305024,
stimuli/rgb_scene000147_render000002.png,stimuli/rgb_scene000147_render000005.png,0,138,138,97,"[1, 0]",left,1,28,21,f,y,y,2019_Jul_17_1110,2AFC_task,59.9527572305024,
stimuli/rgb_scene000169_render000003.png,stimuli/rgb_scene000169_render000004.png,0,139,139,183,"[0, 1]",left,0,28,21,f,y,y,2019_Jul_17_1110,2AFC_task,59.9527572305024,
stimuli/rgb_scene000042_render000002.png,stimuli/rgb_scene000042_render000003.png,0,140,140,11,"[1, 0]",left,1,28,21,f,y,y,2019_Jul_17_1110,2AFC_task,59.9527572305024,
stimuli/rgb_scene000042_render000004.png,stimuli/rgb_scene000042_render000006.png,0,141,141,19,"[0, 1]",right,1,28,21,f,y,y,2019_Jul_17_1110,2AFC_task,59.9527572305024,
stimuli/rgb_scene000165_render000000.png,stimuli/rgb_scene000165_render000002.png,0,142,142,148,"[0, 1]",right,1,28,21,f,y,y,2019_Jul_17_1110,2AFC_task,59.9527572305024,
stimuli/rgb_scene000169_render000000.png,stimuli/rgb_scene000169_render000001.png,0,143,143,168,"[1, 0]",right,0,28,21,f,y,y,2019_Jul_17_1110,2AFC_task,59.9527572305024,
stimuli/rgb_scene000150_render000001.png,stimuli/rgb_scene000150_render000003.png,0,144,144,112,"[1, 0]",left,1,28,21,f,y,y,2019_Jul_17_1110,2AFC_task,59.9527572305024,
stimuli/rgb_scene000196_render000000.png,stimuli/rgb_scene000196_render000001.png,0,145,145,189,"[1, 0]",left,1,28,21,f,y,y,2019_Jul_17_1110,2AFC_task,59.9527572305024,
stimuli/rgb_scene000160_render000002.png,stimuli/rgb_scene000160_render000004.png,0,146,146,138,"[1, 0]",left,1,28,21,f,y,y,2019_Jul_17_1110,2AFC_task,59.9527572305024,
stimuli/rgb_scene000047_render000002.png,stimuli/rgb_scene000047_render000006.png,0,147,147,35,"[0, 1]",right,1,28,21,f,y,y,2019_Jul_17_1110,2AFC_task,59.9527572305024,
stimuli/rgb_scene000160_render000000.png,stimuli/rgb_scene000160_render000002.png,0,148,148,127,"[1, 0]",left,1,28,21,f,y,y,2019_Jul_17_1110,2AFC_task,59.9527572305024,
stimuli/rgb_scene000056_render000001.png,stimuli/rgb_scene000056_render000006.png,0,149,149,52,"[1, 0]",left,1,28,21,f,y,y,2019_Jul_17_1110,2AFC_task,59.9527572305024,
stimuli/rgb_scene000047_render000004.png,stimuli/rgb_scene000047_render000005.png,0,150,150,39,"[1, 0]",left,1,28,21,f,y,y,2019_Jul_17_1110,2AFC_task,59.9527572305024,
stimuli/rgb_scene000042_render000002.png,stimuli/rgb_scene000042_render000005.png,0,151,151,13,"[0, 1]",right,1,28,21,f,y,y,2019_Jul_17_1110,2AFC_task,59.9527572305024,
stimuli/rgb_scene000150_render000000.png,stimuli/rgb_scene000150_render000002.png,0,152,152,106,"[1, 0]",left,1,28,21,f,y,y,2019_Jul_17_1110,2AFC_task,59.9527572305024,
stimuli/rgb_scene000196_render000002.png,stimuli/rgb_scene000196_render000006.png,0,153,153,203,"[0, 1]",right,1,28,21,f,y,y,2019_Jul_17_1110,2AFC_task,59.9527572305024,
stimuli/rgb_scene000165_render000004.png,stimuli/rgb_scene000165_render000005.png,0,154,154,165,"[0, 1]",right,1,28,21,f,y,y,2019_Jul_17_1110,2AFC_task,59.9527572305024,
stimuli/rgb_scene000047_render000001.png,stimuli/rgb_scene000047_render000002.png,0,155,155,27,"[0, 1]",right,1,28,21,f,y,y,2019_Jul_17_1110,2AFC_task,59.9527572305024,
stimuli/rgb_scene000056_render000002.png,stimuli/rgb_scene000056_render000003.png,0,156,156,53,"[1, 0]",left,1,28,21,f,y,y,2019_Jul_17_1110,2AFC_task,59.9527572305024,
stimuli/rgb_scene000047_render000001.png,stimuli/rgb_scene000047_render000005.png,0,157,157,30,"[1, 0]",left,1,28,21,f,y,y,2019_Jul_17_1110,2AFC_task,59.9527572305024,
stimuli/rgb_scene000169_render000002.png,stimuli/rgb_scene000169_render000003.png,0,158,158,179,"[0, 1]",right,1,28,21,f,y,y,2019_Jul_17_1110,2AFC_task,59.9527572305024,
stimuli/rgb_scene000165_render000001.png,stimuli/rgb_scene000165_render000006.png,0,159,159,157,"[0, 1]",right,1,28,21,f,y,y,2019_Jul_17_1110,2AFC_task,59.9527572305024,
stimuli/rgb_scene000047_render000001.png,stimuli/rgb_scene000047_render000004.png,0,160,160,29,"[0, 1]",right,1,28,21,f,y,y,2019_Jul_17_1110,2AFC_task,59.9527572305024,
stimuli/rgb_scene000047_render000000.png,stimuli/rgb_scene000047_render000003.png,0,161,161,23,"[0, 1]",right,1,28,21,f,y,y,2019_Jul_17_1110,2AFC_task,59.9527572305024,
stimuli/rgb_scene000066_render000000.png,stimuli/rgb_scene000066_render000006.png,0,162,162,68,"[1, 0]",left,1,28,21,f,y,y,2019_Jul_17_1110,2AFC_task,59.9527572305024,
stimuli/rgb_scene000042_render000000.png,stimuli/rgb_scene000042_render000002.png,0,163,163,1,"[0, 1]",right,1,28,21,f,y,y,2019_Jul_17_1110,2AFC_task,59.9527572305024,
stimuli/rgb_scene000150_render000001.png,stimuli/rgb_scene000150_render000006.png,0,164,164,115,"[1, 0]",left,1,28,21,f,y,y,2019_Jul_17_1110,2AFC_task,59.9527572305024,
stimuli/rgb_scene000056_render000002.png,stimuli/rgb_scene000056_render000004.png,0,165,165,54,"[1, 0]",left,1,28,21,f,y,y,2019_Jul_17_1110,2AFC_task,59.9527572305024,
stimuli/rgb_scene000169_render000001.png,stimuli/rgb_scene000169_render000003.png,0,166,166,175,"[1, 0]",left,1,28,21,f,y,y,2019_Jul_17_1110,2AFC_task,59.9527572305024,
stimuli/rgb_scene000042_render000001.png,stimuli/rgb_scene000042_render000005.png,0,167,167,9,"[1, 0]",left,1,28,21,f,y,y,2019_Jul_17_1110,2AFC_task,59.9527572305024,
stimuli/rgb_scene000196_render000003.png,stimuli/rgb_scene000196_render000004.png,0,168,168,204,"[0, 1]",left,0,28,21,f,y,y,2019_Jul_17_1110,2AFC_task,59.9527572305024,
stimuli/rgb_scene000147_render000000.png,stimuli/rgb_scene000147_render000006.png,0,169,169,89,"[0, 1]",right,1,28,21,f,y,y,2019_Jul_17_1110,2AFC_task,59.9527572305024,
stimuli/rgb_scene000150_render000005.png,stimuli/rgb_scene000150_render000006.png,0,170,170,125,"[1, 0]",right,0,28,21,f,y,y,2019_Jul_17_1110,2AFC_task,59.9527572305024,
stimuli/rgb_scene000047_render000002.png,stimuli/rgb_scene000047_render000005.png,0,171,171,34,"[0, 1]",right,1,28,21,f,y,y,2019_Jul_17_1110,2AFC_task,59.9527572305024,
stimuli/rgb_scene000150_render000000.png,stimuli/rgb_scene000150_render000004.png,0,172,172,108,"[0, 1]",right,1,28,21,f,y,y,2019_Jul_17_1110,2AFC_task,59.9527572305024,
stimuli/rgb_scene000196_render000001.png,stimuli/rgb_scene000196_render000006.png,0,173,173,199,"[1, 0]",left,1,28,21,f,y,y,2019_Jul_17_1110,2AFC_task,59.9527572305024,
stimuli/rgb_scene000042_render000003.png,stimuli/rgb_scene000042_render000005.png,0,174,174,16,"[0, 1]",right,1,28,21,f,y,y,2019_Jul_17_1110,2AFC_task,59.9527572305024,
stimuli/rgb_scene000150_render000001.png,stimuli/rgb_scene000150_render000002.png,0,175,175,111,"[0, 1]",right,1,28,21,f,y,y,2019_Jul_17_1110,2AFC_task,59.9527572305024,
stimuli/rgb_scene000042_render000000.png,stimuli/rgb_scene000042_render000003.png,0,176,176,2,"[1, 0]",left,1,28,21,f,y,y,2019_Jul_17_1110,2AFC_task,59.9527572305024,
stimuli/rgb_scene000042_render000005.png,stimuli/rgb_scene000042_render000006.png,0,177,177,20,"[1, 0]",left,1,28,21,f,y,y,2019_Jul_17_1110,2AFC_task,59.9527572305024,
stimuli/rgb_scene000169_render000000.png,stimuli/rgb_scene000169_render000003.png,0,178,178,170,"[1, 0]",left,1,28,21,f,y,y,2019_Jul_17_1110,2AFC_task,59.9527572305024,
stimuli/rgb_scene000056_render000000.png,stimuli/rgb_scene000056_render000001.png,0,179,179,42,"[0, 1]",right,1,28,21,f,y,y,2019_Jul_17_1110,2AFC_task,59.9527572305024,
stimuli/rgb_scene000147_render000001.png,stimuli/rgb_scene000147_render000003.png,0,180,180,91,"[0, 1]",right,1,28,21,f,y,y,2019_Jul_17_1110,2AFC_task,59.9527572305024,
stimuli/rgb_scene000056_render000001.png,stimuli/rgb_scene000056_render000004.png,0,181,181,50,"[0, 1]",right,1,28,21,f,y,y,2019_Jul_17_1110,2AFC_task,59.9527572305024,
stimuli/rgb_scene000056_render000004.png,stimuli/rgb_scene000056_render000006.png,0,182,182,61,"[1, 0]",left,1,28,21,f,y,y,2019_Jul_17_1110,2AFC_task,59.9527572305024,
stimuli/rgb_scene000196_render000004.png,stimuli/rgb_scene000196_render000006.png,0,183,183,208,"[0, 1]",left,0,28,21,f,y,y,2019_Jul_17_1110,2AFC_task,59.9527572305024,
stimuli/rgb_scene000056_render000001.png,stimuli/rgb_scene000056_render000005.png,0,184,184,51,"[1, 0]",left,1,28,21,f,y,y,2019_Jul_17_1110,2AFC_task,59.9527572305024,
stimuli/rgb_scene000165_render000002.png,stimuli/rgb_scene000165_render000005.png,0,185,185,160,"[0, 1]",right,1,28,21,f,y,y,2019_Jul_17_1110,2AFC_task,59.9527572305024,
stimuli/rgb_scene000169_render000000.png,stimuli/rgb_scene000169_render000004.png,0,186,186,171,"[1, 0]",left,1,28,21,f,y,y,2019_Jul_17_1110,2AFC_task,59.9527572305024,
stimuli/rgb_scene000042_render000000.png,stimuli/rgb_scene000042_render000005.png,0,187,187,4,"[0, 1]",right,1,28,21,f,y,y,2019_Jul_17_1110,2AFC_task,59.9527572305024,
stimuli/rgb_scene000066_render000001.png,stimuli/rgb_scene000066_render000005.png,0,188,188,72,"[0, 1]",right,1,28,21,f,y,y,2019_Jul_17_1110,2AFC_task,59.9527572305024,
stimuli/rgb_scene000165_render000002.png,stimuli/rgb_scene000165_render000004.png,0,189,189,159,"[0, 1]",right,1,28,21,f,y,y,2019_Jul_17_1110,2AFC_task,59.9527572305024,
stimuli/rgb_scene000150_render000001.png,stimuli/rgb_scene000150_render000004.png,0,190,190,113,"[0, 1]",right,1,28,21,f,y,y,2019_Jul_17_1110,2AFC_task,59.9527572305024,
stimuli/rgb_scene000150_render000000.png,stimuli/rgb_scene000150_render000003.png,0,191,191,107,"[0, 1]",right,1,28,21,f,y,y,2019_Jul_17_1110,2AFC_task,59.9527572305024,
stimuli/rgb_scene000196_render000004.png,stimuli/rgb_scene000196_render000005.png,0,192,192,207,"[1, 0]",right,0,28,21,f,y,y,2019_Jul_17_1110,2AFC_task,59.9527572305024,
stimuli/rgb_scene000147_render000001.png,stimuli/rgb_scene000147_render000002.png,0,193,193,90,"[1, 0]",left,1,28,21,f,y,y,2019_Jul_17_1110,2AFC_task,59.9527572305024,
stimuli/rgb_scene000042_render000003.png,stimuli/rgb_scene000042_render000004.png,0,194,194,15,"[0, 1]",right,1,28,21,f,y,y,2019_Jul_17_1110,2AFC_task,59.9527572305024,
stimuli/rgb_scene000066_render000004.png,stimuli/rgb_scene000066_render000005.png,0,195,195,81,"[0, 1]",right,1,28,21,f,y,y,2019_Jul_17_1110,2AFC_task,59.9527572305024,
stimuli/rgb_scene000147_render000001.png,stimuli/rgb_scene000147_render000005.png,0,196,196,93,"[0, 1]",right,1,28,21,f,y,y,2019_Jul_17_1110,2AFC_task,59.9527572305024,
stimuli/rgb_scene000047_render000003.png,stimuli/rgb_scene000047_render000006.png,0,197,197,38,"[0, 1]",right,1,28,21,f,y,y,2019_Jul_17_1110,2AFC_task,59.9527572305024,
stimuli/rgb_scene000047_render000003.png,stimuli/rgb_scene000047_render000004.png,0,198,198,36,"[0, 1]",right,1,28,21,f,y,y,2019_Jul_17_1110,2AFC_task,59.9527572305024,
stimuli/rgb_scene000165_render000000.png,stimuli/rgb_scene000165_render000003.png,0,199,199,149,"[1, 0]",left,1,28,21,f,y,y,2019_Jul_17_1110,2AFC_task,59.9527572305024,
stimuli/rgb_scene000160_render000002.png,stimuli/rgb_scene000160_render000005.png,0,200,200,139,"[0, 1]",right,1,28,21,f,y,y,2019_Jul_17_1110,2AFC_task,59.9527572305024,
stimuli/rgb_scene000150_render000002.png,stimuli/rgb_scene000150_render000004.png,0,201,201,117,"[1, 0]",left,1,28,21,f,y,y,2019_Jul_17_1110,2AFC_task,59.9527572305024,
stimuli/rgb_scene000047_render000000.png,stimuli/rgb_scene000047_render000006.png,0,202,202,26,"[0, 1]",right,1,28,21,f,y,y,2019_Jul_17_1110,2AFC_task,59.9527572305024,
stimuli/rgb_scene000150_render000003.png,stimuli/rgb_scene000150_render000004.png,0,203,203,120,"[1, 0]",left,1,28,21,f,y,y,2019_Jul_17_1110,2AFC_task,59.9527572305024,
stimuli/rgb_scene000196_render000001.png,stimuli/rgb_scene000196_render000003.png,0,204,204,196,"[1, 0]",left,1,28,21,f,y,y,2019_Jul_17_1110,2AFC_task,59.9527572305024,
stimuli/rgb_scene000169_render000001.png,stimuli/rgb_scene000169_render000006.png,0,205,205,178,"[0, 1]",right,1,28,21,f,y,y,2019_Jul_17_1110,2AFC_task,59.9527572305024,
stimuli/rgb_scene000165_render000000.png,stimuli/rgb_scene000165_render000004.png,0,206,206,150,"[1, 0]",left,1,28,21,f,y,y,2019_Jul_17_1110,2AFC_task,59.9527572305024,
stimuli/rgb_scene000056_render000000.png,stimuli/rgb_scene000056_render000006.png,0,207,207,47,"[1, 0]",left,1,28,21,f,y,y,2019_Jul_17_1110,2AFC_task,59.9527572305024,
stimuli/rgb_scene000066_render000002.png,stimuli/rgb_scene000066_render000003.png,0,208,208,74,"[1, 0]",left,1,28,21,f,y,y,2019_Jul_17_1110,2AFC_task,59.9527572305024,
stimuli/rgb_scene000160_render000003.png,stimuli/rgb_scene000160_render000005.png,0,209,209,142,"[1, 0]",left,1,28,21,f,y,y,2019_Jul_17_1110,2AFC_task,59.9527572305024,
stimuli/rgb_scene000169_render000002.png,stimuli/rgb_scene000169_render000006.png,1,0,210,182,"[0, 1]",right,1,28,21,f,y,y,2019_Jul_17_1110,2AFC_task,59.9527572305024,
stimuli/rgb_scene000196_render000000.png,stimuli/rgb_scene000196_render000003.png,1,1,211,191,"[0, 1]",right,1,28,21,f,y,y,2019_Jul_17_1110,2AFC_task,59.9527572305024,
stimuli/rgb_scene000160_render000005.png,stimuli/rgb_scene000160_render000006.png,1,2,212,146,"[1, 0]",left,1,28,21,f,y,y,2019_Jul_17_1110,2AFC_task,59.9527572305024,
stimuli/rgb_scene000047_render000002.png,stimuli/rgb_scene000047_render000006.png,1,3,213,35,"[0, 1]",right,1,28,21,f,y,y,2019_Jul_17_1110,2AFC_task,59.9527572305024,
stimuli/rgb_scene000042_render000002.png,stimuli/rgb_scene000042_render000005.png,1,4,214,13,"[0, 1]",right,1,28,21,f,y,y,2019_Jul_17_1110,2AFC_task,59.9527572305024,
stimuli/rgb_scene000196_render000001.png,stimuli/rgb_scene000196_render000003.png,1,5,215,196,"[0, 1]",right,1,28,21,f,y,y,2019_Jul_17_1110,2AFC_task,59.9527572305024,
stimuli/rgb_scene000042_render000004.png,stimuli/rgb_scene000042_render000005.png,1,6,216,18,"[1, 0]",left,1,28,21,f,y,y,2019_Jul_17_1110,2AFC_task,59.9527572305024,
stimuli/rgb_scene000066_render000003.png,stimuli/rgb_scene000066_render000004.png,1,7,217,78,"[0, 1]",right,1,28,21,f,y,y,2019_Jul_17_1110,2AFC_task,59.9527572305024,
stimuli/rgb_scene000147_render000000.png,stimuli/rgb_scene000147_render000002.png,1,8,218,85,"[1, 0]",left,1,28,21,f,y,y,2019_Jul_17_1110,2AFC_task,59.9527572305024,
stimuli/rgb_scene000147_render000000.png,stimuli/rgb_scene000147_render000004.png,1,9,219,87,"[0, 1]",right,1,28,21,f,y,y,2019_Jul_17_1110,2AFC_task,59.9527572305024,
stimuli/rgb_scene000147_render000003.png,stimuli/rgb_scene000147_render000006.png,1,10,220,101,"[1, 0]",left,1,28,21,f,y,y,2019_Jul_17_1110,2AFC_task,59.9527572305024,
stimuli/rgb_scene000165_render000000.png,stimuli/rgb_scene000165_render000003.png,1,11,221,149,"[1, 0]",left,1,28,21,f,y,y,2019_Jul_17_1110,2AFC_task,59.9527572305024,
stimuli/rgb_scene000056_render000000.png,stimuli/rgb_scene000056_render000005.png,1,12,222,46,"[1, 0]",left,1,28,21,f,y,y,2019_Jul_17_1110,2AFC_task,59.9527572305024,
stimuli/rgb_scene000196_render000001.png,stimuli/rgb_scene000196_render000005.png,1,13,223,198,"[0, 1]",right,1,28,21,f,y,y,2019_Jul_17_1110,2AFC_task,59.9527572305024,
stimuli/rgb_scene000047_render000003.png,stimuli/rgb_scene000047_render000005.png,1,14,224,37,"[1, 0]",left,1,28,21,f,y,y,2019_Jul_17_1110,2AFC_task,59.9527572305024,
stimuli/rgb_scene000056_render000002.png,stimuli/rgb_scene000056_render000006.png,1,15,225,56,"[1, 0]",left,1,28,21,f,y,y,2019_Jul_17_1110,2AFC_task,59.9527572305024,
stimuli/rgb_scene000147_render000000.png,stimuli/rgb_scene000147_render000001.png,1,16,226,84,"[1, 0]",left,1,28,21,f,y,y,2019_Jul_17_1110,2AFC_task,59.9527572305024,
stimuli/rgb_scene000042_render000005.png,stimuli/rgb_scene000042_render000006.png,1,17,227,20,"[1, 0]",left,1,28,21,f,y,y,2019_Jul_17_1110,2AFC_task,59.9527572305024,
stimuli/rgb_scene000056_render000002.png,stimuli/rgb_scene000056_render000004.png,1,18,228,54,"[1, 0]",left,1,28,21,f,y,y,2019_Jul_17_1110,2AFC_task,59.9527572305024,
stimuli/rgb_scene000169_render000002.png,stimuli/rgb_scene000169_render000005.png,1,19,229,181,"[0, 1]",right,1,28,21,f,y,y,2019_Jul_17_1110,2AFC_task,59.9527572305024,
stimuli/rgb_scene000047_render000001.png,stimuli/rgb_scene000047_render000006.png,1,20,230,31,"[0, 1]",right,1,28,21,f,y,y,2019_Jul_17_1110,2AFC_task,59.9527572305024,
stimuli/rgb_scene000165_render000002.png,stimuli/rgb_scene000165_render000005.png,1,21,231,160,"[1, 0]",left,1,28,21,f,y,y,2019_Jul_17_1110,2AFC_task,59.9527572305024,
stimuli/rgb_scene000169_render000002.png,stimuli/rgb_scene000169_render000003.png,1,22,232,179,"[0, 1]",right,1,28,21,f,y,y,2019_Jul_17_1110,2AFC_task,59.9527572305024,
stimuli/rgb_scene000066_render000000.png,stimuli/rgb_scene000066_render000005.png,1,23,233,67,"[1, 0]",left,1,28,21,f,y,y,2019_Jul_17_1110,2AFC_task,59.9527572305024,
stimuli/rgb_scene000169_render000000.png,stimuli/rgb_scene000169_render000003.png,1,24,234,170,"[0, 1]",right,1,28,21,f,y,y,2019_Jul_17_1110,2AFC_task,59.9527572305024,
stimuli/rgb_scene000056_render000002.png,stimuli/rgb_scene000056_render000003.png,1,25,235,53,"[1, 0]",left,1,28,21,f,y,y,2019_Jul_17_1110,2AFC_task,59.9527572305024,
stimuli/rgb_scene000047_render000003.png,stimuli/rgb_scene000047_render000004.png,1,26,236,36,"[0, 1]",right,1,28,21,f,y,y,2019_Jul_17_1110,2AFC_task,59.9527572305024,
stimuli/rgb_scene000150_render000004.png,stimuli/rgb_scene000150_render000006.png,1,27,237,124,"[1, 0]",left,1,28,21,f,y,y,2019_Jul_17_1110,2AFC_task,59.9527572305024,
stimuli/rgb_scene000042_render000001.png,stimuli/rgb_scene000042_render000004.png,1,28,238,8,"[1, 0]",left,1,28,21,f,y,y,2019_Jul_17_1110,2AFC_task,59.9527572305024,
stimuli/rgb_scene000056_render000000.png,stimuli/rgb_scene000056_render000002.png,1,29,239,43,"[0, 1]",right,1,28,21,f,y,y,2019_Jul_17_1110,2AFC_task,59.9527572305024,
stimuli/rgb_scene000047_render000000.png,stimuli/rgb_scene000047_render000003.png,1,30,240,23,"[0, 1]",right,1,28,21,f,y,y,2019_Jul_17_1110,2AFC_task,59.9527572305024,
stimuli/rgb_scene000169_render000001.png,stimuli/rgb_scene000169_render000002.png,1,31,241,174,"[1, 0]",left,1,28,21,f,y,y,2019_Jul_17_1110,2AFC_task,59.9527572305024,
stimuli/rgb_scene000047_render000004.png,stimuli/rgb_scene000047_render000006.png,1,32,242,40,"[0, 1]",right,1,28,21,f,y,y,2019_Jul_17_1110,2AFC_task,59.9527572305024,
stimuli/rgb_scene000042_render000002.png,stimuli/rgb_scene000042_render000003.png,1,33,243,11,"[0, 1]",right,1,28,21,f,y,y,2019_Jul_17_1110,2AFC_task,59.9527572305024,
stimuli/rgb_scene000196_render000000.png,stimuli/rgb_scene000196_render000005.png,1,34,244,193,"[0, 1]",right,1,28,21,f,y,y,2019_Jul_17_1110,2AFC_task,59.9527572305024,
stimuli/rgb_scene000047_render000001.png,stimuli/rgb_scene000047_render000003.png,1,35,245,28,"[1, 0]",left,1,28,21,f,y,y,2019_Jul_17_1110,2AFC_task,59.9527572305024,
stimuli/rgb_scene000150_render000003.png,stimuli/rgb_scene000150_render000005.png,1,36,246,121,"[0, 1]",right,1,28,21,f,y,y,2019_Jul_17_1110,2AFC_task,59.9527572305024,
stimuli/rgb_scene000150_render000000.png,stimuli/rgb_scene000150_render000006.png,1,37,247,110,"[0, 1]",right,1,28,21,f,y,y,2019_Jul_17_1110,2AFC_task,59.9527572305024,
stimuli/rgb_scene000056_render000001.png,stimuli/rgb_scene000056_render000004.png,1,38,248,50,"[0, 1]",right,1,28,21,f,y,y,2019_Jul_17_1110,2AFC_task,59.9527572305024,
stimuli/rgb_scene000147_render000001.png,stimuli/rgb_scene000147_render000004.png,1,39,249,92,"[1, 0]",left,1,28,21,f,y,y,2019_Jul_17_1110,2AFC_task,59.9527572305024,
stimuli/rgb_scene000147_render000000.png,stimuli/rgb_scene000147_render000003.png,1,40,250,86,"[1, 0]",left,1,28,21,f,y,y,2019_Jul_17_1110,2AFC_task,59.9527572305024,
stimuli/rgb_scene000150_render000000.png,stimuli/rgb_scene000150_render000004.png,1,41,251,108,"[1, 0]",left,1,28,21,f,y,y,2019_Jul_17_1110,2AFC_task,59.9527572305024,
stimuli/rgb_scene000196_render000002.png,stimuli/rgb_scene000196_render000004.png,1,42,252,201,"[1, 0]",left,1,28,21,f,y,y,2019_Jul_17_1110,2AFC_task,59.9527572305024,
stimuli/rgb_scene000160_render000001.png,stimuli/rgb_scene000160_render000006.png,1,43,253,136,"[1, 0]",left,1,28,21,f,y,y,2019_Jul_17_1110,2AFC_task,59.9527572305024,
stimuli/rgb_scene000169_render000000.png,stimuli/rgb_scene000169_render000004.png,1,44,254,171,"[0, 1]",right,1,28,21,f,y,y,2019_Jul_17_1110,2AFC_task,59.9527572305024,
stimuli/rgb_scene000169_render000005.png,stimuli/rgb_scene000169_render000006.png,1,45,255,188,"[1, 0]",left,1,28,21,f,y,y,2019_Jul_17_1110,2AFC_task,59.9527572305024,
stimuli/rgb_scene000042_render000001.png,stimuli/rgb_scene000042_render000006.png,1,46,256,10,"[0, 1]",right,1,28,21,f,y,y,2019_Jul_17_1110,2AFC_task,59.9527572305024,
stimuli/rgb_scene000066_render000000.png,stimuli/rgb_scene000066_render000001.png,1,47,257,63,"[0, 1]",right,1,28,21,f,y,y,2019_Jul_17_1110,2AFC_task,59.9527572305024,
stimuli/rgb_scene000047_render000002.png,stimuli/rgb_scene000047_render000005.png,1,48,258,34,"[0, 1]",right,1,28,21,f,y,y,2019_Jul_17_1110,2AFC_task,59.9527572305024,
stimuli/rgb_scene000066_render000001.png,stimuli/rgb_scene000066_render000003.png,1,49,259,70,"[1, 0]",left,1,28,21,f,y,y,2019_Jul_17_1110,2AFC_task,59.9527572305024,
stimuli/rgb_scene000150_render000004.png,stimuli/rgb_scene000150_render000005.png,1,50,260,123,"[1, 0]",left,1,28,21,f,y,y,2019_Jul_17_1110,2AFC_task,59.9527572305024,
stimuli/rgb_scene000147_render000002.png,stimuli/rgb_scene000147_render000006.png,1,51,261,98,"[0, 1]",right,1,28,21,f,y,y,2019_Jul_17_1110,2AFC_task,59.9527572305024,
stimuli/rgb_scene000047_render000002.png,stimuli/rgb_scene000047_render000004.png,1,52,262,33,"[1, 0]",left,1,28,21,f,y,y,2019_Jul_17_1110,2AFC_task,59.9527572305024,
stimuli/rgb_scene000042_render000000.png,stimuli/rgb_scene000042_render000004.png,1,53,263,3,"[1, 0]",left,1,28,21,f,y,y,2019_Jul_17_1110,2AFC_task,59.9527572305024,
stimuli/rgb_scene000042_render000000.png,stimuli/rgb_scene000042_render000001.png,1,54,264,0,"[0, 1]",right,1,28,21,f,y,y,2019_Jul_17_1110,2AFC_task,59.9527572305024,
stimuli/rgb_scene000150_render000002.png,stimuli/rgb_scene000150_render000005.png,1,55,265,118,"[1, 0]",left,1,28,21,f,y,y,2019_Jul_17_1110,2AFC_task,59.9527572305024,
stimuli/rgb_scene000066_render000000.png,stimuli/rgb_scene000066_render000006.png,1,56,266,68,"[1, 0]",left,1,28,21,f,y,y,2019_Jul_17_1110,2AFC_task,59.9527572305024,
stimuli/rgb_scene000169_render000000.png,stimuli/rgb_scene000169_render000001.png,1,57,267,168,"[1, 0]",right,0,28,21,f,y,y,2019_Jul_17_1110,2AFC_task,59.9527572305024,
stimuli/rgb_scene000196_render000001.png,stimuli/rgb_scene000196_render000006.png,1,58,268,199,"[0, 1]",right,1,28,21,f,y,y,2019_Jul_17_1110,2AFC_task,59.9527572305024,
stimuli/rgb_scene000150_render000000.png,stimuli/rgb_scene000150_render000001.png,1,59,269,105,"[1, 0]",left,1,28,21,f,y,y,2019_Jul_17_1110,2AFC_task,59.9527572305024,
stimuli/rgb_scene000056_render000004.png,stimuli/rgb_scene000056_render000006.png,1,60,270,61,"[1, 0]",left,1,28,21,f,y,y,2019_Jul_17_1110,2AFC_task,59.9527572305024,
stimuli/rgb_scene000042_render000002.png,stimuli/rgb_scene000042_render000006.png,1,61,271,14,"[0, 1]",right,1,28,21,f,y,y,2019_Jul_17_1110,2AFC_task,59.9527572305024,
stimuli/rgb_scene000042_render000000.png,stimuli/rgb_scene000042_render000006.png,1,62,272,5,"[0, 1]",right,1,28,21,f,y,y,2019_Jul_17_1110,2AFC_task,59.9527572305024,
stimuli/rgb_scene000150_render000001.png,stimuli/rgb_scene000150_render000003.png,1,63,273,112,"[0, 1]",right,1,28,21,f,y,y,2019_Jul_17_1110,2AFC_task,59.9527572305024,
stimuli/rgb_scene000056_render000001.png,stimuli/rgb_scene000056_render000005.png,1,64,274,51,"[0, 1]",right,1,28,21,f,y,y,2019_Jul_17_1110,2AFC_task,59.9527572305024,
stimuli/rgb_scene000066_render000001.png,stimuli/rgb_scene000066_render000006.png,1,65,275,73,"[0, 1]",right,1,28,21,f,y,y,2019_Jul_17_1110,2AFC_task,59.9527572305024,
stimuli/rgb_scene000160_render000002.png,stimuli/rgb_scene000160_render000004.png,1,66,276,138,"[0, 1]",right,1,28,21,f,y,y,2019_Jul_17_1110,2AFC_task,59.9527572305024,
stimuli/rgb_scene000196_render000004.png,stimuli/rgb_scene000196_render000006.png,1,67,277,208,"[1, 0]",right,0,28,21,f,y,y,2019_Jul_17_1110,2AFC_task,59.9527572305024,
stimuli/rgb_scene000047_render000004.png,stimuli/rgb_scene000047_render000005.png,1,68,278,39,"[1, 0]",left,1,28,21,f,y,y,2019_Jul_17_1110,2AFC_task,59.9527572305024,
stimuli/rgb_scene000165_render000002.png,stimuli/rgb_scene000165_render000006.png,1,69,279,161,"[0, 1]",right,1,28,21,f,y,y,2019_Jul_17_1110,2AFC_task,59.9527572305024,
stimuli/rgb_scene000196_render000002.png,stimuli/rgb_scene000196_render000006.png,1,70,280,203,"[1, 0]",right,0,28,21,f,y,y,2019_Jul_17_1110,2AFC_task,59.9527572305024,
stimuli/rgb_scene000047_render000001.png,stimuli/rgb_scene000047_render000002.png,1,71,281,27,"[1, 0]",left,1,28,21,f,y,y,2019_Jul_17_1110,2AFC_task,59.9527572305024,
stimuli/rgb_scene000056_render000003.png,stimuli/rgb_scene000056_render000005.png,1,72,282,58,"[1, 0]",left,1,28,21,f,y,y,2019_Jul_17_1110,2AFC_task,59.9527572305024,
stimuli/rgb_scene000160_render000002.png,stimuli/rgb_scene000160_render000005.png,1,73,283,139,"[1, 0]",left,1,28,21,f,y,y,2019_Jul_17_1110,2AFC_task,59.9527572305024,
stimuli/rgb_scene000169_render000003.png,stimuli/rgb_scene000169_render000006.png,1,74,284,185,"[0, 1]",right,1,28,21,f,y,y,2019_Jul_17_1110,2AFC_task,59.9527572305024,
stimuli/rgb_scene000169_render000001.png,stimuli/rgb_scene000169_render000004.png,1,75,285,176,"[1, 0]",left,1,28,21,f,y,y,2019_Jul_17_1110,2AFC_task,59.9527572305024,
stimuli/rgb_scene000066_render000000.png,stimuli/rgb_scene000066_render000003.png,1,76,286,65,"[1, 0]",left,1,28,21,f,y,y,2019_Jul_17_1110,2AFC_task,59.9527572305024,
stimuli/rgb_scene000066_render000004.png,stimuli/rgb_scene000066_render000005.png,1,77,287,81,"[1, 0]",left,1,28,21,f,y,y,2019_Jul_17_1110,2AFC_task,59.9527572305024,
stimuli/rgb_scene000169_render000003.png,stimuli/rgb_scene000169_render000004.png,1,78,288,183,"[1, 0]",right,0,28,21,f,y,y,2019_Jul_17_1110,2AFC_task,59.9527572305024,
stimuli/rgb_scene000196_render000004.png,stimuli/rgb_scene000196_render000005.png,1,79,289,207,"[0, 1]",left,0,28,21,f,y,y,2019_Jul_17_1110,2AFC_task,59.9527572305024,
stimuli/rgb_scene000147_render000005.png,stimuli/rgb_scene000147_render000006.png,1,80,290,104,"[0, 1]",left,0,28,21,f,y,y,2019_Jul_17_1110,2AFC_task,59.9527572305024,
stimuli/rgb_scene000066_render000005.png,stimuli/rgb_scene000066_render000006.png,1,81,291,83,"[1, 0]",left,1,28,21,f,y,y,2019_Jul_17_1110,2AFC_task,59.9527572305024,
stimuli/rgb_scene000160_render000001.png,stimuli/rgb_scene000160_render000003.png,1,82,292,133,"[0, 1]",right,1,28,21,f,y,y,2019_Jul_17_1110,2AFC_task,59.9527572305024,
stimuli/rgb_scene000196_render000002.png,stimuli/rgb_scene000196_render000005.png,1,83,293,202,"[0, 1]",right,1,28,21,f,y,y,2019_Jul_17_1110,2AFC_task,59.9527572305024,
stimuli/rgb_scene000160_render000004.png,stimuli/rgb_scene000160_render000006.png,1,84,294,145,"[0, 1]",right,1,28,21,f,y,y,2019_Jul_17_1110,2AFC_task,59.9527572305024,
stimuli/rgb_scene000196_render000000.png,stimuli/rgb_scene000196_render000006.png,1,85,295,194,"[1, 0]",left,1,28,21,f,y,y,2019_Jul_17_1110,2AFC_task,59.9527572305024,
stimuli/rgb_scene000169_render000004.png,stimuli/rgb_scene000169_render000005.png,1,86,296,186,"[0, 1]",right,1,28,21,f,y,y,2019_Jul_17_1110,2AFC_task,59.9527572305024,
stimuli/rgb_scene000056_render000000.png,stimuli/rgb_scene000056_render000004.png,1,87,297,45,"[1, 0]",left,1,28,21,f,y,y,2019_Jul_17_1110,2AFC_task,59.9527572305024,
stimuli/rgb_scene000150_render000001.png,stimuli/rgb_scene000150_render000002.png,1,88,298,111,"[1, 0]",left,1,28,21,f,y,y,2019_Jul_17_1110,2AFC_task,59.9527572305024,
stimuli/rgb_scene000196_render000005.png,stimuli/rgb_scene000196_render000006.png,1,89,299,209,"[0, 1]",left,0,28,21,f,y,y,2019_Jul_17_1110,2AFC_task,59.9527572305024,
stimuli/rgb_scene000047_render000000.png,stimuli/rgb_scene000047_render000001.png,1,90,300,21,"[1, 0]",left,1,28,21,f,y,y,2019_Jul_17_1110,2AFC_task,59.9527572305024,
stimuli/rgb_scene000042_render000002.png,stimuli/rgb_scene000042_render000004.png,1,91,301,12,"[0, 1]",right,1,28,21,f,y,y,2019_Jul_17_1110,2AFC_task,59.9527572305024,
stimuli/rgb_scene000147_render000003.png,stimuli/rgb_scene000147_render000005.png,1,92,302,100,"[0, 1]",right,1,28,21,f,y,y,2019_Jul_17_1110,2AFC_task,59.9527572305024,
stimuli/rgb_scene000147_render000002.png,stimuli/rgb_scene000147_render000004.png,1,93,303,96,"[0, 1]",right,1,28,21,f,y,y,2019_Jul_17_1110,2AFC_task,59.9527572305024,
stimuli/rgb_scene000047_render000001.png,stimuli/rgb_scene000047_render000004.png,1,94,304,29,"[0, 1]",right,1,28,21,f,y,y,2019_Jul_17_1110,2AFC_task,59.9527572305024,
stimuli/rgb_scene000066_render000000.png,stimuli/rgb_scene000066_render000004.png,1,95,305,66,"[0, 1]",right,1,28,21,f,y,y,2019_Jul_17_1110,2AFC_task,59.9527572305024,
stimuli/rgb_scene000150_render000000.png,stimuli/rgb_scene000150_render000003.png,1,96,306,107,"[1, 0]",left,1,28,21,f,y,y,2019_Jul_17_1110,2AFC_task,59.9527572305024,
stimuli/rgb_scene000165_render000001.png,stimuli/rgb_scene000165_render000006.png,1,97,307,157,"[0, 1]",right,1,28,21,f,y,y,2019_Jul_17_1110,2AFC_task,59.9527572305024,
stimuli/rgb_scene000165_render000001.png,stimuli/rgb_scene000165_render000004.png,1,98,308,155,"[1, 0]",left,1,28,21,f,y,y,2019_Jul_17_1110,2AFC_task,59.9527572305024,
stimuli/rgb_scene000160_render000000.png,stimuli/rgb_scene000160_render000002.png,1,99,309,127,"[0, 1]",right,1,28,21,f,y,y,2019_Jul_17_1110,2AFC_task,59.9527572305024,
stimuli/rgb_scene000047_render000002.png,stimuli/rgb_scene000047_render000003.png,1,100,310,32,"[1, 0]",left,1,28,21,f,y,y,2019_Jul_17_1110,2AFC_task,59.9527572305024,
stimuli/rgb_scene000150_render000003.png,stimuli/rgb_scene000150_render000006.png,1,101,311,122,"[1, 0]",left,1,28,21,f,y,y,2019_Jul_17_1110,2AFC_task,59.9527572305024,
stimuli/rgb_scene000165_render000000.png,stimuli/rgb_scene000165_render000004.png,1,102,312,150,"[1, 0]",left,1,28,21,f,y,y,2019_Jul_17_1110,2AFC_task,59.9527572305024,
stimuli/rgb_scene000047_render000005.png,stimuli/rgb_scene000047_render000006.png,1,103,313,41,"[1, 0]",left,1,28,21,f,y,y,2019_Jul_17_1110,2AFC_task,59.9527572305024,
stimuli/rgb_scene000160_render000000.png,stimuli/rgb_scene000160_render000006.png,1,104,314,131,"[0, 1]",right,1,28,21,f,y,y,2019_Jul_17_1110,2AFC_task,59.9527572305024,
stimuli/rgb_scene000056_render000000.png,stimuli/rgb_scene000056_render000001.png,1,105,315,42,"[0, 1]",left,0,28,21,f,y,y,2019_Jul_17_1110,2AFC_task,59.9527572305024,
stimuli/rgb_scene000160_render000000.png,stimuli/rgb_scene000160_render000005.png,1,106,316,130,"[1, 0]",left,1,28,21,f,y,y,2019_Jul_17_1110,2AFC_task,59.9527572305024,
stimuli/rgb_scene000066_render000003.png,stimuli/rgb_scene000066_render000006.png,1,107,317,80,"[0, 1]",right,1,28,21,f,y,y,2019_Jul_17_1110,2AFC_task,59.9527572305024,
stimuli/rgb_scene000042_render000000.png,stimuli/rgb_scene000042_render000002.png,1,108,318,1,"[1, 0]",left,1,28,21,f,y,y,2019_Jul_17_1110,2AFC_task,59.9527572305024,
stimuli/rgb_scene000056_render000004.png,stimuli/rgb_scene000056_render000005.png,1,109,319,60,"[1, 0]",left,1,28,21,f,y,y,2019_Jul_17_1110,2AFC_task,59.9527572305024,
stimuli/rgb_scene000165_render000000.png,stimuli/rgb_scene000165_render000006.png,1,110,320,152,"[0, 1]",right,1,28,21,f,y,y,2019_Jul_17_1110,2AFC_task,59.9527572305024,
stimuli/rgb_scene000169_render000000.png,stimuli/rgb_scene000169_render000005.png,1,111,321,172,"[1, 0]",left,1,28,21,f,y,y,2019_Jul_17_1110,2AFC_task,59.9527572305024,
stimuli/rgb_scene000169_render000001.png,stimuli/rgb_scene000169_render000003.png,1,112,322,175,"[1, 0]",left,1,28,21,f,y,y,2019_Jul_17_1110,2AFC_task,59.9527572305024,
stimuli/rgb_scene000196_render000001.png,stimuli/rgb_scene000196_render000004.png,1,113,323,197,"[0, 1]",right,1,28,21,f,y,y,2019_Jul_17_1110,2AFC_task,59.9527572305024,
stimuli/rgb_scene000160_render000003.png,stimuli/rgb_scene000160_render000005.png,1,114,324,142,"[1, 0]",left,1,28,21,f,y,y,2019_Jul_17_1110,2AFC_task,59.9527572305024,
stimuli/rgb_scene000160_render000001.png,stimuli/rgb_scene000160_render000004.png,1,115,325,134,"[0, 1]",right,1,28,21,f,y,y,2019_Jul_17_1110,2AFC_task,59.9527572305024,
stimuli/rgb_scene000165_render000002.png,stimuli/rgb_scene000165_render000003.png,1,116,326,158,"[0, 1]",right,1,28,21,f,y,y,2019_Jul_17_1110,2AFC_task,59.9527572305024,
stimuli/rgb_scene000042_render000000.png,stimuli/rgb_scene000042_render000003.png,1,117,327,2,"[0, 1]",right,1,28,21,f,y,y,2019_Jul_17_1110,2AFC_task,59.9527572305024,
stimuli/rgb_scene000147_render000000.png,stimuli/rgb_scene000147_render000005.png,1,118,328,88,"[1, 0]",left,1,28,21,f,y,y,2019_Jul_17_1110,2AFC_task,59.9527572305024,
stimuli/rgb_scene000165_render000002.png,stimuli/rgb_scene000165_render000004.png,1,119,329,159,"[1, 0]",left,1,28,21,f,y,y,2019_Jul_17_1110,2AFC_task,59.9527572305024,
stimuli/rgb_scene000066_render000000.png,stimuli/rgb_scene000066_render000002.png,1,120,330,64,"[1, 0]",left,1,28,21,f,y,y,2019_Jul_17_1110,2AFC_task,59.9527572305024,
stimuli/rgb_scene000066_render000001.png,stimuli/rgb_scene000066_render000002.png,1,121,331,69,"[1, 0]",left,1,28,21,f,y,y,2019_Jul_17_1110,2AFC_task,59.9527572305024,
stimuli/rgb_scene000042_render000001.png,stimuli/rgb_scene000042_render000005.png,1,122,332,9,"[1, 0]",left,1,28,21,f,y,y,2019_Jul_17_1110,2AFC_task,59.9527572305024,
stimuli/rgb_scene000160_render000004.png,stimuli/rgb_scene000160_render000005.png,1,123,333,144,"[1, 0]",left,1,28,21,f,y,y,2019_Jul_17_1110,2AFC_task,59.9527572305024,
stimuli/rgb_scene000169_render000000.png,stimuli/rgb_scene000169_render000006.png,1,124,334,173,"[0, 1]",right,1,28,21,f,y,y,2019_Jul_17_1110,2AFC_task,59.9527572305024,
stimuli/rgb_scene000042_render000004.png,stimuli/rgb_scene000042_render000006.png,1,125,335,19,"[1, 0]",left,1,28,21,f,y,y,2019_Jul_17_1110,2AFC_task,59.9527572305024,
stimuli/rgb_scene000056_render000000.png,stimuli/rgb_scene000056_render000006.png,1,126,336,47,"[1, 0]",left,1,28,21,f,y,y,2019_Jul_17_1110,2AFC_task,59.9527572305024,
stimuli/rgb_scene000042_render000003.png,stimuli/rgb_scene000042_render000006.png,1,127,337,17,"[1, 0]",left,1,28,21,f,y,y,2019_Jul_17_1110,2AFC_task,59.9527572305024,
stimuli/rgb_scene000066_render000002.png,stimuli/rgb_scene000066_render000005.png,1,128,338,76,"[0, 1]",right,1,28,21,f,y,y,2019_Jul_17_1110,2AFC_task,59.9527572305024,
stimuli/rgb_scene000066_render000003.png,stimuli/rgb_scene000066_render000005.png,1,129,339,79,"[1, 0]",left,1,28,21,f,y,y,2019_Jul_17_1110,2AFC_task,59.9527572305024,
stimuli/rgb_scene000047_render000001.png,stimuli/rgb_scene000047_render000005.png,1,130,340,30,"[1, 0]",left,1,28,21,f,y,y,2019_Jul_17_1110,2AFC_task,59.9527572305024,
stimuli/rgb_scene000150_render000003.png,stimuli/rgb_scene000150_render000004.png,1,131,341,120,"[0, 1]",right,1,28,21,f,y,y,2019_Jul_17_1110,2AFC_task,59.9527572305024,
stimuli/rgb_scene000066_render000002.png,stimuli/rgb_scene000066_render000004.png,1,132,342,75,"[1, 0]",left,1,28,21,f,y,y,2019_Jul_17_1110,2AFC_task,59.9527572305024,
stimuli/rgb_scene000047_render000003.png,stimuli/rgb_scene000047_render000006.png,1,133,343,38,"[1, 0]",left,1,28,21,f,y,y,2019_Jul_17_1110,2AFC_task,59.9527572305024,
stimuli/rgb_scene000147_render000003.png,stimuli/rgb_scene000147_render000004.png,1,134,344,99,"[1, 0]",left,1,28,21,f,y,y,2019_Jul_17_1110,2AFC_task,59.9527572305024,
stimuli/rgb_scene000169_render000000.png,stimuli/rgb_scene000169_render000002.png,1,135,345,169,"[0, 1]",right,1,28,21,f,y,y,2019_Jul_17_1110,2AFC_task,59.9527572305024,
stimuli/rgb_scene000169_render000001.png,stimuli/rgb_scene000169_render000005.png,1,136,346,177,"[0, 1]",right,1,28,21,f,y,y,2019_Jul_17_1110,2AFC_task,59.9527572305024,
stimuli/rgb_scene000066_render000001.png,stimuli/rgb_scene000066_render000005.png,1,137,347,72,"[1, 0]",left,1,28,21,f,y,y,2019_Jul_17_1110,2AFC_task,59.9527572305024,
stimuli/rgb_scene000165_render000004.png,stimuli/rgb_scene000165_render000006.png,1,138,348,166,"[0, 1]",right,1,28,21,f,y,y,2019_Jul_17_1110,2AFC_task,59.9527572305024,
stimuli/rgb_scene000160_render000002.png,stimuli/rgb_scene000160_render000006.png,1,139,349,140,"[1, 0]",left,1,28,21,f,y,y,2019_Jul_17_1110,2AFC_task,59.9527572305024,
stimuli/rgb_scene000042_render000003.png,stimuli/rgb_scene000042_render000005.png,1,140,350,16,"[0, 1]",right,1,28,21,f,y,y,2019_Jul_17_1110,2AFC_task,59.9527572305024,
stimuli/rgb_scene000150_render000001.png,stimuli/rgb_scene000150_render000006.png,1,141,351,115,"[0, 1]",right,1,28,21,f,y,y,2019_Jul_17_1110,2AFC_task,59.9527572305024,
stimuli/rgb_scene000042_render000003.png,stimuli/rgb_scene000042_render000004.png,1,142,352,15,"[1, 0]",left,1,28,21,f,y,y,2019_Jul_17_1110,2AFC_task,59.9527572305024,
stimuli/rgb_scene000150_render000002.png,stimuli/rgb_scene000150_render000004.png,1,143,353,117,"[1, 0]",left,1,28,21,f,y,y,2019_Jul_17_1110,2AFC_task,59.9527572305024,
stimuli/rgb_scene000066_render000002.png,stimuli/rgb_scene000066_render000006.png,1,144,354,77,"[1, 0]",left,1,28,21,f,y,y,2019_Jul_17_1110,2AFC_task,59.9527572305024,
stimuli/rgb_scene000147_render000004.png,stimuli/rgb_scene000147_render000005.png,1,145,355,102,"[0, 1]",right,1,28,21,f,y,y,2019_Jul_17_1110,2AFC_task,59.9527572305024,
stimuli/rgb_scene000165_render000001.png,stimuli/rgb_scene000165_render000003.png,1,146,356,154,"[1, 0]",left,1,28,21,f,y,y,2019_Jul_17_1110,2AFC_task,59.9527572305024,
stimuli/rgb_scene000165_render000000.png,stimuli/rgb_scene000165_render000005.png,1,147,357,151,"[0, 1]",right,1,28,21,f,y,y,2019_Jul_17_1110,2AFC_task,59.9527572305024,
stimuli/rgb_scene000196_render000000.png,stimuli/rgb_scene000196_render000002.png,1,148,358,190,"[1, 0]",left,1,28,21,f,y,y,2019_Jul_17_1110,2AFC_task,59.9527572305024,
stimuli/rgb_scene000066_render000002.png,stimuli/rgb_scene000066_render000003.png,1,149,359,74,"[0, 1]",right,1,28,21,f,y,y,2019_Jul_17_1110,2AFC_task,59.9527572305024,
stimuli/rgb_scene000056_render000005.png,stimuli/rgb_scene000056_render000006.png,1,150,360,62,"[1, 0]",left,1,28,21,f,y,y,2019_Jul_17_1110,2AFC_task,59.9527572305024,
stimuli/rgb_scene000056_render000003.png,stimuli/rgb_scene000056_render000006.png,1,151,361,59,"[1, 0]",left,1,28,21,f,y,y,2019_Jul_17_1110,2AFC_task,59.9527572305024,
stimuli/rgb_scene000165_render000000.png,stimuli/rgb_scene000165_render000002.png,1,152,362,148,"[0, 1]",right,1,28,21,f,y,y,2019_Jul_17_1110,2AFC_task,59.9527572305024,
stimuli/rgb_scene000160_render000001.png,stimuli/rgb_scene000160_render000005.png,1,153,363,135,"[1, 0]",left,1,28,21,f,y,y,2019_Jul_17_1110,2AFC_task,59.9527572305024,
stimuli/rgb_scene000160_render000000.png,stimuli/rgb_scene000160_render000001.png,1,154,364,126,"[0, 1]",right,1,28,21,f,y,y,2019_Jul_17_1110,2AFC_task,59.9527572305024,
stimuli/rgb_scene000042_render000001.png,stimuli/rgb_scene000042_render000003.png,1,155,365,7,"[1, 0]",left,1,28,21,f,y,y,2019_Jul_17_1110,2AFC_task,59.9527572305024,
stimuli/rgb_scene000160_render000003.png,stimuli/rgb_scene000160_render000006.png,1,156,366,143,"[0, 1]",right,1,28,21,f,y,y,2019_Jul_17_1110,2AFC_task,59.9527572305024,
stimuli/rgb_scene000169_render000004.png,stimuli/rgb_scene000169_render000006.png,1,157,367,187,"[1, 0]",left,1,28,21,f,y,y,2019_Jul_17_1110,2AFC_task,59.9527572305024,
stimuli/rgb_scene000160_render000000.png,stimuli/rgb_scene000160_render000003.png,1,158,368,128,"[0, 1]",right,1,28,21,f,y,y,2019_Jul_17_1110,2AFC_task,59.9527572305024,
stimuli/rgb_scene000047_render000000.png,stimuli/rgb_scene000047_render000004.png,1,159,369,24,"[1, 0]",left,1,28,21,f,y,y,2019_Jul_17_1110,2AFC_task,59.9527572305024,
stimuli/rgb_scene000056_render000001.png,stimuli/rgb_scene000056_render000003.png,1,160,370,49,"[0, 1]",right,1,28,21,f,y,y,2019_Jul_17_1110,2AFC_task,59.9527572305024,
stimuli/rgb_scene000196_render000000.png,stimuli/rgb_scene000196_render000001.png,1,161,371,189,"[1, 0]",right,0,28,21,f,y,y,2019_Jul_17_1110,2AFC_task,59.9527572305024,
stimuli/rgb_scene000165_render000005.png,stimuli/rgb_scene000165_render000006.png,1,162,372,167,"[0, 1]",right,1,28,21,f,y,y,2019_Jul_17_1110,2AFC_task,59.9527572305024,
stimuli/rgb_scene000196_render000001.png,stimuli/rgb_scene000196_render000002.png,1,163,373,195,"[0, 1]",right,1,28,21,f,y,y,2019_Jul_17_1110,2AFC_task,59.9527572305024,
stimuli/rgb_scene000150_render000001.png,stimuli/rgb_scene000150_render000004.png,1,164,374,113,"[1, 0]",left,1,28,21,f,y,y,2019_Jul_17_1110,2AFC_task,59.9527572305024,
stimuli/rgb_scene000165_render000003.png,stimuli/rgb_scene000165_render000006.png,1,165,375,164,"[1, 0]",left,1,28,21,f,y,y,2019_Jul_17_1110,2AFC_task,59.9527572305024,
stimuli/rgb_scene000160_render000003.png,stimuli/rgb_scene000160_render000004.png,1,166,376,141,"[1, 0]",left,1,28,21,f,y,y,2019_Jul_17_1110,2AFC_task,59.9527572305024,
stimuli/rgb_scene000042_render000000.png,stimuli/rgb_scene000042_render000005.png,1,167,377,4,"[0, 1]",right,1,28,21,f,y,y,2019_Jul_17_1110,2AFC_task,59.9527572305024,
stimuli/rgb_scene000056_render000001.png,stimuli/rgb_scene000056_render000006.png,1,168,378,52,"[0, 1]",right,1,28,21,f,y,y,2019_Jul_17_1110,2AFC_task,59.9527572305024,
stimuli/rgb_scene000047_render000000.png,stimuli/rgb_scene000047_render000002.png,1,169,379,22,"[1, 0]",left,1,28,21,f,y,y,2019_Jul_17_1110,2AFC_task,59.9527572305024,
stimuli/rgb_scene000147_render000004.png,stimuli/rgb_scene000147_render000006.png,1,170,380,103,"[0, 1]",right,1,28,21,f,y,y,2019_Jul_17_1110,2AFC_task,59.9527572305024,
stimuli/rgb_scene000160_render000002.png,stimuli/rgb_scene000160_render000003.png,1,171,381,137,"[1, 0]",left,1,28,21,f,y,y,2019_Jul_17_1110,2AFC_task,59.9527572305024,
stimuli/rgb_scene000169_render000001.png,stimuli/rgb_scene000169_render000006.png,1,172,382,178,"[0, 1]",right,1,28,21,f,y,y,2019_Jul_17_1110,2AFC_task,59.9527572305024,
stimuli/rgb_scene000066_render000001.png,stimuli/rgb_scene000066_render000004.png,1,173,383,71,"[0, 1]",right,1,28,21,f,y,y,2019_Jul_17_1110,2AFC_task,59.9527572305024,
stimuli/rgb_scene000147_render000002.png,stimuli/rgb_scene000147_render000005.png,1,174,384,97,"[0, 1]",right,1,28,21,f,y,y,2019_Jul_17_1110,2AFC_task,59.9527572305024,
stimuli/rgb_scene000196_render000000.png,stimuli/rgb_scene000196_render000004.png,1,175,385,192,"[1, 0]",left,1,28,21,f,y,y,2019_Jul_17_1110,2AFC_task,59.9527572305024,
stimuli/rgb_scene000147_render000002.png,stimuli/rgb_scene000147_render000003.png,1,176,386,95,"[0, 1]",right,1,28,21,f,y,y,2019_Jul_17_1110,2AFC_task,59.9527572305024,
stimuli/rgb_scene000196_render000003.png,stimuli/rgb_scene000196_render000006.png,1,177,387,206,"[0, 1]",left,0,28,21,f,y,y,2019_Jul_17_1110,2AFC_task,59.9527572305024,
stimuli/rgb_scene000165_render000003.png,stimuli/rgb_scene000165_render000005.png,1,178,388,163,"[0, 1]",right,1,28,21,f,y,y,2019_Jul_17_1110,2AFC_task,59.9527572305024,
stimuli/rgb_scene000165_render000000.png,stimuli/rgb_scene000165_render000001.png,1,179,389,147,"[1, 0]",left,1,28,21,f,y,y,2019_Jul_17_1110,2AFC_task,59.9527572305024,
stimuli/rgb_scene000165_render000003.png,stimuli/rgb_scene000165_render000004.png,1,180,390,162,"[1, 0]",left,1,28,21,f,y,y,2019_Jul_17_1110,2AFC_task,59.9527572305024,
stimuli/rgb_scene000150_render000002.png,stimuli/rgb_scene000150_render000003.png,1,181,391,116,"[0, 1]",right,1,28,21,f,y,y,2019_Jul_17_1110,2AFC_task,59.9527572305024,
stimuli/rgb_scene000147_render000001.png,stimuli/rgb_scene000147_render000002.png,1,182,392,90,"[0, 1]",right,1,28,21,f,y,y,2019_Jul_17_1110,2AFC_task,59.9527572305024,
stimuli/rgb_scene000066_render000004.png,stimuli/rgb_scene000066_render000006.png,1,183,393,82,"[1, 0]",left,1,28,21,f,y,y,2019_Jul_17_1110,2AFC_task,59.9527572305024,
stimuli/rgb_scene000147_render000001.png,stimuli/rgb_scene000147_render000003.png,1,184,394,91,"[1, 0]",left,1,28,21,f,y,y,2019_Jul_17_1110,2AFC_task,59.9527572305024,
stimuli/rgb_scene000150_render000000.png,stimuli/rgb_scene000150_render000005.png,1,185,395,109,"[1, 0]",left,1,28,21,f,y,y,2019_Jul_17_1110,2AFC_task,59.9527572305024,
stimuli/rgb_scene000150_render000001.png,stimuli/rgb_scene000150_render000005.png,1,186,396,114,"[0, 1]",right,1,28,21,f,y,y,2019_Jul_17_1110,2AFC_task,59.9527572305024,
stimuli/rgb_scene000169_render000003.png,stimuli/rgb_scene000169_render000005.png,1,187,397,184,"[1, 0]",left,1,28,21,f,y,y,2019_Jul_17_1110,2AFC_task,59.9527572305024,
stimuli/rgb_scene000160_render000000.png,stimuli/rgb_scene000160_render000004.png,1,188,398,129,"[1, 0]",left,1,28,21,f,y,y,2019_Jul_17_1110,2AFC_task,59.9527572305024,
stimuli/rgb_scene000056_render000001.png,stimuli/rgb_scene000056_render000002.png,1,189,399,48,"[0, 1]",right,1,28,21,f,y,y,2019_Jul_17_1110,2AFC_task,59.9527572305024,
stimuli/rgb_scene000147_render000000.png,stimuli/rgb_scene000147_render000006.png,1,190,400,89,"[0, 1]",right,1,28,21,f,y,y,2019_Jul_17_1110,2AFC_task,59.9527572305024,
stimuli/rgb_scene000147_render000001.png,stimuli/rgb_scene000147_render000006.png,1,191,401,94,"[0, 1]",right,1,28,21,f,y,y,2019_Jul_17_1110,2AFC_task,59.9527572305024,
stimuli/rgb_scene000160_render000001.png,stimuli/rgb_scene000160_render000002.png,1,192,402,132,"[1, 0]",left,1,28,21,f,y,y,2019_Jul_17_1110,2AFC_task,59.9527572305024,
stimuli/rgb_scene000169_render000002.png,stimuli/rgb_scene000169_render000004.png,1,193,403,180,"[0, 1]",right,1,28,21,f,y,y,2019_Jul_17_1110,2AFC_task,59.9527572305024,
stimuli/rgb_scene000056_render000002.png,stimuli/rgb_scene000056_render000005.png,1,194,404,55,"[0, 1]",right,1,28,21,f,y,y,2019_Jul_17_1110,2AFC_task,59.9527572305024,
stimuli/rgb_scene000165_render000001.png,stimuli/rgb_scene000165_render000005.png,1,195,405,156,"[0, 1]",right,1,28,21,f,y,y,2019_Jul_17_1110,2AFC_task,59.9527572305024,
stimuli/rgb_scene000165_render000001.png,stimuli/rgb_scene000165_render000002.png,1,196,406,153,"[0, 1]",right,1,28,21,f,y,y,2019_Jul_17_1110,2AFC_task,59.9527572305024,
stimuli/rgb_scene000196_render000003.png,stimuli/rgb_scene000196_render000005.png,1,197,407,205,"[1, 0]",left,1,28,21,f,y,y,2019_Jul_17_1110,2AFC_task,59.9527572305024,
stimuli/rgb_scene000150_render000000.png,stimuli/rgb_scene000150_render000002.png,1,198,408,106,"[0, 1]",right,1,28,21,f,y,y,2019_Jul_17_1110,2AFC_task,59.9527572305024,
stimuli/rgb_scene000042_render000001.png,stimuli/rgb_scene000042_render000002.png,1,199,409,6,"[0, 1]",right,1,28,21,f,y,y,2019_Jul_17_1110,2AFC_task,59.9527572305024,
stimuli/rgb_scene000056_render000003.png,stimuli/rgb_scene000056_render000004.png,1,200,410,57,"[0, 1]",right,1,28,21,f,y,y,2019_Jul_17_1110,2AFC_task,59.9527572305024,
stimuli/rgb_scene000165_render000004.png,stimuli/rgb_scene000165_render000005.png,1,201,411,165,"[0, 1]",right,1,28,21,f,y,y,2019_Jul_17_1110,2AFC_task,59.9527572305024,
stimuli/rgb_scene000196_render000002.png,stimuli/rgb_scene000196_render000003.png,1,202,412,200,"[0, 1]",right,1,28,21,f,y,y,2019_Jul_17_1110,2AFC_task,59.9527572305024,
stimuli/rgb_scene000047_render000000.png,stimuli/rgb_scene000047_render000006.png,1,203,413,26,"[1, 0]",left,1,28,21,f,y,y,2019_Jul_17_1110,2AFC_task,59.9527572305024,
stimuli/rgb_scene000150_render000002.png,stimuli/rgb_scene000150_render000006.png,1,204,414,119,"[1, 0]",left,1,28,21,f,y,y,2019_Jul_17_1110,2AFC_task,59.9527572305024,
stimuli/rgb_scene000150_render000005.png,stimuli/rgb_scene000150_render000006.png,1,205,415,125,"[1, 0]",right,0,28,21,f,y,y,2019_Jul_17_1110,2AFC_task,59.9527572305024,
stimuli/rgb_scene000196_render000003.png,stimuli/rgb_scene000196_render000004.png,1,206,416,204,"[0, 1]",right,1,28,21,f,y,y,2019_Jul_17_1110,2AFC_task,59.9527572305024,
stimuli/rgb_scene000056_render000000.png,stimuli/rgb_scene000056_render000003.png,1,207,417,44,"[0, 1]",right,1,28,21,f,y,y,2019_Jul_17_1110,2AFC_task,59.9527572305024,
stimuli/rgb_scene000147_render000001.png,stimuli/rgb_scene000147_render000005.png,1,208,418,93,"[1, 0]",right,0,28,21,f,y,y,2019_Jul_17_1110,2AFC_task,59.9527572305024,
stimuli/rgb_scene000047_render000000.png,stimuli/rgb_scene000047_render000005.png,1,209,419,25,"[1, 0]",left,1,28,21,f,y,y,2019_Jul_17_1110,2AFC_task,59.9527572305024,
