stimOne,stimTwo,trials_1.thisRepN,trials_1.thisTrialN,trials_1.thisN,trials_1.thisIndex,presentation_positions,resp_key,corresponding_image,participant ID (two digits, e.g. 01),age,gender (m/f/-),normal or corrected-to-normal vision (y/n),normal colour vision (y/n),date,expName,frameRate,
stimuli/rgb_scene000165_render000000.png,stimuli/rgb_scene000165_render000005.png,0,0,0,151,"[0, 1]",right,1,33,33,m,y,y,2019_Jul_11_1307,2AFC_task,59.96994303116421,
stimuli/rgb_scene000066_render000002.png,stimuli/rgb_scene000066_render000003.png,0,1,1,74,"[0, 1]",right,1,33,33,m,y,y,2019_Jul_11_1307,2AFC_task,59.96994303116421,
stimuli/rgb_scene000160_render000001.png,stimuli/rgb_scene000160_render000005.png,0,2,2,135,"[0, 1]",right,1,33,33,m,y,y,2019_Jul_11_1307,2AFC_task,59.96994303116421,
stimuli/rgb_scene000047_render000002.png,stimuli/rgb_scene000047_render000005.png,0,3,3,34,"[0, 1]",right,1,33,33,m,y,y,2019_Jul_11_1307,2AFC_task,59.96994303116421,
stimuli/rgb_scene000169_render000002.png,stimuli/rgb_scene000169_render000004.png,0,4,4,180,"[0, 1]",right,1,33,33,m,y,y,2019_Jul_11_1307,2AFC_task,59.96994303116421,
stimuli/rgb_scene000047_render000001.png,stimuli/rgb_scene000047_render000005.png,0,5,5,30,"[1, 0]",left,1,33,33,m,y,y,2019_Jul_11_1307,2AFC_task,59.96994303116421,
stimuli/rgb_scene000169_render000000.png,stimuli/rgb_scene000169_render000001.png,0,6,6,168,"[1, 0]",left,1,33,33,m,y,y,2019_Jul_11_1307,2AFC_task,59.96994303116421,
stimuli/rgb_scene000165_render000002.png,stimuli/rgb_scene000165_render000004.png,0,7,7,159,"[0, 1]",right,1,33,33,m,y,y,2019_Jul_11_1307,2AFC_task,59.96994303116421,
stimuli/rgb_scene000047_render000004.png,stimuli/rgb_scene000047_render000005.png,0,8,8,39,"[1, 0]",left,1,33,33,m,y,y,2019_Jul_11_1307,2AFC_task,59.96994303116421,
stimuli/rgb_scene000047_render000000.png,stimuli/rgb_scene000047_render000003.png,0,9,9,23,"[1, 0]",left,1,33,33,m,y,y,2019_Jul_11_1307,2AFC_task,59.96994303116421,
stimuli/rgb_scene000160_render000001.png,stimuli/rgb_scene000160_render000004.png,0,10,10,134,"[1, 0]",left,1,33,33,m,y,y,2019_Jul_11_1307,2AFC_task,59.96994303116421,
stimuli/rgb_scene000147_render000001.png,stimuli/rgb_scene000147_render000004.png,0,11,11,92,"[0, 1]",right,1,33,33,m,y,y,2019_Jul_11_1307,2AFC_task,59.96994303116421,
stimuli/rgb_scene000147_render000000.png,stimuli/rgb_scene000147_render000004.png,0,12,12,87,"[1, 0]",left,1,33,33,m,y,y,2019_Jul_11_1307,2AFC_task,59.96994303116421,
stimuli/rgb_scene000147_render000002.png,stimuli/rgb_scene000147_render000005.png,0,13,13,97,"[1, 0]",left,1,33,33,m,y,y,2019_Jul_11_1307,2AFC_task,59.96994303116421,
stimuli/rgb_scene000042_render000005.png,stimuli/rgb_scene000042_render000006.png,0,14,14,20,"[0, 1]",right,1,33,33,m,y,y,2019_Jul_11_1307,2AFC_task,59.96994303116421,
stimuli/rgb_scene000165_render000004.png,stimuli/rgb_scene000165_render000006.png,0,15,15,166,"[0, 1]",right,1,33,33,m,y,y,2019_Jul_11_1307,2AFC_task,59.96994303116421,
stimuli/rgb_scene000147_render000003.png,stimuli/rgb_scene000147_render000005.png,0,16,16,100,"[1, 0]",left,1,33,33,m,y,y,2019_Jul_11_1307,2AFC_task,59.96994303116421,
stimuli/rgb_scene000150_render000004.png,stimuli/rgb_scene000150_render000005.png,0,17,17,123,"[0, 1]",right,1,33,33,m,y,y,2019_Jul_11_1307,2AFC_task,59.96994303116421,
stimuli/rgb_scene000165_render000003.png,stimuli/rgb_scene000165_render000006.png,0,18,18,164,"[0, 1]",right,1,33,33,m,y,y,2019_Jul_11_1307,2AFC_task,59.96994303116421,
stimuli/rgb_scene000165_render000003.png,stimuli/rgb_scene000165_render000005.png,0,19,19,163,"[0, 1]",right,1,33,33,m,y,y,2019_Jul_11_1307,2AFC_task,59.96994303116421,
stimuli/rgb_scene000165_render000000.png,stimuli/rgb_scene000165_render000006.png,0,20,20,152,"[0, 1]",right,1,33,33,m,y,y,2019_Jul_11_1307,2AFC_task,59.96994303116421,
stimuli/rgb_scene000196_render000001.png,stimuli/rgb_scene000196_render000006.png,0,21,21,199,"[1, 0]",right,0,33,33,m,y,y,2019_Jul_11_1307,2AFC_task,59.96994303116421,
stimuli/rgb_scene000147_render000000.png,stimuli/rgb_scene000147_render000005.png,0,22,22,88,"[1, 0]",left,1,33,33,m,y,y,2019_Jul_11_1307,2AFC_task,59.96994303116421,
stimuli/rgb_scene000150_render000002.png,stimuli/rgb_scene000150_render000005.png,0,23,23,118,"[1, 0]",left,1,33,33,m,y,y,2019_Jul_11_1307,2AFC_task,59.96994303116421,
stimuli/rgb_scene000147_render000001.png,stimuli/rgb_scene000147_render000002.png,0,24,24,90,"[0, 1]",right,1,33,33,m,y,y,2019_Jul_11_1307,2AFC_task,59.96994303116421,
stimuli/rgb_scene000042_render000003.png,stimuli/rgb_scene000042_render000005.png,0,25,25,16,"[0, 1]",right,1,33,33,m,y,y,2019_Jul_11_1307,2AFC_task,59.96994303116421,
stimuli/rgb_scene000056_render000002.png,stimuli/rgb_scene000056_render000003.png,0,26,26,53,"[1, 0]",left,1,33,33,m,y,y,2019_Jul_11_1307,2AFC_task,59.96994303116421,
stimuli/rgb_scene000160_render000000.png,stimuli/rgb_scene000160_render000002.png,0,27,27,127,"[1, 0]",left,1,33,33,m,y,y,2019_Jul_11_1307,2AFC_task,59.96994303116421,
stimuli/rgb_scene000147_render000002.png,stimuli/rgb_scene000147_render000003.png,0,28,28,95,"[0, 1]",right,1,33,33,m,y,y,2019_Jul_11_1307,2AFC_task,59.96994303116421,
stimuli/rgb_scene000169_render000000.png,stimuli/rgb_scene000169_render000002.png,0,29,29,169,"[0, 1]",right,1,33,33,m,y,y,2019_Jul_11_1307,2AFC_task,59.96994303116421,
stimuli/rgb_scene000169_render000002.png,stimuli/rgb_scene000169_render000003.png,0,30,30,179,"[1, 0]",right,0,33,33,m,y,y,2019_Jul_11_1307,2AFC_task,59.96994303116421,
stimuli/rgb_scene000066_render000001.png,stimuli/rgb_scene000066_render000006.png,0,31,31,73,"[0, 1]",right,1,33,33,m,y,y,2019_Jul_11_1307,2AFC_task,59.96994303116421,
stimuli/rgb_scene000150_render000002.png,stimuli/rgb_scene000150_render000004.png,0,32,32,117,"[0, 1]",right,1,33,33,m,y,y,2019_Jul_11_1307,2AFC_task,59.96994303116421,
stimuli/rgb_scene000056_render000000.png,stimuli/rgb_scene000056_render000006.png,0,33,33,47,"[0, 1]",right,1,33,33,m,y,y,2019_Jul_11_1307,2AFC_task,59.96994303116421,
stimuli/rgb_scene000042_render000000.png,stimuli/rgb_scene000042_render000004.png,0,34,34,3,"[1, 0]",left,1,33,33,m,y,y,2019_Jul_11_1307,2AFC_task,59.96994303116421,
stimuli/rgb_scene000147_render000000.png,stimuli/rgb_scene000147_render000003.png,0,35,35,86,"[1, 0]",left,1,33,33,m,y,y,2019_Jul_11_1307,2AFC_task,59.96994303116421,
stimuli/rgb_scene000066_render000000.png,stimuli/rgb_scene000066_render000005.png,0,36,36,67,"[1, 0]",left,1,33,33,m,y,y,2019_Jul_11_1307,2AFC_task,59.96994303116421,
stimuli/rgb_scene000047_render000000.png,stimuli/rgb_scene000047_render000001.png,0,37,37,21,"[0, 1]",right,1,33,33,m,y,y,2019_Jul_11_1307,2AFC_task,59.96994303116421,
stimuli/rgb_scene000042_render000000.png,stimuli/rgb_scene000042_render000003.png,0,38,38,2,"[0, 1]",right,1,33,33,m,y,y,2019_Jul_11_1307,2AFC_task,59.96994303116421,
stimuli/rgb_scene000056_render000004.png,stimuli/rgb_scene000056_render000006.png,0,39,39,61,"[0, 1]",right,1,33,33,m,y,y,2019_Jul_11_1307,2AFC_task,59.96994303116421,
stimuli/rgb_scene000147_render000002.png,stimuli/rgb_scene000147_render000004.png,0,40,40,96,"[1, 0]",left,1,33,33,m,y,y,2019_Jul_11_1307,2AFC_task,59.96994303116421,
stimuli/rgb_scene000056_render000003.png,stimuli/rgb_scene000056_render000004.png,0,41,41,57,"[1, 0]",left,1,33,33,m,y,y,2019_Jul_11_1307,2AFC_task,59.96994303116421,
stimuli/rgb_scene000150_render000000.png,stimuli/rgb_scene000150_render000001.png,0,42,42,105,"[0, 1]",right,1,33,33,m,y,y,2019_Jul_11_1307,2AFC_task,59.96994303116421,
stimuli/rgb_scene000169_render000001.png,stimuli/rgb_scene000169_render000006.png,0,43,43,178,"[1, 0]",right,0,33,33,m,y,y,2019_Jul_11_1307,2AFC_task,59.96994303116421,
stimuli/rgb_scene000056_render000002.png,stimuli/rgb_scene000056_render000005.png,0,44,44,55,"[0, 1]",right,1,33,33,m,y,y,2019_Jul_11_1307,2AFC_task,59.96994303116421,
stimuli/rgb_scene000047_render000001.png,stimuli/rgb_scene000047_render000002.png,0,45,45,27,"[0, 1]",right,1,33,33,m,y,y,2019_Jul_11_1307,2AFC_task,59.96994303116421,
stimuli/rgb_scene000066_render000003.png,stimuli/rgb_scene000066_render000004.png,0,46,46,78,"[0, 1]",right,1,33,33,m,y,y,2019_Jul_11_1307,2AFC_task,59.96994303116421,
stimuli/rgb_scene000047_render000002.png,stimuli/rgb_scene000047_render000003.png,0,47,47,32,"[0, 1]",right,1,33,33,m,y,y,2019_Jul_11_1307,2AFC_task,59.96994303116421,
stimuli/rgb_scene000160_render000002.png,stimuli/rgb_scene000160_render000006.png,0,48,48,140,"[1, 0]",left,1,33,33,m,y,y,2019_Jul_11_1307,2AFC_task,59.96994303116421,
stimuli/rgb_scene000196_render000000.png,stimuli/rgb_scene000196_render000001.png,0,49,49,189,"[0, 1]",right,1,33,33,m,y,y,2019_Jul_11_1307,2AFC_task,59.96994303116421,
stimuli/rgb_scene000196_render000005.png,stimuli/rgb_scene000196_render000006.png,0,50,50,209,"[0, 1]",left,0,33,33,m,y,y,2019_Jul_11_1307,2AFC_task,59.96994303116421,
stimuli/rgb_scene000160_render000000.png,stimuli/rgb_scene000160_render000006.png,0,51,51,131,"[0, 1]",right,1,33,33,m,y,y,2019_Jul_11_1307,2AFC_task,59.96994303116421,
stimuli/rgb_scene000047_render000003.png,stimuli/rgb_scene000047_render000005.png,0,52,52,37,"[0, 1]",right,1,33,33,m,y,y,2019_Jul_11_1307,2AFC_task,59.96994303116421,
stimuli/rgb_scene000042_render000001.png,stimuli/rgb_scene000042_render000004.png,0,53,53,8,"[0, 1]",right,1,33,33,m,y,y,2019_Jul_11_1307,2AFC_task,59.96994303116421,
stimuli/rgb_scene000165_render000002.png,stimuli/rgb_scene000165_render000006.png,0,54,54,161,"[1, 0]",left,1,33,33,m,y,y,2019_Jul_11_1307,2AFC_task,59.96994303116421,
stimuli/rgb_scene000196_render000002.png,stimuli/rgb_scene000196_render000003.png,0,55,55,200,"[1, 0]",right,0,33,33,m,y,y,2019_Jul_11_1307,2AFC_task,59.96994303116421,
stimuli/rgb_scene000042_render000001.png,stimuli/rgb_scene000042_render000005.png,0,56,56,9,"[1, 0]",left,1,33,33,m,y,y,2019_Jul_11_1307,2AFC_task,59.96994303116421,
stimuli/rgb_scene000160_render000001.png,stimuli/rgb_scene000160_render000003.png,0,57,57,133,"[0, 1]",right,1,33,33,m,y,y,2019_Jul_11_1307,2AFC_task,59.96994303116421,
stimuli/rgb_scene000042_render000003.png,stimuli/rgb_scene000042_render000004.png,0,58,58,15,"[1, 0]",left,1,33,33,m,y,y,2019_Jul_11_1307,2AFC_task,59.96994303116421,
stimuli/rgb_scene000160_render000000.png,stimuli/rgb_scene000160_render000005.png,0,59,59,130,"[1, 0]",left,1,33,33,m,y,y,2019_Jul_11_1307,2AFC_task,59.96994303116421,
stimuli/rgb_scene000147_render000004.png,stimuli/rgb_scene000147_render000006.png,0,60,60,103,"[1, 0]",left,1,33,33,m,y,y,2019_Jul_11_1307,2AFC_task,59.96994303116421,
stimuli/rgb_scene000150_render000001.png,stimuli/rgb_scene000150_render000003.png,0,61,61,112,"[1, 0]",left,1,33,33,m,y,y,2019_Jul_11_1307,2AFC_task,59.96994303116421,
stimuli/rgb_scene000169_render000005.png,stimuli/rgb_scene000169_render000006.png,0,62,62,188,"[1, 0]",left,1,33,33,m,y,y,2019_Jul_11_1307,2AFC_task,59.96994303116421,
stimuli/rgb_scene000056_render000001.png,stimuli/rgb_scene000056_render000002.png,0,63,63,48,"[0, 1]",right,1,33,33,m,y,y,2019_Jul_11_1307,2AFC_task,59.96994303116421,
stimuli/rgb_scene000196_render000002.png,stimuli/rgb_scene000196_render000004.png,0,64,64,201,"[0, 1]",right,1,33,33,m,y,y,2019_Jul_11_1307,2AFC_task,59.96994303116421,
stimuli/rgb_scene000042_render000002.png,stimuli/rgb_scene000042_render000006.png,0,65,65,14,"[0, 1]",right,1,33,33,m,y,y,2019_Jul_11_1307,2AFC_task,59.96994303116421,
stimuli/rgb_scene000165_render000001.png,stimuli/rgb_scene000165_render000006.png,0,66,66,157,"[0, 1]",right,1,33,33,m,y,y,2019_Jul_11_1307,2AFC_task,59.96994303116421,
stimuli/rgb_scene000165_render000001.png,stimuli/rgb_scene000165_render000003.png,0,67,67,154,"[1, 0]",left,1,33,33,m,y,y,2019_Jul_11_1307,2AFC_task,59.96994303116421,
stimuli/rgb_scene000147_render000003.png,stimuli/rgb_scene000147_render000004.png,0,68,68,99,"[0, 1]",right,1,33,33,m,y,y,2019_Jul_11_1307,2AFC_task,59.96994303116421,
stimuli/rgb_scene000150_render000000.png,stimuli/rgb_scene000150_render000005.png,0,69,69,109,"[0, 1]",right,1,33,33,m,y,y,2019_Jul_11_1307,2AFC_task,59.96994303116421,
stimuli/rgb_scene000147_render000000.png,stimuli/rgb_scene000147_render000006.png,0,70,70,89,"[0, 1]",right,1,33,33,m,y,y,2019_Jul_11_1307,2AFC_task,59.96994303116421,
stimuli/rgb_scene000150_render000000.png,stimuli/rgb_scene000150_render000003.png,0,71,71,107,"[0, 1]",right,1,33,33,m,y,y,2019_Jul_11_1307,2AFC_task,59.96994303116421,
stimuli/rgb_scene000066_render000000.png,stimuli/rgb_scene000066_render000004.png,0,72,72,66,"[0, 1]",right,1,33,33,m,y,y,2019_Jul_11_1307,2AFC_task,59.96994303116421,
stimuli/rgb_scene000196_render000003.png,stimuli/rgb_scene000196_render000006.png,0,73,73,206,"[1, 0]",right,0,33,33,m,y,y,2019_Jul_11_1307,2AFC_task,59.96994303116421,
stimuli/rgb_scene000042_render000002.png,stimuli/rgb_scene000042_render000004.png,0,74,74,12,"[0, 1]",right,1,33,33,m,y,y,2019_Jul_11_1307,2AFC_task,59.96994303116421,
stimuli/rgb_scene000042_render000002.png,stimuli/rgb_scene000042_render000003.png,0,75,75,11,"[0, 1]",right,1,33,33,m,y,y,2019_Jul_11_1307,2AFC_task,59.96994303116421,
stimuli/rgb_scene000147_render000001.png,stimuli/rgb_scene000147_render000003.png,0,76,76,91,"[0, 1]",right,1,33,33,m,y,y,2019_Jul_11_1307,2AFC_task,59.96994303116421,
stimuli/rgb_scene000196_render000000.png,stimuli/rgb_scene000196_render000002.png,0,77,77,190,"[1, 0]",right,0,33,33,m,y,y,2019_Jul_11_1307,2AFC_task,59.96994303116421,
stimuli/rgb_scene000066_render000002.png,stimuli/rgb_scene000066_render000004.png,0,78,78,75,"[0, 1]",right,1,33,33,m,y,y,2019_Jul_11_1307,2AFC_task,59.96994303116421,
stimuli/rgb_scene000196_render000002.png,stimuli/rgb_scene000196_render000005.png,0,79,79,202,"[0, 1]",right,1,33,33,m,y,y,2019_Jul_11_1307,2AFC_task,59.96994303116421,
stimuli/rgb_scene000169_render000001.png,stimuli/rgb_scene000169_render000004.png,0,80,80,176,"[0, 1]",left,0,33,33,m,y,y,2019_Jul_11_1307,2AFC_task,59.96994303116421,
stimuli/rgb_scene000147_render000001.png,stimuli/rgb_scene000147_render000005.png,0,81,81,93,"[1, 0]",left,1,33,33,m,y,y,2019_Jul_11_1307,2AFC_task,59.96994303116421,
stimuli/rgb_scene000047_render000004.png,stimuli/rgb_scene000047_render000006.png,0,82,82,40,"[1, 0]",left,1,33,33,m,y,y,2019_Jul_11_1307,2AFC_task,59.96994303116421,
stimuli/rgb_scene000196_render000000.png,stimuli/rgb_scene000196_render000003.png,0,83,83,191,"[0, 1]",right,1,33,33,m,y,y,2019_Jul_11_1307,2AFC_task,59.96994303116421,
stimuli/rgb_scene000147_render000003.png,stimuli/rgb_scene000147_render000006.png,0,84,84,101,"[1, 0]",left,1,33,33,m,y,y,2019_Jul_11_1307,2AFC_task,59.96994303116421,
stimuli/rgb_scene000169_render000004.png,stimuli/rgb_scene000169_render000006.png,0,85,85,187,"[0, 1]",right,1,33,33,m,y,y,2019_Jul_11_1307,2AFC_task,59.96994303116421,
stimuli/rgb_scene000169_render000004.png,stimuli/rgb_scene000169_render000005.png,0,86,86,186,"[0, 1]",right,1,33,33,m,y,y,2019_Jul_11_1307,2AFC_task,59.96994303116421,
stimuli/rgb_scene000047_render000002.png,stimuli/rgb_scene000047_render000006.png,0,87,87,35,"[1, 0]",left,1,33,33,m,y,y,2019_Jul_11_1307,2AFC_task,59.96994303116421,
stimuli/rgb_scene000150_render000003.png,stimuli/rgb_scene000150_render000004.png,0,88,88,120,"[0, 1]",right,1,33,33,m,y,y,2019_Jul_11_1307,2AFC_task,59.96994303116421,
stimuli/rgb_scene000147_render000005.png,stimuli/rgb_scene000147_render000006.png,0,89,89,104,"[0, 1]",right,1,33,33,m,y,y,2019_Jul_11_1307,2AFC_task,59.96994303116421,
stimuli/rgb_scene000056_render000001.png,stimuli/rgb_scene000056_render000003.png,0,90,90,49,"[1, 0]",left,1,33,33,m,y,y,2019_Jul_11_1307,2AFC_task,59.96994303116421,
stimuli/rgb_scene000160_render000003.png,stimuli/rgb_scene000160_render000004.png,0,91,91,141,"[1, 0]",left,1,33,33,m,y,y,2019_Jul_11_1307,2AFC_task,59.96994303116421,
stimuli/rgb_scene000056_render000005.png,stimuli/rgb_scene000056_render000006.png,0,92,92,62,"[1, 0]",left,1,33,33,m,y,y,2019_Jul_11_1307,2AFC_task,59.96994303116421,
stimuli/rgb_scene000056_render000000.png,stimuli/rgb_scene000056_render000002.png,0,93,93,43,"[0, 1]",right,1,33,33,m,y,y,2019_Jul_11_1307,2AFC_task,59.96994303116421,
stimuli/rgb_scene000047_render000001.png,stimuli/rgb_scene000047_render000006.png,0,94,94,31,"[1, 0]",left,1,33,33,m,y,y,2019_Jul_11_1307,2AFC_task,59.96994303116421,
stimuli/rgb_scene000169_render000000.png,stimuli/rgb_scene000169_render000003.png,0,95,95,170,"[1, 0]",right,0,33,33,m,y,y,2019_Jul_11_1307,2AFC_task,59.96994303116421,
stimuli/rgb_scene000169_render000000.png,stimuli/rgb_scene000169_render000004.png,0,96,96,171,"[0, 1]",left,0,33,33,m,y,y,2019_Jul_11_1307,2AFC_task,59.96994303116421,
stimuli/rgb_scene000165_render000001.png,stimuli/rgb_scene000165_render000004.png,0,97,97,155,"[0, 1]",right,1,33,33,m,y,y,2019_Jul_11_1307,2AFC_task,59.96994303116421,
stimuli/rgb_scene000169_render000002.png,stimuli/rgb_scene000169_render000005.png,0,98,98,181,"[0, 1]",left,0,33,33,m,y,y,2019_Jul_11_1307,2AFC_task,59.96994303116421,
stimuli/rgb_scene000165_render000000.png,stimuli/rgb_scene000165_render000004.png,0,99,99,150,"[0, 1]",right,1,33,33,m,y,y,2019_Jul_11_1307,2AFC_task,59.96994303116421,
stimuli/rgb_scene000165_render000000.png,stimuli/rgb_scene000165_render000001.png,0,100,100,147,"[0, 1]",right,1,33,33,m,y,y,2019_Jul_11_1307,2AFC_task,59.96994303116421,
stimuli/rgb_scene000150_render000001.png,stimuli/rgb_scene000150_render000006.png,0,101,101,115,"[1, 0]",left,1,33,33,m,y,y,2019_Jul_11_1307,2AFC_task,59.96994303116421,
stimuli/rgb_scene000150_render000005.png,stimuli/rgb_scene000150_render000006.png,0,102,102,125,"[0, 1]",left,0,33,33,m,y,y,2019_Jul_11_1307,2AFC_task,59.96994303116421,
stimuli/rgb_scene000147_render000004.png,stimuli/rgb_scene000147_render000005.png,0,103,103,102,"[1, 0]",left,1,33,33,m,y,y,2019_Jul_11_1307,2AFC_task,59.96994303116421,
stimuli/rgb_scene000169_render000003.png,stimuli/rgb_scene000169_render000006.png,0,104,104,185,"[0, 1]",right,1,33,33,m,y,y,2019_Jul_11_1307,2AFC_task,59.96994303116421,
stimuli/rgb_scene000042_render000001.png,stimuli/rgb_scene000042_render000002.png,0,105,105,6,"[0, 1]",right,1,33,33,m,y,y,2019_Jul_11_1307,2AFC_task,59.96994303116421,
stimuli/rgb_scene000047_render000000.png,stimuli/rgb_scene000047_render000002.png,0,106,106,22,"[1, 0]",left,1,33,33,m,y,y,2019_Jul_11_1307,2AFC_task,59.96994303116421,
stimuli/rgb_scene000150_render000000.png,stimuli/rgb_scene000150_render000006.png,0,107,107,110,"[0, 1]",right,1,33,33,m,y,y,2019_Jul_11_1307,2AFC_task,59.96994303116421,
stimuli/rgb_scene000147_render000000.png,stimuli/rgb_scene000147_render000002.png,0,108,108,85,"[0, 1]",right,1,33,33,m,y,y,2019_Jul_11_1307,2AFC_task,59.96994303116421,
stimuli/rgb_scene000169_render000001.png,stimuli/rgb_scene000169_render000002.png,0,109,109,174,"[0, 1]",right,1,33,33,m,y,y,2019_Jul_11_1307,2AFC_task,59.96994303116421,
stimuli/rgb_scene000147_render000001.png,stimuli/rgb_scene000147_render000006.png,0,110,110,94,"[1, 0]",left,1,33,33,m,y,y,2019_Jul_11_1307,2AFC_task,59.96994303116421,
stimuli/rgb_scene000066_render000004.png,stimuli/rgb_scene000066_render000006.png,0,111,111,82,"[0, 1]",right,1,33,33,m,y,y,2019_Jul_11_1307,2AFC_task,59.96994303116421,
stimuli/rgb_scene000047_render000000.png,stimuli/rgb_scene000047_render000004.png,0,112,112,24,"[1, 0]",left,1,33,33,m,y,y,2019_Jul_11_1307,2AFC_task,59.96994303116421,
stimuli/rgb_scene000160_render000000.png,stimuli/rgb_scene000160_render000001.png,0,113,113,126,"[0, 1]",right,1,33,33,m,y,y,2019_Jul_11_1307,2AFC_task,59.96994303116421,
stimuli/rgb_scene000056_render000004.png,stimuli/rgb_scene000056_render000005.png,0,114,114,60,"[1, 0]",left,1,33,33,m,y,y,2019_Jul_11_1307,2AFC_task,59.96994303116421,
stimuli/rgb_scene000169_render000000.png,stimuli/rgb_scene000169_render000005.png,0,115,115,172,"[0, 1]",left,0,33,33,m,y,y,2019_Jul_11_1307,2AFC_task,59.96994303116421,
stimuli/rgb_scene000042_render000004.png,stimuli/rgb_scene000042_render000006.png,0,116,116,19,"[1, 0]",left,1,33,33,m,y,y,2019_Jul_11_1307,2AFC_task,59.96994303116421,
stimuli/rgb_scene000056_render000000.png,stimuli/rgb_scene000056_render000001.png,0,117,117,42,"[1, 0]",left,1,33,33,m,y,y,2019_Jul_11_1307,2AFC_task,59.96994303116421,
stimuli/rgb_scene000169_render000002.png,stimuli/rgb_scene000169_render000006.png,0,118,118,182,"[1, 0]",right,0,33,33,m,y,y,2019_Jul_11_1307,2AFC_task,59.96994303116421,
stimuli/rgb_scene000066_render000001.png,stimuli/rgb_scene000066_render000005.png,0,119,119,72,"[0, 1]",right,1,33,33,m,y,y,2019_Jul_11_1307,2AFC_task,59.96994303116421,
stimuli/rgb_scene000169_render000003.png,stimuli/rgb_scene000169_render000005.png,0,120,120,184,"[0, 1]",right,1,33,33,m,y,y,2019_Jul_11_1307,2AFC_task,59.96994303116421,
stimuli/rgb_scene000169_render000001.png,stimuli/rgb_scene000169_render000005.png,0,121,121,177,"[0, 1]",left,0,33,33,m,y,y,2019_Jul_11_1307,2AFC_task,59.96994303116421,
stimuli/rgb_scene000196_render000001.png,stimuli/rgb_scene000196_render000005.png,0,122,122,198,"[0, 1]",right,1,33,33,m,y,y,2019_Jul_11_1307,2AFC_task,59.96994303116421,
stimuli/rgb_scene000042_render000001.png,stimuli/rgb_scene000042_render000003.png,0,123,123,7,"[1, 0]",left,1,33,33,m,y,y,2019_Jul_11_1307,2AFC_task,59.96994303116421,
stimuli/rgb_scene000165_render000004.png,stimuli/rgb_scene000165_render000005.png,0,124,124,165,"[0, 1]",right,1,33,33,m,y,y,2019_Jul_11_1307,2AFC_task,59.96994303116421,
stimuli/rgb_scene000150_render000002.png,stimuli/rgb_scene000150_render000006.png,0,125,125,119,"[0, 1]",right,1,33,33,m,y,y,2019_Jul_11_1307,2AFC_task,59.96994303116421,
stimuli/rgb_scene000066_render000000.png,stimuli/rgb_scene000066_render000001.png,0,126,126,63,"[0, 1]",right,1,33,33,m,y,y,2019_Jul_11_1307,2AFC_task,59.96994303116421,
stimuli/rgb_scene000066_render000002.png,stimuli/rgb_scene000066_render000005.png,0,127,127,76,"[1, 0]",left,1,33,33,m,y,y,2019_Jul_11_1307,2AFC_task,59.96994303116421,
stimuli/rgb_scene000042_render000000.png,stimuli/rgb_scene000042_render000001.png,0,128,128,0,"[0, 1]",right,1,33,33,m,y,y,2019_Jul_11_1307,2AFC_task,59.96994303116421,
stimuli/rgb_scene000196_render000001.png,stimuli/rgb_scene000196_render000003.png,0,129,129,196,"[1, 0]",left,1,33,33,m,y,y,2019_Jul_11_1307,2AFC_task,59.96994303116421,
stimuli/rgb_scene000196_render000000.png,stimuli/rgb_scene000196_render000004.png,0,130,130,192,"[1, 0]",left,1,33,33,m,y,y,2019_Jul_11_1307,2AFC_task,59.96994303116421,
stimuli/rgb_scene000056_render000002.png,stimuli/rgb_scene000056_render000006.png,0,131,131,56,"[0, 1]",right,1,33,33,m,y,y,2019_Jul_11_1307,2AFC_task,59.96994303116421,
stimuli/rgb_scene000147_render000000.png,stimuli/rgb_scene000147_render000001.png,0,132,132,84,"[0, 1]",right,1,33,33,m,y,y,2019_Jul_11_1307,2AFC_task,59.96994303116421,
stimuli/rgb_scene000196_render000003.png,stimuli/rgb_scene000196_render000004.png,0,133,133,204,"[1, 0]",right,0,33,33,m,y,y,2019_Jul_11_1307,2AFC_task,59.96994303116421,
stimuli/rgb_scene000150_render000003.png,stimuli/rgb_scene000150_render000006.png,0,134,134,122,"[0, 1]",right,1,33,33,m,y,y,2019_Jul_11_1307,2AFC_task,59.96994303116421,
stimuli/rgb_scene000042_render000002.png,stimuli/rgb_scene000042_render000005.png,0,135,135,13,"[1, 0]",left,1,33,33,m,y,y,2019_Jul_11_1307,2AFC_task,59.96994303116421,
stimuli/rgb_scene000056_render000002.png,stimuli/rgb_scene000056_render000004.png,0,136,136,54,"[1, 0]",left,1,33,33,m,y,y,2019_Jul_11_1307,2AFC_task,59.96994303116421,
stimuli/rgb_scene000047_render000001.png,stimuli/rgb_scene000047_render000003.png,0,137,137,28,"[1, 0]",left,1,33,33,m,y,y,2019_Jul_11_1307,2AFC_task,59.96994303116421,
stimuli/rgb_scene000196_render000003.png,stimuli/rgb_scene000196_render000005.png,0,138,138,205,"[1, 0]",right,0,33,33,m,y,y,2019_Jul_11_1307,2AFC_task,59.96994303116421,
stimuli/rgb_scene000056_render000003.png,stimuli/rgb_scene000056_render000006.png,0,139,139,59,"[0, 1]",right,1,33,33,m,y,y,2019_Jul_11_1307,2AFC_task,59.96994303116421,
stimuli/rgb_scene000147_render000002.png,stimuli/rgb_scene000147_render000006.png,0,140,140,98,"[0, 1]",right,1,33,33,m,y,y,2019_Jul_11_1307,2AFC_task,59.96994303116421,
stimuli/rgb_scene000160_render000005.png,stimuli/rgb_scene000160_render000006.png,0,141,141,146,"[0, 1]",right,1,33,33,m,y,y,2019_Jul_11_1307,2AFC_task,59.96994303116421,
stimuli/rgb_scene000047_render000005.png,stimuli/rgb_scene000047_render000006.png,0,142,142,41,"[1, 0]",left,1,33,33,m,y,y,2019_Jul_11_1307,2AFC_task,59.96994303116421,
stimuli/rgb_scene000066_render000003.png,stimuli/rgb_scene000066_render000006.png,0,143,143,80,"[0, 1]",right,1,33,33,m,y,y,2019_Jul_11_1307,2AFC_task,59.96994303116421,
stimuli/rgb_scene000042_render000003.png,stimuli/rgb_scene000042_render000006.png,0,144,144,17,"[0, 1]",right,1,33,33,m,y,y,2019_Jul_11_1307,2AFC_task,59.96994303116421,
stimuli/rgb_scene000196_render000001.png,stimuli/rgb_scene000196_render000004.png,0,145,145,197,"[1, 0]",left,1,33,33,m,y,y,2019_Jul_11_1307,2AFC_task,59.96994303116421,
stimuli/rgb_scene000150_render000001.png,stimuli/rgb_scene000150_render000002.png,0,146,146,111,"[1, 0]",left,1,33,33,m,y,y,2019_Jul_11_1307,2AFC_task,59.96994303116421,
stimuli/rgb_scene000160_render000000.png,stimuli/rgb_scene000160_render000004.png,0,147,147,129,"[1, 0]",left,1,33,33,m,y,y,2019_Jul_11_1307,2AFC_task,59.96994303116421,
stimuli/rgb_scene000066_render000000.png,stimuli/rgb_scene000066_render000003.png,0,148,148,65,"[1, 0]",left,1,33,33,m,y,y,2019_Jul_11_1307,2AFC_task,59.96994303116421,
stimuli/rgb_scene000047_render000002.png,stimuli/rgb_scene000047_render000004.png,0,149,149,33,"[0, 1]",right,1,33,33,m,y,y,2019_Jul_11_1307,2AFC_task,59.96994303116421,
stimuli/rgb_scene000150_render000002.png,stimuli/rgb_scene000150_render000003.png,0,150,150,116,"[1, 0]",left,1,33,33,m,y,y,2019_Jul_11_1307,2AFC_task,59.96994303116421,
stimuli/rgb_scene000165_render000001.png,stimuli/rgb_scene000165_render000002.png,0,151,151,153,"[1, 0]",right,0,33,33,m,y,y,2019_Jul_11_1307,2AFC_task,59.96994303116421,
stimuli/rgb_scene000042_render000000.png,stimuli/rgb_scene000042_render000002.png,0,152,152,1,"[1, 0]",left,1,33,33,m,y,y,2019_Jul_11_1307,2AFC_task,59.96994303116421,
stimuli/rgb_scene000066_render000000.png,stimuli/rgb_scene000066_render000002.png,0,153,153,64,"[1, 0]",left,1,33,33,m,y,y,2019_Jul_11_1307,2AFC_task,59.96994303116421,
stimuli/rgb_scene000047_render000003.png,stimuli/rgb_scene000047_render000006.png,0,154,154,38,"[0, 1]",right,1,33,33,m,y,y,2019_Jul_11_1307,2AFC_task,59.96994303116421,
stimuli/rgb_scene000047_render000001.png,stimuli/rgb_scene000047_render000004.png,0,155,155,29,"[1, 0]",left,1,33,33,m,y,y,2019_Jul_11_1307,2AFC_task,59.96994303116421,
stimuli/rgb_scene000160_render000001.png,stimuli/rgb_scene000160_render000002.png,0,156,156,132,"[0, 1]",right,1,33,33,m,y,y,2019_Jul_11_1307,2AFC_task,59.96994303116421,
stimuli/rgb_scene000169_render000001.png,stimuli/rgb_scene000169_render000003.png,0,157,157,175,"[1, 0]",right,0,33,33,m,y,y,2019_Jul_11_1307,2AFC_task,59.96994303116421,
stimuli/rgb_scene000165_render000000.png,stimuli/rgb_scene000165_render000003.png,0,158,158,149,"[1, 0]",left,1,33,33,m,y,y,2019_Jul_11_1307,2AFC_task,59.96994303116421,
stimuli/rgb_scene000056_render000001.png,stimuli/rgb_scene000056_render000004.png,0,159,159,50,"[0, 1]",right,1,33,33,m,y,y,2019_Jul_11_1307,2AFC_task,59.96994303116421,
stimuli/rgb_scene000196_render000002.png,stimuli/rgb_scene000196_render000006.png,0,160,160,203,"[1, 0]",right,0,33,33,m,y,y,2019_Jul_11_1307,2AFC_task,59.96994303116421,
stimuli/rgb_scene000056_render000000.png,stimuli/rgb_scene000056_render000005.png,0,161,161,46,"[0, 1]",right,1,33,33,m,y,y,2019_Jul_11_1307,2AFC_task,59.96994303116421,
stimuli/rgb_scene000160_render000004.png,stimuli/rgb_scene000160_render000006.png,0,162,162,145,"[0, 1]",right,1,33,33,m,y,y,2019_Jul_11_1307,2AFC_task,59.96994303116421,
stimuli/rgb_scene000056_render000001.png,stimuli/rgb_scene000056_render000006.png,0,163,163,52,"[1, 0]",left,1,33,33,m,y,y,2019_Jul_11_1307,2AFC_task,59.96994303116421,
stimuli/rgb_scene000169_render000003.png,stimuli/rgb_scene000169_render000004.png,0,164,164,183,"[1, 0]",right,0,33,33,m,y,y,2019_Jul_11_1307,2AFC_task,59.96994303116421,
stimuli/rgb_scene000196_render000004.png,stimuli/rgb_scene000196_render000006.png,0,165,165,208,"[1, 0]",right,0,33,33,m,y,y,2019_Jul_11_1307,2AFC_task,59.96994303116421,
stimuli/rgb_scene000066_render000000.png,stimuli/rgb_scene000066_render000006.png,0,166,166,68,"[0, 1]",right,1,33,33,m,y,y,2019_Jul_11_1307,2AFC_task,59.96994303116421,
stimuli/rgb_scene000165_render000005.png,stimuli/rgb_scene000165_render000006.png,0,167,167,167,"[1, 0]",left,1,33,33,m,y,y,2019_Jul_11_1307,2AFC_task,59.96994303116421,
stimuli/rgb_scene000160_render000000.png,stimuli/rgb_scene000160_render000003.png,0,168,168,128,"[1, 0]",left,1,33,33,m,y,y,2019_Jul_11_1307,2AFC_task,59.96994303116421,
stimuli/rgb_scene000066_render000005.png,stimuli/rgb_scene000066_render000006.png,0,169,169,83,"[0, 1]",right,1,33,33,m,y,y,2019_Jul_11_1307,2AFC_task,59.96994303116421,
stimuli/rgb_scene000056_render000000.png,stimuli/rgb_scene000056_render000004.png,0,170,170,45,"[1, 0]",left,1,33,33,m,y,y,2019_Jul_11_1307,2AFC_task,59.96994303116421,
stimuli/rgb_scene000056_render000001.png,stimuli/rgb_scene000056_render000005.png,0,171,171,51,"[0, 1]",right,1,33,33,m,y,y,2019_Jul_11_1307,2AFC_task,59.96994303116421,
stimuli/rgb_scene000047_render000003.png,stimuli/rgb_scene000047_render000004.png,0,172,172,36,"[1, 0]",left,1,33,33,m,y,y,2019_Jul_11_1307,2AFC_task,59.96994303116421,
stimuli/rgb_scene000150_render000001.png,stimuli/rgb_scene000150_render000004.png,0,173,173,113,"[1, 0]",left,1,33,33,m,y,y,2019_Jul_11_1307,2AFC_task,59.96994303116421,
stimuli/rgb_scene000150_render000000.png,stimuli/rgb_scene000150_render000004.png,0,174,174,108,"[0, 1]",right,1,33,33,m,y,y,2019_Jul_11_1307,2AFC_task,59.96994303116421,
stimuli/rgb_scene000160_render000001.png,stimuli/rgb_scene000160_render000006.png,0,175,175,136,"[1, 0]",left,1,33,33,m,y,y,2019_Jul_11_1307,2AFC_task,59.96994303116421,
stimuli/rgb_scene000066_render000001.png,stimuli/rgb_scene000066_render000003.png,0,176,176,70,"[1, 0]",left,1,33,33,m,y,y,2019_Jul_11_1307,2AFC_task,59.96994303116421,
stimuli/rgb_scene000160_render000004.png,stimuli/rgb_scene000160_render000005.png,0,177,177,144,"[1, 0]",left,1,33,33,m,y,y,2019_Jul_11_1307,2AFC_task,59.96994303116421,
stimuli/rgb_scene000169_render000000.png,stimuli/rgb_scene000169_render000006.png,0,178,178,173,"[1, 0]",right,0,33,33,m,y,y,2019_Jul_11_1307,2AFC_task,59.96994303116421,
stimuli/rgb_scene000066_render000002.png,stimuli/rgb_scene000066_render000006.png,0,179,179,77,"[1, 0]",left,1,33,33,m,y,y,2019_Jul_11_1307,2AFC_task,59.96994303116421,
stimuli/rgb_scene000056_render000000.png,stimuli/rgb_scene000056_render000003.png,0,180,180,44,"[0, 1]",right,1,33,33,m,y,y,2019_Jul_11_1307,2AFC_task,59.96994303116421,
stimuli/rgb_scene000160_render000003.png,stimuli/rgb_scene000160_render000005.png,0,181,181,142,"[1, 0]",left,1,33,33,m,y,y,2019_Jul_11_1307,2AFC_task,59.96994303116421,
stimuli/rgb_scene000160_render000002.png,stimuli/rgb_scene000160_render000003.png,0,182,182,137,"[1, 0]",left,1,33,33,m,y,y,2019_Jul_11_1307,2AFC_task,59.96994303116421,
stimuli/rgb_scene000066_render000001.png,stimuli/rgb_scene000066_render000004.png,0,183,183,71,"[0, 1]",right,1,33,33,m,y,y,2019_Jul_11_1307,2AFC_task,59.96994303116421,
stimuli/rgb_scene000047_render000000.png,stimuli/rgb_scene000047_render000006.png,0,184,184,26,"[1, 0]",left,1,33,33,m,y,y,2019_Jul_11_1307,2AFC_task,59.96994303116421,
stimuli/rgb_scene000165_render000002.png,stimuli/rgb_scene000165_render000005.png,0,185,185,160,"[1, 0]",left,1,33,33,m,y,y,2019_Jul_11_1307,2AFC_task,59.96994303116421,
stimuli/rgb_scene000160_render000002.png,stimuli/rgb_scene000160_render000005.png,0,186,186,139,"[0, 1]",right,1,33,33,m,y,y,2019_Jul_11_1307,2AFC_task,59.96994303116421,
stimuli/rgb_scene000056_render000003.png,stimuli/rgb_scene000056_render000005.png,0,187,187,58,"[0, 1]",right,1,33,33,m,y,y,2019_Jul_11_1307,2AFC_task,59.96994303116421,
stimuli/rgb_scene000165_render000001.png,stimuli/rgb_scene000165_render000005.png,0,188,188,156,"[1, 0]",left,1,33,33,m,y,y,2019_Jul_11_1307,2AFC_task,59.96994303116421,
stimuli/rgb_scene000150_render000004.png,stimuli/rgb_scene000150_render000006.png,0,189,189,124,"[1, 0]",right,0,33,33,m,y,y,2019_Jul_11_1307,2AFC_task,59.96994303116421,
stimuli/rgb_scene000150_render000000.png,stimuli/rgb_scene000150_render000002.png,0,190,190,106,"[0, 1]",right,1,33,33,m,y,y,2019_Jul_11_1307,2AFC_task,59.96994303116421,
stimuli/rgb_scene000196_render000000.png,stimuli/rgb_scene000196_render000005.png,0,191,191,193,"[0, 1]",right,1,33,33,m,y,y,2019_Jul_11_1307,2AFC_task,59.96994303116421,
stimuli/rgb_scene000042_render000001.png,stimuli/rgb_scene000042_render000006.png,0,192,192,10,"[1, 0]",left,1,33,33,m,y,y,2019_Jul_11_1307,2AFC_task,59.96994303116421,
stimuli/rgb_scene000160_render000003.png,stimuli/rgb_scene000160_render000006.png,0,193,193,143,"[1, 0]",left,1,33,33,m,y,y,2019_Jul_11_1307,2AFC_task,59.96994303116421,
stimuli/rgb_scene000150_render000003.png,stimuli/rgb_scene000150_render000005.png,0,194,194,121,"[1, 0]",left,1,33,33,m,y,y,2019_Jul_11_1307,2AFC_task,59.96994303116421,
stimuli/rgb_scene000066_render000001.png,stimuli/rgb_scene000066_render000002.png,0,195,195,69,"[0, 1]",right,1,33,33,m,y,y,2019_Jul_11_1307,2AFC_task,59.96994303116421,
stimuli/rgb_scene000196_render000000.png,stimuli/rgb_scene000196_render000006.png,0,196,196,194,"[0, 1]",right,1,33,33,m,y,y,2019_Jul_11_1307,2AFC_task,59.96994303116421,
stimuli/rgb_scene000042_render000004.png,stimuli/rgb_scene000042_render000005.png,0,197,197,18,"[1, 0]",left,1,33,33,m,y,y,2019_Jul_11_1307,2AFC_task,59.96994303116421,
stimuli/rgb_scene000066_render000004.png,stimuli/rgb_scene000066_render000005.png,0,198,198,81,"[0, 1]",right,1,33,33,m,y,y,2019_Jul_11_1307,2AFC_task,59.96994303116421,
stimuli/rgb_scene000066_render000003.png,stimuli/rgb_scene000066_render000005.png,0,199,199,79,"[0, 1]",right,1,33,33,m,y,y,2019_Jul_11_1307,2AFC_task,59.96994303116421,
stimuli/rgb_scene000160_render000002.png,stimuli/rgb_scene000160_render000004.png,0,200,200,138,"[0, 1]",right,1,33,33,m,y,y,2019_Jul_11_1307,2AFC_task,59.96994303116421,
stimuli/rgb_scene000165_render000003.png,stimuli/rgb_scene000165_render000004.png,0,201,201,162,"[1, 0]",left,1,33,33,m,y,y,2019_Jul_11_1307,2AFC_task,59.96994303116421,
stimuli/rgb_scene000196_render000001.png,stimuli/rgb_scene000196_render000002.png,0,202,202,195,"[0, 1]",right,1,33,33,m,y,y,2019_Jul_11_1307,2AFC_task,59.96994303116421,
stimuli/rgb_scene000196_render000004.png,stimuli/rgb_scene000196_render000005.png,0,203,203,207,"[0, 1]",left,0,33,33,m,y,y,2019_Jul_11_1307,2AFC_task,59.96994303116421,
stimuli/rgb_scene000042_render000000.png,stimuli/rgb_scene000042_render000005.png,0,204,204,4,"[0, 1]",right,1,33,33,m,y,y,2019_Jul_11_1307,2AFC_task,59.96994303116421,
stimuli/rgb_scene000165_render000002.png,stimuli/rgb_scene000165_render000003.png,0,205,205,158,"[1, 0]",left,1,33,33,m,y,y,2019_Jul_11_1307,2AFC_task,59.96994303116421,
stimuli/rgb_scene000042_render000000.png,stimuli/rgb_scene000042_render000006.png,0,206,206,5,"[0, 1]",right,1,33,33,m,y,y,2019_Jul_11_1307,2AFC_task,59.96994303116421,
stimuli/rgb_scene000165_render000000.png,stimuli/rgb_scene000165_render000002.png,0,207,207,148,"[0, 1]",right,1,33,33,m,y,y,2019_Jul_11_1307,2AFC_task,59.96994303116421,
stimuli/rgb_scene000047_render000000.png,stimuli/rgb_scene000047_render000005.png,0,208,208,25,"[1, 0]",left,1,33,33,m,y,y,2019_Jul_11_1307,2AFC_task,59.96994303116421,
stimuli/rgb_scene000150_render000001.png,stimuli/rgb_scene000150_render000005.png,0,209,209,114,"[1, 0]",left,1,33,33,m,y,y,2019_Jul_11_1307,2AFC_task,59.96994303116421,
stimuli/rgb_scene000196_render000000.png,stimuli/rgb_scene000196_render000004.png,1,0,210,192,"[0, 1]",right,1,33,33,m,y,y,2019_Jul_11_1307,2AFC_task,59.96994303116421,
stimuli/rgb_scene000169_render000000.png,stimuli/rgb_scene000169_render000005.png,1,1,211,172,"[0, 1]",left,0,33,33,m,y,y,2019_Jul_11_1307,2AFC_task,59.96994303116421,
stimuli/rgb_scene000056_render000002.png,stimuli/rgb_scene000056_render000005.png,1,2,212,55,"[1, 0]",left,1,33,33,m,y,y,2019_Jul_11_1307,2AFC_task,59.96994303116421,
stimuli/rgb_scene000196_render000001.png,stimuli/rgb_scene000196_render000004.png,1,3,213,197,"[0, 1]",right,1,33,33,m,y,y,2019_Jul_11_1307,2AFC_task,59.96994303116421,
stimuli/rgb_scene000160_render000003.png,stimuli/rgb_scene000160_render000004.png,1,4,214,141,"[1, 0]",left,1,33,33,m,y,y,2019_Jul_11_1307,2AFC_task,59.96994303116421,
stimuli/rgb_scene000165_render000003.png,stimuli/rgb_scene000165_render000005.png,1,5,215,163,"[1, 0]",left,1,33,33,m,y,y,2019_Jul_11_1307,2AFC_task,59.96994303116421,
stimuli/rgb_scene000066_render000001.png,stimuli/rgb_scene000066_render000004.png,1,6,216,71,"[0, 1]",right,1,33,33,m,y,y,2019_Jul_11_1307,2AFC_task,59.96994303116421,
stimuli/rgb_scene000147_render000001.png,stimuli/rgb_scene000147_render000004.png,1,7,217,92,"[1, 0]",left,1,33,33,m,y,y,2019_Jul_11_1307,2AFC_task,59.96994303116421,
stimuli/rgb_scene000165_render000000.png,stimuli/rgb_scene000165_render000006.png,1,8,218,152,"[1, 0]",left,1,33,33,m,y,y,2019_Jul_11_1307,2AFC_task,59.96994303116421,
stimuli/rgb_scene000147_render000000.png,stimuli/rgb_scene000147_render000006.png,1,9,219,89,"[0, 1]",right,1,33,33,m,y,y,2019_Jul_11_1307,2AFC_task,59.96994303116421,
stimuli/rgb_scene000160_render000000.png,stimuli/rgb_scene000160_render000004.png,1,10,220,129,"[1, 0]",left,1,33,33,m,y,y,2019_Jul_11_1307,2AFC_task,59.96994303116421,
stimuli/rgb_scene000150_render000001.png,stimuli/rgb_scene000150_render000004.png,1,11,221,113,"[0, 1]",right,1,33,33,m,y,y,2019_Jul_11_1307,2AFC_task,59.96994303116421,
stimuli/rgb_scene000047_render000000.png,stimuli/rgb_scene000047_render000006.png,1,12,222,26,"[0, 1]",right,1,33,33,m,y,y,2019_Jul_11_1307,2AFC_task,59.96994303116421,
stimuli/rgb_scene000066_render000003.png,stimuli/rgb_scene000066_render000005.png,1,13,223,79,"[0, 1]",right,1,33,33,m,y,y,2019_Jul_11_1307,2AFC_task,59.96994303116421,
stimuli/rgb_scene000169_render000004.png,stimuli/rgb_scene000169_render000005.png,1,14,224,186,"[0, 1]",right,1,33,33,m,y,y,2019_Jul_11_1307,2AFC_task,59.96994303116421,
stimuli/rgb_scene000196_render000001.png,stimuli/rgb_scene000196_render000006.png,1,15,225,199,"[1, 0]",right,0,33,33,m,y,y,2019_Jul_11_1307,2AFC_task,59.96994303116421,
stimuli/rgb_scene000042_render000001.png,stimuli/rgb_scene000042_render000003.png,1,16,226,7,"[0, 1]",right,1,33,33,m,y,y,2019_Jul_11_1307,2AFC_task,59.96994303116421,
stimuli/rgb_scene000160_render000001.png,stimuli/rgb_scene000160_render000003.png,1,17,227,133,"[1, 0]",left,1,33,33,m,y,y,2019_Jul_11_1307,2AFC_task,59.96994303116421,
stimuli/rgb_scene000169_render000000.png,stimuli/rgb_scene000169_render000004.png,1,18,228,171,"[0, 1]",left,0,33,33,m,y,y,2019_Jul_11_1307,2AFC_task,59.96994303116421,
stimuli/rgb_scene000150_render000001.png,stimuli/rgb_scene000150_render000005.png,1,19,229,114,"[0, 1]",right,1,33,33,m,y,y,2019_Jul_11_1307,2AFC_task,59.96994303116421,
stimuli/rgb_scene000165_render000005.png,stimuli/rgb_scene000165_render000006.png,1,20,230,167,"[0, 1]",right,1,33,33,m,y,y,2019_Jul_11_1307,2AFC_task,59.96994303116421,
stimuli/rgb_scene000047_render000002.png,stimuli/rgb_scene000047_render000004.png,1,21,231,33,"[0, 1]",right,1,33,33,m,y,y,2019_Jul_11_1307,2AFC_task,59.96994303116421,
stimuli/rgb_scene000147_render000001.png,stimuli/rgb_scene000147_render000002.png,1,22,232,90,"[1, 0]",right,0,33,33,m,y,y,2019_Jul_11_1307,2AFC_task,59.96994303116421,
stimuli/rgb_scene000196_render000000.png,stimuli/rgb_scene000196_render000003.png,1,23,233,191,"[1, 0]",left,1,33,33,m,y,y,2019_Jul_11_1307,2AFC_task,59.96994303116421,
stimuli/rgb_scene000169_render000001.png,stimuli/rgb_scene000169_render000005.png,1,24,234,177,"[0, 1]",left,0,33,33,m,y,y,2019_Jul_11_1307,2AFC_task,59.96994303116421,
stimuli/rgb_scene000147_render000003.png,stimuli/rgb_scene000147_render000006.png,1,25,235,101,"[1, 0]",left,1,33,33,m,y,y,2019_Jul_11_1307,2AFC_task,59.96994303116421,
stimuli/rgb_scene000160_render000002.png,stimuli/rgb_scene000160_render000006.png,1,26,236,140,"[1, 0]",left,1,33,33,m,y,y,2019_Jul_11_1307,2AFC_task,59.96994303116421,
stimuli/rgb_scene000147_render000002.png,stimuli/rgb_scene000147_render000005.png,1,27,237,97,"[1, 0]",left,1,33,33,m,y,y,2019_Jul_11_1307,2AFC_task,59.96994303116421,
stimuli/rgb_scene000066_render000003.png,stimuli/rgb_scene000066_render000006.png,1,28,238,80,"[1, 0]",left,1,33,33,m,y,y,2019_Jul_11_1307,2AFC_task,59.96994303116421,
stimuli/rgb_scene000147_render000004.png,stimuli/rgb_scene000147_render000006.png,1,29,239,103,"[1, 0]",left,1,33,33,m,y,y,2019_Jul_11_1307,2AFC_task,59.96994303116421,
stimuli/rgb_scene000047_render000003.png,stimuli/rgb_scene000047_render000006.png,1,30,240,38,"[0, 1]",right,1,33,33,m,y,y,2019_Jul_11_1307,2AFC_task,59.96994303116421,
stimuli/rgb_scene000160_render000004.png,stimuli/rgb_scene000160_render000006.png,1,31,241,145,"[0, 1]",right,1,33,33,m,y,y,2019_Jul_11_1307,2AFC_task,59.96994303116421,
stimuli/rgb_scene000169_render000001.png,stimuli/rgb_scene000169_render000002.png,1,32,242,174,"[1, 0]",right,0,33,33,m,y,y,2019_Jul_11_1307,2AFC_task,59.96994303116421,
stimuli/rgb_scene000047_render000003.png,stimuli/rgb_scene000047_render000005.png,1,33,243,37,"[0, 1]",right,1,33,33,m,y,y,2019_Jul_11_1307,2AFC_task,59.96994303116421,
stimuli/rgb_scene000160_render000003.png,stimuli/rgb_scene000160_render000005.png,1,34,244,142,"[0, 1]",right,1,33,33,m,y,y,2019_Jul_11_1307,2AFC_task,59.96994303116421,
stimuli/rgb_scene000047_render000000.png,stimuli/rgb_scene000047_render000003.png,1,35,245,23,"[1, 0]",left,1,33,33,m,y,y,2019_Jul_11_1307,2AFC_task,59.96994303116421,
stimuli/rgb_scene000160_render000001.png,stimuli/rgb_scene000160_render000002.png,1,36,246,132,"[0, 1]",right,1,33,33,m,y,y,2019_Jul_11_1307,2AFC_task,59.96994303116421,
stimuli/rgb_scene000056_render000000.png,stimuli/rgb_scene000056_render000003.png,1,37,247,44,"[0, 1]",right,1,33,33,m,y,y,2019_Jul_11_1307,2AFC_task,59.96994303116421,
stimuli/rgb_scene000047_render000002.png,stimuli/rgb_scene000047_render000005.png,1,38,248,34,"[1, 0]",left,1,33,33,m,y,y,2019_Jul_11_1307,2AFC_task,59.96994303116421,
stimuli/rgb_scene000150_render000000.png,stimuli/rgb_scene000150_render000003.png,1,39,249,107,"[0, 1]",right,1,33,33,m,y,y,2019_Jul_11_1307,2AFC_task,59.96994303116421,
stimuli/rgb_scene000056_render000000.png,stimuli/rgb_scene000056_render000006.png,1,40,250,47,"[0, 1]",right,1,33,33,m,y,y,2019_Jul_11_1307,2AFC_task,59.96994303116421,
stimuli/rgb_scene000066_render000001.png,stimuli/rgb_scene000066_render000005.png,1,41,251,72,"[1, 0]",left,1,33,33,m,y,y,2019_Jul_11_1307,2AFC_task,59.96994303116421,
stimuli/rgb_scene000165_render000002.png,stimuli/rgb_scene000165_render000004.png,1,42,252,159,"[1, 0]",left,1,33,33,m,y,y,2019_Jul_11_1307,2AFC_task,59.96994303116421,
stimuli/rgb_scene000047_render000001.png,stimuli/rgb_scene000047_render000004.png,1,43,253,29,"[1, 0]",left,1,33,33,m,y,y,2019_Jul_11_1307,2AFC_task,59.96994303116421,
stimuli/rgb_scene000160_render000003.png,stimuli/rgb_scene000160_render000006.png,1,44,254,143,"[0, 1]",right,1,33,33,m,y,y,2019_Jul_11_1307,2AFC_task,59.96994303116421,
stimuli/rgb_scene000196_render000002.png,stimuli/rgb_scene000196_render000004.png,1,45,255,201,"[1, 0]",right,0,33,33,m,y,y,2019_Jul_11_1307,2AFC_task,59.96994303116421,
stimuli/rgb_scene000042_render000003.png,stimuli/rgb_scene000042_render000005.png,1,46,256,16,"[0, 1]",right,1,33,33,m,y,y,2019_Jul_11_1307,2AFC_task,59.96994303116421,
stimuli/rgb_scene000150_render000002.png,stimuli/rgb_scene000150_render000004.png,1,47,257,117,"[1, 0]",left,1,33,33,m,y,y,2019_Jul_11_1307,2AFC_task,59.96994303116421,
stimuli/rgb_scene000066_render000000.png,stimuli/rgb_scene000066_render000005.png,1,48,258,67,"[1, 0]",left,1,33,33,m,y,y,2019_Jul_11_1307,2AFC_task,59.96994303116421,
stimuli/rgb_scene000169_render000000.png,stimuli/rgb_scene000169_render000001.png,1,49,259,168,"[0, 1]",right,1,33,33,m,y,y,2019_Jul_11_1307,2AFC_task,59.96994303116421,
stimuli/rgb_scene000150_render000002.png,stimuli/rgb_scene000150_render000003.png,1,50,260,116,"[0, 1]",right,1,33,33,m,y,y,2019_Jul_11_1307,2AFC_task,59.96994303116421,
stimuli/rgb_scene000150_render000000.png,stimuli/rgb_scene000150_render000005.png,1,51,261,109,"[0, 1]",right,1,33,33,m,y,y,2019_Jul_11_1307,2AFC_task,59.96994303116421,
stimuli/rgb_scene000056_render000002.png,stimuli/rgb_scene000056_render000003.png,1,52,262,53,"[1, 0]",left,1,33,33,m,y,y,2019_Jul_11_1307,2AFC_task,59.96994303116421,
stimuli/rgb_scene000147_render000003.png,stimuli/rgb_scene000147_render000004.png,1,53,263,99,"[0, 1]",right,1,33,33,m,y,y,2019_Jul_11_1307,2AFC_task,59.96994303116421,
stimuli/rgb_scene000056_render000003.png,stimuli/rgb_scene000056_render000004.png,1,54,264,57,"[1, 0]",left,1,33,33,m,y,y,2019_Jul_11_1307,2AFC_task,59.96994303116421,
stimuli/rgb_scene000160_render000001.png,stimuli/rgb_scene000160_render000004.png,1,55,265,134,"[0, 1]",right,1,33,33,m,y,y,2019_Jul_11_1307,2AFC_task,59.96994303116421,
stimuli/rgb_scene000196_render000005.png,stimuli/rgb_scene000196_render000006.png,1,56,266,209,"[0, 1]",left,0,33,33,m,y,y,2019_Jul_11_1307,2AFC_task,59.96994303116421,
stimuli/rgb_scene000169_render000002.png,stimuli/rgb_scene000169_render000004.png,1,57,267,180,"[1, 0]",right,0,33,33,m,y,y,2019_Jul_11_1307,2AFC_task,59.96994303116421,
stimuli/rgb_scene000169_render000000.png,stimuli/rgb_scene000169_render000003.png,1,58,268,170,"[1, 0]",right,0,33,33,m,y,y,2019_Jul_11_1307,2AFC_task,59.96994303116421,
stimuli/rgb_scene000196_render000001.png,stimuli/rgb_scene000196_render000003.png,1,59,269,196,"[1, 0]",left,1,33,33,m,y,y,2019_Jul_11_1307,2AFC_task,59.96994303116421,
stimuli/rgb_scene000160_render000001.png,stimuli/rgb_scene000160_render000005.png,1,60,270,135,"[1, 0]",left,1,33,33,m,y,y,2019_Jul_11_1307,2AFC_task,59.96994303116421,
stimuli/rgb_scene000066_render000000.png,stimuli/rgb_scene000066_render000002.png,1,61,271,64,"[0, 1]",right,1,33,33,m,y,y,2019_Jul_11_1307,2AFC_task,59.96994303116421,
stimuli/rgb_scene000056_render000002.png,stimuli/rgb_scene000056_render000004.png,1,62,272,54,"[1, 0]",left,1,33,33,m,y,y,2019_Jul_11_1307,2AFC_task,59.96994303116421,
stimuli/rgb_scene000160_render000000.png,stimuli/rgb_scene000160_render000006.png,1,63,273,131,"[1, 0]",left,1,33,33,m,y,y,2019_Jul_11_1307,2AFC_task,59.96994303116421,
stimuli/rgb_scene000150_render000001.png,stimuli/rgb_scene000150_render000006.png,1,64,274,115,"[0, 1]",right,1,33,33,m,y,y,2019_Jul_11_1307,2AFC_task,59.96994303116421,
stimuli/rgb_scene000042_render000005.png,stimuli/rgb_scene000042_render000006.png,1,65,275,20,"[0, 1]",right,1,33,33,m,y,y,2019_Jul_11_1307,2AFC_task,59.96994303116421,
stimuli/rgb_scene000169_render000003.png,stimuli/rgb_scene000169_render000005.png,1,66,276,184,"[1, 0]",right,0,33,33,m,y,y,2019_Jul_11_1307,2AFC_task,59.96994303116421,
stimuli/rgb_scene000169_render000000.png,stimuli/rgb_scene000169_render000002.png,1,67,277,169,"[1, 0]",right,0,33,33,m,y,y,2019_Jul_11_1307,2AFC_task,59.96994303116421,
stimuli/rgb_scene000160_render000002.png,stimuli/rgb_scene000160_render000005.png,1,68,278,139,"[0, 1]",right,1,33,33,m,y,y,2019_Jul_11_1307,2AFC_task,59.96994303116421,
stimuli/rgb_scene000056_render000005.png,stimuli/rgb_scene000056_render000006.png,1,69,279,62,"[0, 1]",right,1,33,33,m,y,y,2019_Jul_11_1307,2AFC_task,59.96994303116421,
stimuli/rgb_scene000042_render000003.png,stimuli/rgb_scene000042_render000006.png,1,70,280,17,"[1, 0]",left,1,33,33,m,y,y,2019_Jul_11_1307,2AFC_task,59.96994303116421,
stimuli/rgb_scene000056_render000000.png,stimuli/rgb_scene000056_render000002.png,1,71,281,43,"[0, 1]",right,1,33,33,m,y,y,2019_Jul_11_1307,2AFC_task,59.96994303116421,
stimuli/rgb_scene000147_render000004.png,stimuli/rgb_scene000147_render000005.png,1,72,282,102,"[1, 0]",left,1,33,33,m,y,y,2019_Jul_11_1307,2AFC_task,59.96994303116421,
stimuli/rgb_scene000042_render000001.png,stimuli/rgb_scene000042_render000005.png,1,73,283,9,"[0, 1]",right,1,33,33,m,y,y,2019_Jul_11_1307,2AFC_task,59.96994303116421,
stimuli/rgb_scene000165_render000001.png,stimuli/rgb_scene000165_render000002.png,1,74,284,153,"[1, 0]",left,1,33,33,m,y,y,2019_Jul_11_1307,2AFC_task,59.96994303116421,
stimuli/rgb_scene000042_render000004.png,stimuli/rgb_scene000042_render000006.png,1,75,285,19,"[0, 1]",right,1,33,33,m,y,y,2019_Jul_11_1307,2AFC_task,59.96994303116421,
stimuli/rgb_scene000196_render000003.png,stimuli/rgb_scene000196_render000004.png,1,76,286,204,"[0, 1]",right,1,33,33,m,y,y,2019_Jul_11_1307,2AFC_task,59.96994303116421,
stimuli/rgb_scene000165_render000000.png,stimuli/rgb_scene000165_render000004.png,1,77,287,150,"[0, 1]",right,1,33,33,m,y,y,2019_Jul_11_1307,2AFC_task,59.96994303116421,
stimuli/rgb_scene000042_render000002.png,stimuli/rgb_scene000042_render000003.png,1,78,288,11,"[1, 0]",left,1,33,33,m,y,y,2019_Jul_11_1307,2AFC_task,59.96994303116421,
stimuli/rgb_scene000150_render000002.png,stimuli/rgb_scene000150_render000006.png,1,79,289,119,"[1, 0]",left,1,33,33,m,y,y,2019_Jul_11_1307,2AFC_task,59.96994303116421,
stimuli/rgb_scene000169_render000001.png,stimuli/rgb_scene000169_render000003.png,1,80,290,175,"[1, 0]",right,0,33,33,m,y,y,2019_Jul_11_1307,2AFC_task,59.96994303116421,
stimuli/rgb_scene000056_render000001.png,stimuli/rgb_scene000056_render000004.png,1,81,291,50,"[1, 0]",left,1,33,33,m,y,y,2019_Jul_11_1307,2AFC_task,59.96994303116421,
stimuli/rgb_scene000169_render000004.png,stimuli/rgb_scene000169_render000006.png,1,82,292,187,"[1, 0]",left,1,33,33,m,y,y,2019_Jul_11_1307,2AFC_task,59.96994303116421,
stimuli/rgb_scene000147_render000000.png,stimuli/rgb_scene000147_render000002.png,1,83,293,85,"[1, 0]",left,1,33,33,m,y,y,2019_Jul_11_1307,2AFC_task,59.96994303116421,
stimuli/rgb_scene000150_render000005.png,stimuli/rgb_scene000150_render000006.png,1,84,294,125,"[1, 0]",left,1,33,33,m,y,y,2019_Jul_11_1307,2AFC_task,59.96994303116421,
stimuli/rgb_scene000150_render000001.png,stimuli/rgb_scene000150_render000003.png,1,85,295,112,"[0, 1]",right,1,33,33,m,y,y,2019_Jul_11_1307,2AFC_task,59.96994303116421,
stimuli/rgb_scene000042_render000000.png,stimuli/rgb_scene000042_render000004.png,1,86,296,3,"[0, 1]",right,1,33,33,m,y,y,2019_Jul_11_1307,2AFC_task,59.96994303116421,
stimuli/rgb_scene000047_render000001.png,stimuli/rgb_scene000047_render000005.png,1,87,297,30,"[0, 1]",right,1,33,33,m,y,y,2019_Jul_11_1307,2AFC_task,59.96994303116421,
stimuli/rgb_scene000160_render000002.png,stimuli/rgb_scene000160_render000004.png,1,88,298,138,"[0, 1]",right,1,33,33,m,y,y,2019_Jul_11_1307,2AFC_task,59.96994303116421,
stimuli/rgb_scene000160_render000000.png,stimuli/rgb_scene000160_render000005.png,1,89,299,130,"[0, 1]",right,1,33,33,m,y,y,2019_Jul_11_1307,2AFC_task,59.96994303116421,
stimuli/rgb_scene000056_render000003.png,stimuli/rgb_scene000056_render000005.png,1,90,300,58,"[1, 0]",left,1,33,33,m,y,y,2019_Jul_11_1307,2AFC_task,59.96994303116421,
stimuli/rgb_scene000196_render000002.png,stimuli/rgb_scene000196_render000006.png,1,91,301,203,"[0, 1]",left,0,33,33,m,y,y,2019_Jul_11_1307,2AFC_task,59.96994303116421,
stimuli/rgb_scene000042_render000003.png,stimuli/rgb_scene000042_render000004.png,1,92,302,15,"[0, 1]",right,1,33,33,m,y,y,2019_Jul_11_1307,2AFC_task,59.96994303116421,
stimuli/rgb_scene000066_render000002.png,stimuli/rgb_scene000066_render000003.png,1,93,303,74,"[0, 1]",right,1,33,33,m,y,y,2019_Jul_11_1307,2AFC_task,59.96994303116421,
stimuli/rgb_scene000160_render000005.png,stimuli/rgb_scene000160_render000006.png,1,94,304,146,"[1, 0]",left,1,33,33,m,y,y,2019_Jul_11_1307,2AFC_task,59.96994303116421,
stimuli/rgb_scene000160_render000000.png,stimuli/rgb_scene000160_render000002.png,1,95,305,127,"[1, 0]",left,1,33,33,m,y,y,2019_Jul_11_1307,2AFC_task,59.96994303116421,
stimuli/rgb_scene000165_render000000.png,stimuli/rgb_scene000165_render000002.png,1,96,306,148,"[0, 1]",right,1,33,33,m,y,y,2019_Jul_11_1307,2AFC_task,59.96994303116421,
stimuli/rgb_scene000150_render000003.png,stimuli/rgb_scene000150_render000004.png,1,97,307,120,"[1, 0]",left,1,33,33,m,y,y,2019_Jul_11_1307,2AFC_task,59.96994303116421,
stimuli/rgb_scene000196_render000004.png,stimuli/rgb_scene000196_render000006.png,1,98,308,208,"[1, 0]",right,0,33,33,m,y,y,2019_Jul_11_1307,2AFC_task,59.96994303116421,
stimuli/rgb_scene000042_render000001.png,stimuli/rgb_scene000042_render000002.png,1,99,309,6,"[1, 0]",left,1,33,33,m,y,y,2019_Jul_11_1307,2AFC_task,59.96994303116421,
stimuli/rgb_scene000042_render000000.png,stimuli/rgb_scene000042_render000001.png,1,100,310,0,"[0, 1]",right,1,33,33,m,y,y,2019_Jul_11_1307,2AFC_task,59.96994303116421,
stimuli/rgb_scene000147_render000000.png,stimuli/rgb_scene000147_render000003.png,1,101,311,86,"[0, 1]",right,1,33,33,m,y,y,2019_Jul_11_1307,2AFC_task,59.96994303116421,
stimuli/rgb_scene000066_render000002.png,stimuli/rgb_scene000066_render000005.png,1,102,312,76,"[0, 1]",right,1,33,33,m,y,y,2019_Jul_11_1307,2AFC_task,59.96994303116421,
stimuli/rgb_scene000066_render000001.png,stimuli/rgb_scene000066_render000002.png,1,103,313,69,"[0, 1]",right,1,33,33,m,y,y,2019_Jul_11_1307,2AFC_task,59.96994303116421,
stimuli/rgb_scene000047_render000000.png,stimuli/rgb_scene000047_render000002.png,1,104,314,22,"[0, 1]",right,1,33,33,m,y,y,2019_Jul_11_1307,2AFC_task,59.96994303116421,
stimuli/rgb_scene000066_render000002.png,stimuli/rgb_scene000066_render000006.png,1,105,315,77,"[1, 0]",left,1,33,33,m,y,y,2019_Jul_11_1307,2AFC_task,59.96994303116421,
stimuli/rgb_scene000047_render000002.png,stimuli/rgb_scene000047_render000006.png,1,106,316,35,"[0, 1]",right,1,33,33,m,y,y,2019_Jul_11_1307,2AFC_task,59.96994303116421,
stimuli/rgb_scene000056_render000001.png,stimuli/rgb_scene000056_render000002.png,1,107,317,48,"[1, 0]",left,1,33,33,m,y,y,2019_Jul_11_1307,2AFC_task,59.96994303116421,
stimuli/rgb_scene000047_render000001.png,stimuli/rgb_scene000047_render000006.png,1,108,318,31,"[1, 0]",left,1,33,33,m,y,y,2019_Jul_11_1307,2AFC_task,59.96994303116421,
stimuli/rgb_scene000147_render000001.png,stimuli/rgb_scene000147_render000006.png,1,109,319,94,"[0, 1]",right,1,33,33,m,y,y,2019_Jul_11_1307,2AFC_task,59.96994303116421,
stimuli/rgb_scene000165_render000004.png,stimuli/rgb_scene000165_render000006.png,1,110,320,166,"[0, 1]",right,1,33,33,m,y,y,2019_Jul_11_1307,2AFC_task,59.96994303116421,
stimuli/rgb_scene000047_render000000.png,stimuli/rgb_scene000047_render000005.png,1,111,321,25,"[1, 0]",left,1,33,33,m,y,y,2019_Jul_11_1307,2AFC_task,59.96994303116421,
stimuli/rgb_scene000160_render000000.png,stimuli/rgb_scene000160_render000001.png,1,112,322,126,"[0, 1]",right,1,33,33,m,y,y,2019_Jul_11_1307,2AFC_task,59.96994303116421,
stimuli/rgb_scene000056_render000003.png,stimuli/rgb_scene000056_render000006.png,1,113,323,59,"[1, 0]",left,1,33,33,m,y,y,2019_Jul_11_1307,2AFC_task,59.96994303116421,
stimuli/rgb_scene000150_render000000.png,stimuli/rgb_scene000150_render000006.png,1,114,324,110,"[0, 1]",right,1,33,33,m,y,y,2019_Jul_11_1307,2AFC_task,59.96994303116421,
stimuli/rgb_scene000047_render000002.png,stimuli/rgb_scene000047_render000003.png,1,115,325,32,"[0, 1]",right,1,33,33,m,y,y,2019_Jul_11_1307,2AFC_task,59.96994303116421,
stimuli/rgb_scene000147_render000002.png,stimuli/rgb_scene000147_render000003.png,1,116,326,95,"[1, 0]",left,1,33,33,m,y,y,2019_Jul_11_1307,2AFC_task,59.96994303116421,
stimuli/rgb_scene000160_render000000.png,stimuli/rgb_scene000160_render000003.png,1,117,327,128,"[1, 0]",left,1,33,33,m,y,y,2019_Jul_11_1307,2AFC_task,59.96994303116421,
stimuli/rgb_scene000165_render000000.png,stimuli/rgb_scene000165_render000003.png,1,118,328,149,"[1, 0]",left,1,33,33,m,y,y,2019_Jul_11_1307,2AFC_task,59.96994303116421,
stimuli/rgb_scene000165_render000000.png,stimuli/rgb_scene000165_render000001.png,1,119,329,147,"[1, 0]",left,1,33,33,m,y,y,2019_Jul_11_1307,2AFC_task,59.96994303116421,
stimuli/rgb_scene000165_render000001.png,stimuli/rgb_scene000165_render000003.png,1,120,330,154,"[1, 0]",left,1,33,33,m,y,y,2019_Jul_11_1307,2AFC_task,59.96994303116421,
stimuli/rgb_scene000066_render000000.png,stimuli/rgb_scene000066_render000004.png,1,121,331,66,"[1, 0]",left,1,33,33,m,y,y,2019_Jul_11_1307,2AFC_task,59.96994303116421,
stimuli/rgb_scene000169_render000002.png,stimuli/rgb_scene000169_render000003.png,1,122,332,179,"[0, 1]",left,0,33,33,m,y,y,2019_Jul_11_1307,2AFC_task,59.96994303116421,
stimuli/rgb_scene000047_render000003.png,stimuli/rgb_scene000047_render000004.png,1,123,333,36,"[1, 0]",left,1,33,33,m,y,y,2019_Jul_11_1307,2AFC_task,59.96994303116421,
stimuli/rgb_scene000147_render000001.png,stimuli/rgb_scene000147_render000003.png,1,124,334,91,"[1, 0]",left,1,33,33,m,y,y,2019_Jul_11_1307,2AFC_task,59.96994303116421,
stimuli/rgb_scene000150_render000001.png,stimuli/rgb_scene000150_render000002.png,1,125,335,111,"[1, 0]",left,1,33,33,m,y,y,2019_Jul_11_1307,2AFC_task,59.96994303116421,
stimuli/rgb_scene000147_render000002.png,stimuli/rgb_scene000147_render000004.png,1,126,336,96,"[0, 1]",right,1,33,33,m,y,y,2019_Jul_11_1307,2AFC_task,59.96994303116421,
stimuli/rgb_scene000169_render000001.png,stimuli/rgb_scene000169_render000006.png,1,127,337,178,"[1, 0]",right,0,33,33,m,y,y,2019_Jul_11_1307,2AFC_task,59.96994303116421,
stimuli/rgb_scene000042_render000000.png,stimuli/rgb_scene000042_render000006.png,1,128,338,5,"[0, 1]",right,1,33,33,m,y,y,2019_Jul_11_1307,2AFC_task,59.96994303116421,
stimuli/rgb_scene000196_render000001.png,stimuli/rgb_scene000196_render000005.png,1,129,339,198,"[0, 1]",right,1,33,33,m,y,y,2019_Jul_11_1307,2AFC_task,59.96994303116421,
stimuli/rgb_scene000066_render000001.png,stimuli/rgb_scene000066_render000006.png,1,130,340,73,"[1, 0]",left,1,33,33,m,y,y,2019_Jul_11_1307,2AFC_task,59.96994303116421,
stimuli/rgb_scene000056_render000001.png,stimuli/rgb_scene000056_render000003.png,1,131,341,49,"[0, 1]",right,1,33,33,m,y,y,2019_Jul_11_1307,2AFC_task,59.96994303116421,
stimuli/rgb_scene000150_render000003.png,stimuli/rgb_scene000150_render000005.png,1,132,342,121,"[0, 1]",right,1,33,33,m,y,y,2019_Jul_11_1307,2AFC_task,59.96994303116421,
stimuli/rgb_scene000066_render000004.png,stimuli/rgb_scene000066_render000005.png,1,133,343,81,"[0, 1]",right,1,33,33,m,y,y,2019_Jul_11_1307,2AFC_task,59.96994303116421,
stimuli/rgb_scene000147_render000000.png,stimuli/rgb_scene000147_render000001.png,1,134,344,84,"[1, 0]",left,1,33,33,m,y,y,2019_Jul_11_1307,2AFC_task,59.96994303116421,
stimuli/rgb_scene000160_render000004.png,stimuli/rgb_scene000160_render000005.png,1,135,345,144,"[0, 1]",right,1,33,33,m,y,y,2019_Jul_11_1307,2AFC_task,59.96994303116421,
stimuli/rgb_scene000165_render000003.png,stimuli/rgb_scene000165_render000006.png,1,136,346,164,"[0, 1]",right,1,33,33,m,y,y,2019_Jul_11_1307,2AFC_task,59.96994303116421,
stimuli/rgb_scene000066_render000001.png,stimuli/rgb_scene000066_render000003.png,1,137,347,70,"[1, 0]",left,1,33,33,m,y,y,2019_Jul_11_1307,2AFC_task,59.96994303116421,
stimuli/rgb_scene000056_render000000.png,stimuli/rgb_scene000056_render000004.png,1,138,348,45,"[0, 1]",right,1,33,33,m,y,y,2019_Jul_11_1307,2AFC_task,59.96994303116421,
stimuli/rgb_scene000042_render000001.png,stimuli/rgb_scene000042_render000006.png,1,139,349,10,"[1, 0]",left,1,33,33,m,y,y,2019_Jul_11_1307,2AFC_task,59.96994303116421,
stimuli/rgb_scene000042_render000001.png,stimuli/rgb_scene000042_render000004.png,1,140,350,8,"[0, 1]",right,1,33,33,m,y,y,2019_Jul_11_1307,2AFC_task,59.96994303116421,
stimuli/rgb_scene000196_render000001.png,stimuli/rgb_scene000196_render000002.png,1,141,351,195,"[1, 0]",left,1,33,33,m,y,y,2019_Jul_11_1307,2AFC_task,59.96994303116421,
stimuli/rgb_scene000047_render000004.png,stimuli/rgb_scene000047_render000005.png,1,142,352,39,"[1, 0]",left,1,33,33,m,y,y,2019_Jul_11_1307,2AFC_task,59.96994303116421,
stimuli/rgb_scene000169_render000003.png,stimuli/rgb_scene000169_render000006.png,1,143,353,185,"[1, 0]",right,0,33,33,m,y,y,2019_Jul_11_1307,2AFC_task,59.96994303116421,
stimuli/rgb_scene000066_render000002.png,stimuli/rgb_scene000066_render000004.png,1,144,354,75,"[0, 1]",right,1,33,33,m,y,y,2019_Jul_11_1307,2AFC_task,59.96994303116421,
stimuli/rgb_scene000169_render000001.png,stimuli/rgb_scene000169_render000004.png,1,145,355,176,"[0, 1]",left,0,33,33,m,y,y,2019_Jul_11_1307,2AFC_task,59.96994303116421,
stimuli/rgb_scene000147_render000002.png,stimuli/rgb_scene000147_render000006.png,1,146,356,98,"[1, 0]",left,1,33,33,m,y,y,2019_Jul_11_1307,2AFC_task,59.96994303116421,
stimuli/rgb_scene000047_render000001.png,stimuli/rgb_scene000047_render000003.png,1,147,357,28,"[1, 0]",left,1,33,33,m,y,y,2019_Jul_11_1307,2AFC_task,59.96994303116421,
stimuli/rgb_scene000165_render000001.png,stimuli/rgb_scene000165_render000005.png,1,148,358,156,"[0, 1]",right,1,33,33,m,y,y,2019_Jul_11_1307,2AFC_task,59.96994303116421,
stimuli/rgb_scene000169_render000002.png,stimuli/rgb_scene000169_render000006.png,1,149,359,182,"[1, 0]",right,0,33,33,m,y,y,2019_Jul_11_1307,2AFC_task,59.96994303116421,
stimuli/rgb_scene000196_render000000.png,stimuli/rgb_scene000196_render000002.png,1,150,360,190,"[0, 1]",right,1,33,33,m,y,y,2019_Jul_11_1307,2AFC_task,59.96994303116421,
stimuli/rgb_scene000150_render000004.png,stimuli/rgb_scene000150_render000005.png,1,151,361,123,"[0, 1]",left,0,33,33,m,y,y,2019_Jul_11_1307,2AFC_task,59.96994303116421,
stimuli/rgb_scene000165_render000002.png,stimuli/rgb_scene000165_render000006.png,1,152,362,161,"[1, 0]",left,1,33,33,m,y,y,2019_Jul_11_1307,2AFC_task,59.96994303116421,
stimuli/rgb_scene000047_render000000.png,stimuli/rgb_scene000047_render000004.png,1,153,363,24,"[0, 1]",right,1,33,33,m,y,y,2019_Jul_11_1307,2AFC_task,59.96994303116421,
stimuli/rgb_scene000160_render000002.png,stimuli/rgb_scene000160_render000003.png,1,154,364,137,"[1, 0]",left,1,33,33,m,y,y,2019_Jul_11_1307,2AFC_task,59.96994303116421,
stimuli/rgb_scene000147_render000000.png,stimuli/rgb_scene000147_render000004.png,1,155,365,87,"[1, 0]",left,1,33,33,m,y,y,2019_Jul_11_1307,2AFC_task,59.96994303116421,
stimuli/rgb_scene000042_render000002.png,stimuli/rgb_scene000042_render000006.png,1,156,366,14,"[0, 1]",right,1,33,33,m,y,y,2019_Jul_11_1307,2AFC_task,59.96994303116421,
stimuli/rgb_scene000066_render000003.png,stimuli/rgb_scene000066_render000004.png,1,157,367,78,"[1, 0]",left,1,33,33,m,y,y,2019_Jul_11_1307,2AFC_task,59.96994303116421,
stimuli/rgb_scene000147_render000003.png,stimuli/rgb_scene000147_render000005.png,1,158,368,100,"[0, 1]",right,1,33,33,m,y,y,2019_Jul_11_1307,2AFC_task,59.96994303116421,
stimuli/rgb_scene000056_render000001.png,stimuli/rgb_scene000056_render000006.png,1,159,369,52,"[0, 1]",right,1,33,33,m,y,y,2019_Jul_11_1307,2AFC_task,59.96994303116421,
stimuli/rgb_scene000047_render000000.png,stimuli/rgb_scene000047_render000001.png,1,160,370,21,"[0, 1]",right,1,33,33,m,y,y,2019_Jul_11_1307,2AFC_task,59.96994303116421,
stimuli/rgb_scene000150_render000004.png,stimuli/rgb_scene000150_render000006.png,1,161,371,124,"[1, 0]",right,0,33,33,m,y,y,2019_Jul_11_1307,2AFC_task,59.96994303116421,
stimuli/rgb_scene000165_render000002.png,stimuli/rgb_scene000165_render000003.png,1,162,372,158,"[1, 0]",left,1,33,33,m,y,y,2019_Jul_11_1307,2AFC_task,59.96994303116421,
stimuli/rgb_scene000150_render000000.png,stimuli/rgb_scene000150_render000001.png,1,163,373,105,"[1, 0]",left,1,33,33,m,y,y,2019_Jul_11_1307,2AFC_task,59.96994303116421,
stimuli/rgb_scene000196_render000000.png,stimuli/rgb_scene000196_render000006.png,1,164,374,194,"[1, 0]",right,0,33,33,m,y,y,2019_Jul_11_1307,2AFC_task,59.96994303116421,
stimuli/rgb_scene000066_render000000.png,stimuli/rgb_scene000066_render000006.png,1,165,375,68,"[1, 0]",left,1,33,33,m,y,y,2019_Jul_11_1307,2AFC_task,59.96994303116421,
stimuli/rgb_scene000066_render000000.png,stimuli/rgb_scene000066_render000003.png,1,166,376,65,"[0, 1]",right,1,33,33,m,y,y,2019_Jul_11_1307,2AFC_task,59.96994303116421,
stimuli/rgb_scene000047_render000005.png,stimuli/rgb_scene000047_render000006.png,1,167,377,41,"[1, 0]",left,1,33,33,m,y,y,2019_Jul_11_1307,2AFC_task,59.96994303116421,
stimuli/rgb_scene000196_render000003.png,stimuli/rgb_scene000196_render000005.png,1,168,378,205,"[0, 1]",left,0,33,33,m,y,y,2019_Jul_11_1307,2AFC_task,59.96994303116421,
stimuli/rgb_scene000165_render000001.png,stimuli/rgb_scene000165_render000004.png,1,169,379,155,"[1, 0]",left,1,33,33,m,y,y,2019_Jul_11_1307,2AFC_task,59.96994303116421,
stimuli/rgb_scene000196_render000003.png,stimuli/rgb_scene000196_render000006.png,1,170,380,206,"[1, 0]",right,0,33,33,m,y,y,2019_Jul_11_1307,2AFC_task,59.96994303116421,
stimuli/rgb_scene000066_render000000.png,stimuli/rgb_scene000066_render000001.png,1,171,381,63,"[1, 0]",left,1,33,33,m,y,y,2019_Jul_11_1307,2AFC_task,59.96994303116421,
stimuli/rgb_scene000147_render000005.png,stimuli/rgb_scene000147_render000006.png,1,172,382,104,"[0, 1]",right,1,33,33,m,y,y,2019_Jul_11_1307,2AFC_task,59.96994303116421,
stimuli/rgb_scene000042_render000002.png,stimuli/rgb_scene000042_render000005.png,1,173,383,13,"[0, 1]",right,1,33,33,m,y,y,2019_Jul_11_1307,2AFC_task,59.96994303116421,
stimuli/rgb_scene000047_render000001.png,stimuli/rgb_scene000047_render000002.png,1,174,384,27,"[0, 1]",right,1,33,33,m,y,y,2019_Jul_11_1307,2AFC_task,59.96994303116421,
stimuli/rgb_scene000196_render000004.png,stimuli/rgb_scene000196_render000005.png,1,175,385,207,"[1, 0]",right,0,33,33,m,y,y,2019_Jul_11_1307,2AFC_task,59.96994303116421,
stimuli/rgb_scene000056_render000004.png,stimuli/rgb_scene000056_render000005.png,1,176,386,60,"[1, 0]",left,1,33,33,m,y,y,2019_Jul_11_1307,2AFC_task,59.96994303116421,
stimuli/rgb_scene000147_render000000.png,stimuli/rgb_scene000147_render000005.png,1,177,387,88,"[1, 0]",left,1,33,33,m,y,y,2019_Jul_11_1307,2AFC_task,59.96994303116421,
stimuli/rgb_scene000150_render000002.png,stimuli/rgb_scene000150_render000005.png,1,178,388,118,"[0, 1]",right,1,33,33,m,y,y,2019_Jul_11_1307,2AFC_task,59.96994303116421,
stimuli/rgb_scene000169_render000000.png,stimuli/rgb_scene000169_render000006.png,1,179,389,173,"[0, 1]",left,0,33,33,m,y,y,2019_Jul_11_1307,2AFC_task,59.96994303116421,
stimuli/rgb_scene000056_render000002.png,stimuli/rgb_scene000056_render000006.png,1,180,390,56,"[1, 0]",left,1,33,33,m,y,y,2019_Jul_11_1307,2AFC_task,59.96994303116421,
stimuli/rgb_scene000165_render000001.png,stimuli/rgb_scene000165_render000006.png,1,181,391,157,"[1, 0]",left,1,33,33,m,y,y,2019_Jul_11_1307,2AFC_task,59.96994303116421,
stimuli/rgb_scene000056_render000000.png,stimuli/rgb_scene000056_render000001.png,1,182,392,42,"[0, 1]",left,0,33,33,m,y,y,2019_Jul_11_1307,2AFC_task,59.96994303116421,
stimuli/rgb_scene000169_render000005.png,stimuli/rgb_scene000169_render000006.png,1,183,393,188,"[1, 0]",right,0,33,33,m,y,y,2019_Jul_11_1307,2AFC_task,59.96994303116421,
stimuli/rgb_scene000150_render000000.png,stimuli/rgb_scene000150_render000002.png,1,184,394,106,"[1, 0]",left,1,33,33,m,y,y,2019_Jul_11_1307,2AFC_task,59.96994303116421,
stimuli/rgb_scene000165_render000000.png,stimuli/rgb_scene000165_render000005.png,1,185,395,151,"[1, 0]",left,1,33,33,m,y,y,2019_Jul_11_1307,2AFC_task,59.96994303116421,
stimuli/rgb_scene000042_render000000.png,stimuli/rgb_scene000042_render000003.png,1,186,396,2,"[1, 0]",left,1,33,33,m,y,y,2019_Jul_11_1307,2AFC_task,59.96994303116421,
stimuli/rgb_scene000150_render000000.png,stimuli/rgb_scene000150_render000004.png,1,187,397,108,"[0, 1]",right,1,33,33,m,y,y,2019_Jul_11_1307,2AFC_task,59.96994303116421,
stimuli/rgb_scene000042_render000000.png,stimuli/rgb_scene000042_render000002.png,1,188,398,1,"[0, 1]",right,1,33,33,m,y,y,2019_Jul_11_1307,2AFC_task,59.96994303116421,
stimuli/rgb_scene000169_render000003.png,stimuli/rgb_scene000169_render000004.png,1,189,399,183,"[0, 1]",right,1,33,33,m,y,y,2019_Jul_11_1307,2AFC_task,59.96994303116421,
stimuli/rgb_scene000196_render000002.png,stimuli/rgb_scene000196_render000003.png,1,190,400,200,"[0, 1]",right,1,33,33,m,y,y,2019_Jul_11_1307,2AFC_task,59.96994303116421,
stimuli/rgb_scene000196_render000002.png,stimuli/rgb_scene000196_render000005.png,1,191,401,202,"[1, 0]",right,0,33,33,m,y,y,2019_Jul_11_1307,2AFC_task,59.96994303116421,
stimuli/rgb_scene000147_render000001.png,stimuli/rgb_scene000147_render000005.png,1,192,402,93,"[1, 0]",left,1,33,33,m,y,y,2019_Jul_11_1307,2AFC_task,59.96994303116421,
stimuli/rgb_scene000165_render000004.png,stimuli/rgb_scene000165_render000005.png,1,193,403,165,"[1, 0]",left,1,33,33,m,y,y,2019_Jul_11_1307,2AFC_task,59.96994303116421,
stimuli/rgb_scene000042_render000000.png,stimuli/rgb_scene000042_render000005.png,1,194,404,4,"[1, 0]",left,1,33,33,m,y,y,2019_Jul_11_1307,2AFC_task,59.96994303116421,
stimuli/rgb_scene000066_render000005.png,stimuli/rgb_scene000066_render000006.png,1,195,405,83,"[0, 1]",right,1,33,33,m,y,y,2019_Jul_11_1307,2AFC_task,59.96994303116421,
stimuli/rgb_scene000066_render000004.png,stimuli/rgb_scene000066_render000006.png,1,196,406,82,"[1, 0]",left,1,33,33,m,y,y,2019_Jul_11_1307,2AFC_task,59.96994303116421,
stimuli/rgb_scene000196_render000000.png,stimuli/rgb_scene000196_render000005.png,1,197,407,193,"[1, 0]",right,0,33,33,m,y,y,2019_Jul_11_1307,2AFC_task,59.96994303116421,
stimuli/rgb_scene000169_render000002.png,stimuli/rgb_scene000169_render000005.png,1,198,408,181,"[0, 1]",left,0,33,33,m,y,y,2019_Jul_11_1307,2AFC_task,59.96994303116421,
stimuli/rgb_scene000047_render000004.png,stimuli/rgb_scene000047_render000006.png,1,199,409,40,"[1, 0]",left,1,33,33,m,y,y,2019_Jul_11_1307,2AFC_task,59.96994303116421,
stimuli/rgb_scene000165_render000002.png,stimuli/rgb_scene000165_render000005.png,1,200,410,160,"[1, 0]",left,1,33,33,m,y,y,2019_Jul_11_1307,2AFC_task,59.96994303116421,
stimuli/rgb_scene000042_render000004.png,stimuli/rgb_scene000042_render000005.png,1,201,411,18,"[1, 0]",left,1,33,33,m,y,y,2019_Jul_11_1307,2AFC_task,59.96994303116421,
stimuli/rgb_scene000056_render000000.png,stimuli/rgb_scene000056_render000005.png,1,202,412,46,"[1, 0]",left,1,33,33,m,y,y,2019_Jul_11_1307,2AFC_task,59.96994303116421,
stimuli/rgb_scene000165_render000003.png,stimuli/rgb_scene000165_render000004.png,1,203,413,162,"[1, 0]",left,1,33,33,m,y,y,2019_Jul_11_1307,2AFC_task,59.96994303116421,
stimuli/rgb_scene000042_render000002.png,stimuli/rgb_scene000042_render000004.png,1,204,414,12,"[1, 0]",left,1,33,33,m,y,y,2019_Jul_11_1307,2AFC_task,59.96994303116421,
stimuli/rgb_scene000196_render000000.png,stimuli/rgb_scene000196_render000001.png,1,205,415,189,"[1, 0]",left,1,33,33,m,y,y,2019_Jul_11_1307,2AFC_task,59.96994303116421,
stimuli/rgb_scene000150_render000003.png,stimuli/rgb_scene000150_render000006.png,1,206,416,122,"[1, 0]",left,1,33,33,m,y,y,2019_Jul_11_1307,2AFC_task,59.96994303116421,
stimuli/rgb_scene000056_render000001.png,stimuli/rgb_scene000056_render000005.png,1,207,417,51,"[0, 1]",right,1,33,33,m,y,y,2019_Jul_11_1307,2AFC_task,59.96994303116421,
stimuli/rgb_scene000160_render000001.png,stimuli/rgb_scene000160_render000006.png,1,208,418,136,"[0, 1]",right,1,33,33,m,y,y,2019_Jul_11_1307,2AFC_task,59.96994303116421,
stimuli/rgb_scene000056_render000004.png,stimuli/rgb_scene000056_render000006.png,1,209,419,61,"[1, 0]",left,1,33,33,m,y,y,2019_Jul_11_1307,2AFC_task,59.96994303116421,
