stimOne,stimTwo,trials_1.thisRepN,trials_1.thisTrialN,trials_1.thisN,trials_1.thisIndex,presentation_positions,resp_key,corresponding_image,participant ID (two digits, e.g. 01),age,gender (m/f/-),normal or corrected-to-normal vision (y/n),normal colour vision (y/n),date,expName,frameRate,
stimuli/rgb_scene000165_render000001.png,stimuli/rgb_scene000165_render000005.png,0,0,0,156,"[1, 0]",left,1,38,24,m,y,y,2019_Jul_12_1341,2AFC_task,59.96738973298241,
stimuli/rgb_scene000165_render000003.png,stimuli/rgb_scene000165_render000006.png,0,1,1,164,"[1, 0]",left,1,38,24,m,y,y,2019_Jul_12_1341,2AFC_task,59.96738973298241,
stimuli/rgb_scene000047_render000004.png,stimuli/rgb_scene000047_render000006.png,0,2,2,40,"[1, 0]",left,1,38,24,m,y,y,2019_Jul_12_1341,2AFC_task,59.96738973298241,
stimuli/rgb_scene000165_render000001.png,stimuli/rgb_scene000165_render000002.png,0,3,3,153,"[0, 1]",right,1,38,24,m,y,y,2019_Jul_12_1341,2AFC_task,59.96738973298241,
stimuli/rgb_scene000196_render000002.png,stimuli/rgb_scene000196_render000006.png,0,4,4,203,"[1, 0]",right,0,38,24,m,y,y,2019_Jul_12_1341,2AFC_task,59.96738973298241,
stimuli/rgb_scene000042_render000000.png,stimuli/rgb_scene000042_render000006.png,0,5,5,5,"[0, 1]",right,1,38,24,m,y,y,2019_Jul_12_1341,2AFC_task,59.96738973298241,
stimuli/rgb_scene000147_render000000.png,stimuli/rgb_scene000147_render000001.png,0,6,6,84,"[1, 0]",left,1,38,24,m,y,y,2019_Jul_12_1341,2AFC_task,59.96738973298241,
stimuli/rgb_scene000165_render000001.png,stimuli/rgb_scene000165_render000004.png,0,7,7,155,"[1, 0]",left,1,38,24,m,y,y,2019_Jul_12_1341,2AFC_task,59.96738973298241,
stimuli/rgb_scene000150_render000001.png,stimuli/rgb_scene000150_render000006.png,0,8,8,115,"[1, 0]",left,1,38,24,m,y,y,2019_Jul_12_1341,2AFC_task,59.96738973298241,
stimuli/rgb_scene000165_render000001.png,stimuli/rgb_scene000165_render000003.png,0,9,9,154,"[0, 1]",right,1,38,24,m,y,y,2019_Jul_12_1341,2AFC_task,59.96738973298241,
stimuli/rgb_scene000160_render000004.png,stimuli/rgb_scene000160_render000005.png,0,10,10,144,"[0, 1]",right,1,38,24,m,y,y,2019_Jul_12_1341,2AFC_task,59.96738973298241,
stimuli/rgb_scene000160_render000002.png,stimuli/rgb_scene000160_render000006.png,0,11,11,140,"[0, 1]",right,1,38,24,m,y,y,2019_Jul_12_1341,2AFC_task,59.96738973298241,
stimuli/rgb_scene000066_render000005.png,stimuli/rgb_scene000066_render000006.png,0,12,12,83,"[1, 0]",left,1,38,24,m,y,y,2019_Jul_12_1341,2AFC_task,59.96738973298241,
stimuli/rgb_scene000047_render000000.png,stimuli/rgb_scene000047_render000001.png,0,13,13,21,"[1, 0]",left,1,38,24,m,y,y,2019_Jul_12_1341,2AFC_task,59.96738973298241,
stimuli/rgb_scene000196_render000001.png,stimuli/rgb_scene000196_render000004.png,0,14,14,197,"[1, 0]",left,1,38,24,m,y,y,2019_Jul_12_1341,2AFC_task,59.96738973298241,
stimuli/rgb_scene000147_render000002.png,stimuli/rgb_scene000147_render000005.png,0,15,15,97,"[1, 0]",left,1,38,24,m,y,y,2019_Jul_12_1341,2AFC_task,59.96738973298241,
stimuli/rgb_scene000160_render000002.png,stimuli/rgb_scene000160_render000004.png,0,16,16,138,"[0, 1]",right,1,38,24,m,y,y,2019_Jul_12_1341,2AFC_task,59.96738973298241,
stimuli/rgb_scene000196_render000003.png,stimuli/rgb_scene000196_render000004.png,0,17,17,204,"[1, 0]",right,0,38,24,m,y,y,2019_Jul_12_1341,2AFC_task,59.96738973298241,
stimuli/rgb_scene000196_render000002.png,stimuli/rgb_scene000196_render000003.png,0,18,18,200,"[0, 1]",right,1,38,24,m,y,y,2019_Jul_12_1341,2AFC_task,59.96738973298241,
stimuli/rgb_scene000165_render000000.png,stimuli/rgb_scene000165_render000006.png,0,19,19,152,"[1, 0]",left,1,38,24,m,y,y,2019_Jul_12_1341,2AFC_task,59.96738973298241,
stimuli/rgb_scene000056_render000000.png,stimuli/rgb_scene000056_render000004.png,0,20,20,45,"[1, 0]",left,1,38,24,m,y,y,2019_Jul_12_1341,2AFC_task,59.96738973298241,
stimuli/rgb_scene000150_render000000.png,stimuli/rgb_scene000150_render000006.png,0,21,21,110,"[1, 0]",left,1,38,24,m,y,y,2019_Jul_12_1341,2AFC_task,59.96738973298241,
stimuli/rgb_scene000066_render000000.png,stimuli/rgb_scene000066_render000001.png,0,22,22,63,"[1, 0]",left,1,38,24,m,y,y,2019_Jul_12_1341,2AFC_task,59.96738973298241,
stimuli/rgb_scene000042_render000000.png,stimuli/rgb_scene000042_render000002.png,0,23,23,1,"[1, 0]",left,1,38,24,m,y,y,2019_Jul_12_1341,2AFC_task,59.96738973298241,
stimuli/rgb_scene000066_render000000.png,stimuli/rgb_scene000066_render000002.png,0,24,24,64,"[0, 1]",right,1,38,24,m,y,y,2019_Jul_12_1341,2AFC_task,59.96738973298241,
stimuli/rgb_scene000047_render000000.png,stimuli/rgb_scene000047_render000002.png,0,25,25,22,"[1, 0]",left,1,38,24,m,y,y,2019_Jul_12_1341,2AFC_task,59.96738973298241,
stimuli/rgb_scene000066_render000003.png,stimuli/rgb_scene000066_render000005.png,0,26,26,79,"[1, 0]",left,1,38,24,m,y,y,2019_Jul_12_1341,2AFC_task,59.96738973298241,
stimuli/rgb_scene000196_render000000.png,stimuli/rgb_scene000196_render000006.png,0,27,27,194,"[0, 1]",right,1,38,24,m,y,y,2019_Jul_12_1341,2AFC_task,59.96738973298241,
stimuli/rgb_scene000160_render000000.png,stimuli/rgb_scene000160_render000004.png,0,28,28,129,"[1, 0]",left,1,38,24,m,y,y,2019_Jul_12_1341,2AFC_task,59.96738973298241,
stimuli/rgb_scene000056_render000002.png,stimuli/rgb_scene000056_render000004.png,0,29,29,54,"[0, 1]",right,1,38,24,m,y,y,2019_Jul_12_1341,2AFC_task,59.96738973298241,
stimuli/rgb_scene000056_render000002.png,stimuli/rgb_scene000056_render000003.png,0,30,30,53,"[1, 0]",left,1,38,24,m,y,y,2019_Jul_12_1341,2AFC_task,59.96738973298241,
stimuli/rgb_scene000047_render000005.png,stimuli/rgb_scene000047_render000006.png,0,31,31,41,"[0, 1]",right,1,38,24,m,y,y,2019_Jul_12_1341,2AFC_task,59.96738973298241,
stimuli/rgb_scene000047_render000003.png,stimuli/rgb_scene000047_render000004.png,0,32,32,36,"[1, 0]",left,1,38,24,m,y,y,2019_Jul_12_1341,2AFC_task,59.96738973298241,
stimuli/rgb_scene000169_render000003.png,stimuli/rgb_scene000169_render000004.png,0,33,33,183,"[1, 0]",left,1,38,24,m,y,y,2019_Jul_12_1341,2AFC_task,59.96738973298241,
stimuli/rgb_scene000042_render000003.png,stimuli/rgb_scene000042_render000005.png,0,34,34,16,"[0, 1]",right,1,38,24,m,y,y,2019_Jul_12_1341,2AFC_task,59.96738973298241,
stimuli/rgb_scene000169_render000000.png,stimuli/rgb_scene000169_render000003.png,0,35,35,170,"[0, 1]",right,1,38,24,m,y,y,2019_Jul_12_1341,2AFC_task,59.96738973298241,
stimuli/rgb_scene000066_render000003.png,stimuli/rgb_scene000066_render000006.png,0,36,36,80,"[0, 1]",right,1,38,24,m,y,y,2019_Jul_12_1341,2AFC_task,59.96738973298241,
stimuli/rgb_scene000066_render000000.png,stimuli/rgb_scene000066_render000003.png,0,37,37,65,"[1, 0]",left,1,38,24,m,y,y,2019_Jul_12_1341,2AFC_task,59.96738973298241,
stimuli/rgb_scene000150_render000001.png,stimuli/rgb_scene000150_render000003.png,0,38,38,112,"[1, 0]",left,1,38,24,m,y,y,2019_Jul_12_1341,2AFC_task,59.96738973298241,
stimuli/rgb_scene000042_render000001.png,stimuli/rgb_scene000042_render000002.png,0,39,39,6,"[1, 0]",left,1,38,24,m,y,y,2019_Jul_12_1341,2AFC_task,59.96738973298241,
stimuli/rgb_scene000196_render000002.png,stimuli/rgb_scene000196_render000005.png,0,40,40,202,"[0, 1]",right,1,38,24,m,y,y,2019_Jul_12_1341,2AFC_task,59.96738973298241,
stimuli/rgb_scene000165_render000002.png,stimuli/rgb_scene000165_render000005.png,0,41,41,160,"[1, 0]",left,1,38,24,m,y,y,2019_Jul_12_1341,2AFC_task,59.96738973298241,
stimuli/rgb_scene000150_render000001.png,stimuli/rgb_scene000150_render000005.png,0,42,42,114,"[1, 0]",left,1,38,24,m,y,y,2019_Jul_12_1341,2AFC_task,59.96738973298241,
stimuli/rgb_scene000169_render000000.png,stimuli/rgb_scene000169_render000001.png,0,43,43,168,"[0, 1]",right,1,38,24,m,y,y,2019_Jul_12_1341,2AFC_task,59.96738973298241,
stimuli/rgb_scene000169_render000000.png,stimuli/rgb_scene000169_render000005.png,0,44,44,172,"[1, 0]",left,1,38,24,m,y,y,2019_Jul_12_1341,2AFC_task,59.96738973298241,
stimuli/rgb_scene000150_render000004.png,stimuli/rgb_scene000150_render000005.png,0,45,45,123,"[0, 1]",right,1,38,24,m,y,y,2019_Jul_12_1341,2AFC_task,59.96738973298241,
stimuli/rgb_scene000160_render000002.png,stimuli/rgb_scene000160_render000005.png,0,46,46,139,"[1, 0]",left,1,38,24,m,y,y,2019_Jul_12_1341,2AFC_task,59.96738973298241,
stimuli/rgb_scene000165_render000004.png,stimuli/rgb_scene000165_render000005.png,0,47,47,165,"[0, 1]",right,1,38,24,m,y,y,2019_Jul_12_1341,2AFC_task,59.96738973298241,
stimuli/rgb_scene000042_render000002.png,stimuli/rgb_scene000042_render000003.png,0,48,48,11,"[1, 0]",left,1,38,24,m,y,y,2019_Jul_12_1341,2AFC_task,59.96738973298241,
stimuli/rgb_scene000165_render000000.png,stimuli/rgb_scene000165_render000004.png,0,49,49,150,"[1, 0]",left,1,38,24,m,y,y,2019_Jul_12_1341,2AFC_task,59.96738973298241,
stimuli/rgb_scene000169_render000000.png,stimuli/rgb_scene000169_render000004.png,0,50,50,171,"[0, 1]",right,1,38,24,m,y,y,2019_Jul_12_1341,2AFC_task,59.96738973298241,
stimuli/rgb_scene000160_render000001.png,stimuli/rgb_scene000160_render000004.png,0,51,51,134,"[1, 0]",left,1,38,24,m,y,y,2019_Jul_12_1341,2AFC_task,59.96738973298241,
stimuli/rgb_scene000196_render000000.png,stimuli/rgb_scene000196_render000004.png,0,52,52,192,"[0, 1]",right,1,38,24,m,y,y,2019_Jul_12_1341,2AFC_task,59.96738973298241,
stimuli/rgb_scene000047_render000001.png,stimuli/rgb_scene000047_render000006.png,0,53,53,31,"[1, 0]",left,1,38,24,m,y,y,2019_Jul_12_1341,2AFC_task,59.96738973298241,
stimuli/rgb_scene000042_render000002.png,stimuli/rgb_scene000042_render000006.png,0,54,54,14,"[1, 0]",left,1,38,24,m,y,y,2019_Jul_12_1341,2AFC_task,59.96738973298241,
stimuli/rgb_scene000169_render000001.png,stimuli/rgb_scene000169_render000003.png,0,55,55,175,"[1, 0]",left,1,38,24,m,y,y,2019_Jul_12_1341,2AFC_task,59.96738973298241,
stimuli/rgb_scene000047_render000004.png,stimuli/rgb_scene000047_render000005.png,0,56,56,39,"[1, 0]",left,1,38,24,m,y,y,2019_Jul_12_1341,2AFC_task,59.96738973298241,
stimuli/rgb_scene000165_render000002.png,stimuli/rgb_scene000165_render000004.png,0,57,57,159,"[1, 0]",left,1,38,24,m,y,y,2019_Jul_12_1341,2AFC_task,59.96738973298241,
stimuli/rgb_scene000066_render000003.png,stimuli/rgb_scene000066_render000004.png,0,58,58,78,"[1, 0]",left,1,38,24,m,y,y,2019_Jul_12_1341,2AFC_task,59.96738973298241,
stimuli/rgb_scene000196_render000001.png,stimuli/rgb_scene000196_render000002.png,0,59,59,195,"[0, 1]",right,1,38,24,m,y,y,2019_Jul_12_1341,2AFC_task,59.96738973298241,
stimuli/rgb_scene000160_render000003.png,stimuli/rgb_scene000160_render000004.png,0,60,60,141,"[0, 1]",right,1,38,24,m,y,y,2019_Jul_12_1341,2AFC_task,59.96738973298241,
stimuli/rgb_scene000196_render000000.png,stimuli/rgb_scene000196_render000002.png,0,61,61,190,"[0, 1]",right,1,38,24,m,y,y,2019_Jul_12_1341,2AFC_task,59.96738973298241,
stimuli/rgb_scene000042_render000001.png,stimuli/rgb_scene000042_render000004.png,0,62,62,8,"[1, 0]",left,1,38,24,m,y,y,2019_Jul_12_1341,2AFC_task,59.96738973298241,
stimuli/rgb_scene000056_render000001.png,stimuli/rgb_scene000056_render000003.png,0,63,63,49,"[0, 1]",right,1,38,24,m,y,y,2019_Jul_12_1341,2AFC_task,59.96738973298241,
stimuli/rgb_scene000165_render000000.png,stimuli/rgb_scene000165_render000001.png,0,64,64,147,"[0, 1]",right,1,38,24,m,y,y,2019_Jul_12_1341,2AFC_task,59.96738973298241,
stimuli/rgb_scene000056_render000004.png,stimuli/rgb_scene000056_render000005.png,0,65,65,60,"[1, 0]",left,1,38,24,m,y,y,2019_Jul_12_1341,2AFC_task,59.96738973298241,
stimuli/rgb_scene000042_render000001.png,stimuli/rgb_scene000042_render000006.png,0,66,66,10,"[0, 1]",right,1,38,24,m,y,y,2019_Jul_12_1341,2AFC_task,59.96738973298241,
stimuli/rgb_scene000160_render000002.png,stimuli/rgb_scene000160_render000003.png,0,67,67,137,"[0, 1]",right,1,38,24,m,y,y,2019_Jul_12_1341,2AFC_task,59.96738973298241,
stimuli/rgb_scene000056_render000000.png,stimuli/rgb_scene000056_render000005.png,0,68,68,46,"[1, 0]",left,1,38,24,m,y,y,2019_Jul_12_1341,2AFC_task,59.96738973298241,
stimuli/rgb_scene000147_render000000.png,stimuli/rgb_scene000147_render000006.png,0,69,69,89,"[1, 0]",left,1,38,24,m,y,y,2019_Jul_12_1341,2AFC_task,59.96738973298241,
stimuli/rgb_scene000147_render000001.png,stimuli/rgb_scene000147_render000002.png,0,70,70,90,"[0, 1]",right,1,38,24,m,y,y,2019_Jul_12_1341,2AFC_task,59.96738973298241,
stimuli/rgb_scene000056_render000000.png,stimuli/rgb_scene000056_render000002.png,0,71,71,43,"[0, 1]",right,1,38,24,m,y,y,2019_Jul_12_1341,2AFC_task,59.96738973298241,
stimuli/rgb_scene000056_render000003.png,stimuli/rgb_scene000056_render000005.png,0,72,72,58,"[1, 0]",left,1,38,24,m,y,y,2019_Jul_12_1341,2AFC_task,59.96738973298241,
stimuli/rgb_scene000165_render000003.png,stimuli/rgb_scene000165_render000004.png,0,73,73,162,"[0, 1]",right,1,38,24,m,y,y,2019_Jul_12_1341,2AFC_task,59.96738973298241,
stimuli/rgb_scene000150_render000003.png,stimuli/rgb_scene000150_render000006.png,0,74,74,122,"[0, 1]",right,1,38,24,m,y,y,2019_Jul_12_1341,2AFC_task,59.96738973298241,
stimuli/rgb_scene000047_render000003.png,stimuli/rgb_scene000047_render000005.png,0,75,75,37,"[0, 1]",right,1,38,24,m,y,y,2019_Jul_12_1341,2AFC_task,59.96738973298241,
stimuli/rgb_scene000169_render000002.png,stimuli/rgb_scene000169_render000005.png,0,76,76,181,"[1, 0]",left,1,38,24,m,y,y,2019_Jul_12_1341,2AFC_task,59.96738973298241,
stimuli/rgb_scene000066_render000001.png,stimuli/rgb_scene000066_render000006.png,0,77,77,73,"[0, 1]",right,1,38,24,m,y,y,2019_Jul_12_1341,2AFC_task,59.96738973298241,
stimuli/rgb_scene000196_render000001.png,stimuli/rgb_scene000196_render000003.png,0,78,78,196,"[0, 1]",right,1,38,24,m,y,y,2019_Jul_12_1341,2AFC_task,59.96738973298241,
stimuli/rgb_scene000160_render000003.png,stimuli/rgb_scene000160_render000006.png,0,79,79,143,"[0, 1]",right,1,38,24,m,y,y,2019_Jul_12_1341,2AFC_task,59.96738973298241,
stimuli/rgb_scene000150_render000001.png,stimuli/rgb_scene000150_render000002.png,0,80,80,111,"[0, 1]",right,1,38,24,m,y,y,2019_Jul_12_1341,2AFC_task,59.96738973298241,
stimuli/rgb_scene000147_render000002.png,stimuli/rgb_scene000147_render000006.png,0,81,81,98,"[0, 1]",right,1,38,24,m,y,y,2019_Jul_12_1341,2AFC_task,59.96738973298241,
stimuli/rgb_scene000042_render000001.png,stimuli/rgb_scene000042_render000003.png,0,82,82,7,"[0, 1]",right,1,38,24,m,y,y,2019_Jul_12_1341,2AFC_task,59.96738973298241,
stimuli/rgb_scene000165_render000002.png,stimuli/rgb_scene000165_render000003.png,0,83,83,158,"[1, 0]",left,1,38,24,m,y,y,2019_Jul_12_1341,2AFC_task,59.96738973298241,
stimuli/rgb_scene000147_render000004.png,stimuli/rgb_scene000147_render000005.png,0,84,84,102,"[1, 0]",left,1,38,24,m,y,y,2019_Jul_12_1341,2AFC_task,59.96738973298241,
stimuli/rgb_scene000169_render000005.png,stimuli/rgb_scene000169_render000006.png,0,85,85,188,"[0, 1]",left,0,38,24,m,y,y,2019_Jul_12_1341,2AFC_task,59.96738973298241,
stimuli/rgb_scene000066_render000002.png,stimuli/rgb_scene000066_render000005.png,0,86,86,76,"[0, 1]",right,1,38,24,m,y,y,2019_Jul_12_1341,2AFC_task,59.96738973298241,
stimuli/rgb_scene000196_render000000.png,stimuli/rgb_scene000196_render000005.png,0,87,87,193,"[0, 1]",right,1,38,24,m,y,y,2019_Jul_12_1341,2AFC_task,59.96738973298241,
stimuli/rgb_scene000165_render000001.png,stimuli/rgb_scene000165_render000006.png,0,88,88,157,"[1, 0]",left,1,38,24,m,y,y,2019_Jul_12_1341,2AFC_task,59.96738973298241,
stimuli/rgb_scene000147_render000001.png,stimuli/rgb_scene000147_render000006.png,0,89,89,94,"[0, 1]",right,1,38,24,m,y,y,2019_Jul_12_1341,2AFC_task,59.96738973298241,
stimuli/rgb_scene000042_render000004.png,stimuli/rgb_scene000042_render000005.png,0,90,90,18,"[0, 1]",right,1,38,24,m,y,y,2019_Jul_12_1341,2AFC_task,59.96738973298241,
stimuli/rgb_scene000147_render000001.png,stimuli/rgb_scene000147_render000005.png,0,91,91,93,"[0, 1]",right,1,38,24,m,y,y,2019_Jul_12_1341,2AFC_task,59.96738973298241,
stimuli/rgb_scene000169_render000001.png,stimuli/rgb_scene000169_render000002.png,0,92,92,174,"[1, 0]",right,0,38,24,m,y,y,2019_Jul_12_1341,2AFC_task,59.96738973298241,
stimuli/rgb_scene000150_render000000.png,stimuli/rgb_scene000150_render000002.png,0,93,93,106,"[0, 1]",right,1,38,24,m,y,y,2019_Jul_12_1341,2AFC_task,59.96738973298241,
stimuli/rgb_scene000042_render000000.png,stimuli/rgb_scene000042_render000005.png,0,94,94,4,"[1, 0]",left,1,38,24,m,y,y,2019_Jul_12_1341,2AFC_task,59.96738973298241,
stimuli/rgb_scene000169_render000002.png,stimuli/rgb_scene000169_render000003.png,0,95,95,179,"[1, 0]",right,0,38,24,m,y,y,2019_Jul_12_1341,2AFC_task,59.96738973298241,
stimuli/rgb_scene000196_render000000.png,stimuli/rgb_scene000196_render000003.png,0,96,96,191,"[1, 0]",left,1,38,24,m,y,y,2019_Jul_12_1341,2AFC_task,59.96738973298241,
stimuli/rgb_scene000047_render000002.png,stimuli/rgb_scene000047_render000003.png,0,97,97,32,"[0, 1]",right,1,38,24,m,y,y,2019_Jul_12_1341,2AFC_task,59.96738973298241,
stimuli/rgb_scene000165_render000002.png,stimuli/rgb_scene000165_render000006.png,0,98,98,161,"[0, 1]",right,1,38,24,m,y,y,2019_Jul_12_1341,2AFC_task,59.96738973298241,
stimuli/rgb_scene000047_render000000.png,stimuli/rgb_scene000047_render000004.png,0,99,99,24,"[0, 1]",right,1,38,24,m,y,y,2019_Jul_12_1341,2AFC_task,59.96738973298241,
stimuli/rgb_scene000147_render000000.png,stimuli/rgb_scene000147_render000003.png,0,100,100,86,"[0, 1]",right,1,38,24,m,y,y,2019_Jul_12_1341,2AFC_task,59.96738973298241,
stimuli/rgb_scene000147_render000000.png,stimuli/rgb_scene000147_render000004.png,0,101,101,87,"[1, 0]",left,1,38,24,m,y,y,2019_Jul_12_1341,2AFC_task,59.96738973298241,
stimuli/rgb_scene000169_render000001.png,stimuli/rgb_scene000169_render000006.png,0,102,102,178,"[0, 1]",right,1,38,24,m,y,y,2019_Jul_12_1341,2AFC_task,59.96738973298241,
stimuli/rgb_scene000147_render000003.png,stimuli/rgb_scene000147_render000004.png,0,103,103,99,"[1, 0]",left,1,38,24,m,y,y,2019_Jul_12_1341,2AFC_task,59.96738973298241,
stimuli/rgb_scene000160_render000004.png,stimuli/rgb_scene000160_render000006.png,0,104,104,145,"[0, 1]",right,1,38,24,m,y,y,2019_Jul_12_1341,2AFC_task,59.96738973298241,
stimuli/rgb_scene000056_render000000.png,stimuli/rgb_scene000056_render000001.png,0,105,105,42,"[1, 0]",left,1,38,24,m,y,y,2019_Jul_12_1341,2AFC_task,59.96738973298241,
stimuli/rgb_scene000066_render000001.png,stimuli/rgb_scene000066_render000002.png,0,106,106,69,"[1, 0]",left,1,38,24,m,y,y,2019_Jul_12_1341,2AFC_task,59.96738973298241,
stimuli/rgb_scene000056_render000003.png,stimuli/rgb_scene000056_render000004.png,0,107,107,57,"[0, 1]",right,1,38,24,m,y,y,2019_Jul_12_1341,2AFC_task,59.96738973298241,
stimuli/rgb_scene000165_render000000.png,stimuli/rgb_scene000165_render000002.png,0,108,108,148,"[0, 1]",right,1,38,24,m,y,y,2019_Jul_12_1341,2AFC_task,59.96738973298241,
stimuli/rgb_scene000160_render000000.png,stimuli/rgb_scene000160_render000003.png,0,109,109,128,"[1, 0]",left,1,38,24,m,y,y,2019_Jul_12_1341,2AFC_task,59.96738973298241,
stimuli/rgb_scene000169_render000001.png,stimuli/rgb_scene000169_render000005.png,0,110,110,177,"[0, 1]",right,1,38,24,m,y,y,2019_Jul_12_1341,2AFC_task,59.96738973298241,
stimuli/rgb_scene000160_render000005.png,stimuli/rgb_scene000160_render000006.png,0,111,111,146,"[1, 0]",left,1,38,24,m,y,y,2019_Jul_12_1341,2AFC_task,59.96738973298241,
stimuli/rgb_scene000160_render000000.png,stimuli/rgb_scene000160_render000001.png,0,112,112,126,"[1, 0]",left,1,38,24,m,y,y,2019_Jul_12_1341,2AFC_task,59.96738973298241,
stimuli/rgb_scene000169_render000004.png,stimuli/rgb_scene000169_render000005.png,0,113,113,186,"[1, 0]",left,1,38,24,m,y,y,2019_Jul_12_1341,2AFC_task,59.96738973298241,
stimuli/rgb_scene000047_render000001.png,stimuli/rgb_scene000047_render000002.png,0,114,114,27,"[0, 1]",right,1,38,24,m,y,y,2019_Jul_12_1341,2AFC_task,59.96738973298241,
stimuli/rgb_scene000160_render000001.png,stimuli/rgb_scene000160_render000002.png,0,115,115,132,"[0, 1]",right,1,38,24,m,y,y,2019_Jul_12_1341,2AFC_task,59.96738973298241,
stimuli/rgb_scene000047_render000002.png,stimuli/rgb_scene000047_render000005.png,0,116,116,34,"[0, 1]",right,1,38,24,m,y,y,2019_Jul_12_1341,2AFC_task,59.96738973298241,
stimuli/rgb_scene000047_render000002.png,stimuli/rgb_scene000047_render000006.png,0,117,117,35,"[0, 1]",right,1,38,24,m,y,y,2019_Jul_12_1341,2AFC_task,59.96738973298241,
stimuli/rgb_scene000047_render000001.png,stimuli/rgb_scene000047_render000003.png,0,118,118,28,"[1, 0]",left,1,38,24,m,y,y,2019_Jul_12_1341,2AFC_task,59.96738973298241,
stimuli/rgb_scene000047_render000001.png,stimuli/rgb_scene000047_render000004.png,0,119,119,29,"[0, 1]",right,1,38,24,m,y,y,2019_Jul_12_1341,2AFC_task,59.96738973298241,
stimuli/rgb_scene000150_render000002.png,stimuli/rgb_scene000150_render000005.png,0,120,120,118,"[0, 1]",right,1,38,24,m,y,y,2019_Jul_12_1341,2AFC_task,59.96738973298241,
stimuli/rgb_scene000042_render000003.png,stimuli/rgb_scene000042_render000004.png,0,121,121,15,"[0, 1]",right,1,38,24,m,y,y,2019_Jul_12_1341,2AFC_task,59.96738973298241,
stimuli/rgb_scene000047_render000000.png,stimuli/rgb_scene000047_render000006.png,0,122,122,26,"[1, 0]",left,1,38,24,m,y,y,2019_Jul_12_1341,2AFC_task,59.96738973298241,
stimuli/rgb_scene000066_render000004.png,stimuli/rgb_scene000066_render000005.png,0,123,123,81,"[0, 1]",right,1,38,24,m,y,y,2019_Jul_12_1341,2AFC_task,59.96738973298241,
stimuli/rgb_scene000160_render000003.png,stimuli/rgb_scene000160_render000005.png,0,124,124,142,"[1, 0]",left,1,38,24,m,y,y,2019_Jul_12_1341,2AFC_task,59.96738973298241,
stimuli/rgb_scene000160_render000001.png,stimuli/rgb_scene000160_render000003.png,0,125,125,133,"[1, 0]",left,1,38,24,m,y,y,2019_Jul_12_1341,2AFC_task,59.96738973298241,
stimuli/rgb_scene000066_render000000.png,stimuli/rgb_scene000066_render000006.png,0,126,126,68,"[1, 0]",left,1,38,24,m,y,y,2019_Jul_12_1341,2AFC_task,59.96738973298241,
stimuli/rgb_scene000196_render000004.png,stimuli/rgb_scene000196_render000006.png,0,127,127,208,"[0, 1]",left,0,38,24,m,y,y,2019_Jul_12_1341,2AFC_task,59.96738973298241,
stimuli/rgb_scene000047_render000000.png,stimuli/rgb_scene000047_render000003.png,0,128,128,23,"[0, 1]",right,1,38,24,m,y,y,2019_Jul_12_1341,2AFC_task,59.96738973298241,
stimuli/rgb_scene000169_render000001.png,stimuli/rgb_scene000169_render000004.png,0,129,129,176,"[0, 1]",right,1,38,24,m,y,y,2019_Jul_12_1341,2AFC_task,59.96738973298241,
stimuli/rgb_scene000147_render000004.png,stimuli/rgb_scene000147_render000006.png,0,130,130,103,"[1, 0]",left,1,38,24,m,y,y,2019_Jul_12_1341,2AFC_task,59.96738973298241,
stimuli/rgb_scene000042_render000000.png,stimuli/rgb_scene000042_render000004.png,0,131,131,3,"[1, 0]",left,1,38,24,m,y,y,2019_Jul_12_1341,2AFC_task,59.96738973298241,
stimuli/rgb_scene000047_render000002.png,stimuli/rgb_scene000047_render000004.png,0,132,132,33,"[1, 0]",left,1,38,24,m,y,y,2019_Jul_12_1341,2AFC_task,59.96738973298241,
stimuli/rgb_scene000150_render000000.png,stimuli/rgb_scene000150_render000004.png,0,133,133,108,"[0, 1]",right,1,38,24,m,y,y,2019_Jul_12_1341,2AFC_task,59.96738973298241,
stimuli/rgb_scene000056_render000001.png,stimuli/rgb_scene000056_render000002.png,0,134,134,48,"[1, 0]",left,1,38,24,m,y,y,2019_Jul_12_1341,2AFC_task,59.96738973298241,
stimuli/rgb_scene000047_render000003.png,stimuli/rgb_scene000047_render000006.png,0,135,135,38,"[0, 1]",right,1,38,24,m,y,y,2019_Jul_12_1341,2AFC_task,59.96738973298241,
stimuli/rgb_scene000056_render000001.png,stimuli/rgb_scene000056_render000006.png,0,136,136,52,"[0, 1]",right,1,38,24,m,y,y,2019_Jul_12_1341,2AFC_task,59.96738973298241,
stimuli/rgb_scene000165_render000000.png,stimuli/rgb_scene000165_render000005.png,0,137,137,151,"[0, 1]",right,1,38,24,m,y,y,2019_Jul_12_1341,2AFC_task,59.96738973298241,
stimuli/rgb_scene000150_render000004.png,stimuli/rgb_scene000150_render000006.png,0,138,138,124,"[1, 0]",left,1,38,24,m,y,y,2019_Jul_12_1341,2AFC_task,59.96738973298241,
stimuli/rgb_scene000165_render000003.png,stimuli/rgb_scene000165_render000005.png,0,139,139,163,"[1, 0]",left,1,38,24,m,y,y,2019_Jul_12_1341,2AFC_task,59.96738973298241,
stimuli/rgb_scene000066_render000001.png,stimuli/rgb_scene000066_render000005.png,0,140,140,72,"[1, 0]",left,1,38,24,m,y,y,2019_Jul_12_1341,2AFC_task,59.96738973298241,
stimuli/rgb_scene000169_render000000.png,stimuli/rgb_scene000169_render000006.png,0,141,141,173,"[0, 1]",right,1,38,24,m,y,y,2019_Jul_12_1341,2AFC_task,59.96738973298241,
stimuli/rgb_scene000056_render000005.png,stimuli/rgb_scene000056_render000006.png,0,142,142,62,"[0, 1]",right,1,38,24,m,y,y,2019_Jul_12_1341,2AFC_task,59.96738973298241,
stimuli/rgb_scene000042_render000001.png,stimuli/rgb_scene000042_render000005.png,0,143,143,9,"[1, 0]",left,1,38,24,m,y,y,2019_Jul_12_1341,2AFC_task,59.96738973298241,
stimuli/rgb_scene000047_render000000.png,stimuli/rgb_scene000047_render000005.png,0,144,144,25,"[1, 0]",left,1,38,24,m,y,y,2019_Jul_12_1341,2AFC_task,59.96738973298241,
stimuli/rgb_scene000150_render000002.png,stimuli/rgb_scene000150_render000003.png,0,145,145,116,"[1, 0]",left,1,38,24,m,y,y,2019_Jul_12_1341,2AFC_task,59.96738973298241,
stimuli/rgb_scene000150_render000005.png,stimuli/rgb_scene000150_render000006.png,0,146,146,125,"[1, 0]",left,1,38,24,m,y,y,2019_Jul_12_1341,2AFC_task,59.96738973298241,
stimuli/rgb_scene000150_render000002.png,stimuli/rgb_scene000150_render000006.png,0,147,147,119,"[0, 1]",right,1,38,24,m,y,y,2019_Jul_12_1341,2AFC_task,59.96738973298241,
stimuli/rgb_scene000165_render000004.png,stimuli/rgb_scene000165_render000006.png,0,148,148,166,"[1, 0]",left,1,38,24,m,y,y,2019_Jul_12_1341,2AFC_task,59.96738973298241,
stimuli/rgb_scene000160_render000001.png,stimuli/rgb_scene000160_render000006.png,0,149,149,136,"[1, 0]",left,1,38,24,m,y,y,2019_Jul_12_1341,2AFC_task,59.96738973298241,
stimuli/rgb_scene000147_render000002.png,stimuli/rgb_scene000147_render000003.png,0,150,150,95,"[1, 0]",left,1,38,24,m,y,y,2019_Jul_12_1341,2AFC_task,59.96738973298241,
stimuli/rgb_scene000056_render000002.png,stimuli/rgb_scene000056_render000005.png,0,151,151,55,"[0, 1]",right,1,38,24,m,y,y,2019_Jul_12_1341,2AFC_task,59.96738973298241,
stimuli/rgb_scene000147_render000000.png,stimuli/rgb_scene000147_render000005.png,0,152,152,88,"[0, 1]",right,1,38,24,m,y,y,2019_Jul_12_1341,2AFC_task,59.96738973298241,
stimuli/rgb_scene000196_render000001.png,stimuli/rgb_scene000196_render000006.png,0,153,153,199,"[1, 0]",left,1,38,24,m,y,y,2019_Jul_12_1341,2AFC_task,59.96738973298241,
stimuli/rgb_scene000066_render000000.png,stimuli/rgb_scene000066_render000005.png,0,154,154,67,"[0, 1]",right,1,38,24,m,y,y,2019_Jul_12_1341,2AFC_task,59.96738973298241,
stimuli/rgb_scene000066_render000001.png,stimuli/rgb_scene000066_render000004.png,0,155,155,71,"[0, 1]",right,1,38,24,m,y,y,2019_Jul_12_1341,2AFC_task,59.96738973298241,
stimuli/rgb_scene000150_render000001.png,stimuli/rgb_scene000150_render000004.png,0,156,156,113,"[1, 0]",left,1,38,24,m,y,y,2019_Jul_12_1341,2AFC_task,59.96738973298241,
stimuli/rgb_scene000042_render000000.png,stimuli/rgb_scene000042_render000001.png,0,157,157,0,"[1, 0]",left,1,38,24,m,y,y,2019_Jul_12_1341,2AFC_task,59.96738973298241,
stimuli/rgb_scene000066_render000002.png,stimuli/rgb_scene000066_render000003.png,0,158,158,74,"[0, 1]",right,1,38,24,m,y,y,2019_Jul_12_1341,2AFC_task,59.96738973298241,
stimuli/rgb_scene000150_render000003.png,stimuli/rgb_scene000150_render000004.png,0,159,159,120,"[1, 0]",left,1,38,24,m,y,y,2019_Jul_12_1341,2AFC_task,59.96738973298241,
stimuli/rgb_scene000047_render000001.png,stimuli/rgb_scene000047_render000005.png,0,160,160,30,"[1, 0]",left,1,38,24,m,y,y,2019_Jul_12_1341,2AFC_task,59.96738973298241,
stimuli/rgb_scene000042_render000003.png,stimuli/rgb_scene000042_render000006.png,0,161,161,17,"[0, 1]",right,1,38,24,m,y,y,2019_Jul_12_1341,2AFC_task,59.96738973298241,
stimuli/rgb_scene000066_render000004.png,stimuli/rgb_scene000066_render000006.png,0,162,162,82,"[1, 0]",left,1,38,24,m,y,y,2019_Jul_12_1341,2AFC_task,59.96738973298241,
stimuli/rgb_scene000150_render000000.png,stimuli/rgb_scene000150_render000005.png,0,163,163,109,"[0, 1]",right,1,38,24,m,y,y,2019_Jul_12_1341,2AFC_task,59.96738973298241,
stimuli/rgb_scene000150_render000003.png,stimuli/rgb_scene000150_render000005.png,0,164,164,121,"[0, 1]",right,1,38,24,m,y,y,2019_Jul_12_1341,2AFC_task,59.96738973298241,
stimuli/rgb_scene000056_render000000.png,stimuli/rgb_scene000056_render000003.png,0,165,165,44,"[0, 1]",right,1,38,24,m,y,y,2019_Jul_12_1341,2AFC_task,59.96738973298241,
stimuli/rgb_scene000196_render000000.png,stimuli/rgb_scene000196_render000001.png,0,166,166,189,"[0, 1]",right,1,38,24,m,y,y,2019_Jul_12_1341,2AFC_task,59.96738973298241,
stimuli/rgb_scene000042_render000002.png,stimuli/rgb_scene000042_render000005.png,0,167,167,13,"[1, 0]",left,1,38,24,m,y,y,2019_Jul_12_1341,2AFC_task,59.96738973298241,
stimuli/rgb_scene000150_render000000.png,stimuli/rgb_scene000150_render000001.png,0,168,168,105,"[1, 0]",left,1,38,24,m,y,y,2019_Jul_12_1341,2AFC_task,59.96738973298241,
stimuli/rgb_scene000196_render000005.png,stimuli/rgb_scene000196_render000006.png,0,169,169,209,"[0, 1]",left,0,38,24,m,y,y,2019_Jul_12_1341,2AFC_task,59.96738973298241,
stimuli/rgb_scene000056_render000001.png,stimuli/rgb_scene000056_render000005.png,0,170,170,51,"[1, 0]",left,1,38,24,m,y,y,2019_Jul_12_1341,2AFC_task,59.96738973298241,
stimuli/rgb_scene000169_render000002.png,stimuli/rgb_scene000169_render000006.png,0,171,171,182,"[0, 1]",left,0,38,24,m,y,y,2019_Jul_12_1341,2AFC_task,59.96738973298241,
stimuli/rgb_scene000196_render000001.png,stimuli/rgb_scene000196_render000005.png,0,172,172,198,"[0, 1]",right,1,38,24,m,y,y,2019_Jul_12_1341,2AFC_task,59.96738973298241,
stimuli/rgb_scene000196_render000003.png,stimuli/rgb_scene000196_render000006.png,0,173,173,206,"[1, 0]",right,0,38,24,m,y,y,2019_Jul_12_1341,2AFC_task,59.96738973298241,
stimuli/rgb_scene000150_render000000.png,stimuli/rgb_scene000150_render000003.png,0,174,174,107,"[1, 0]",left,1,38,24,m,y,y,2019_Jul_12_1341,2AFC_task,59.96738973298241,
stimuli/rgb_scene000169_render000003.png,stimuli/rgb_scene000169_render000005.png,0,175,175,184,"[0, 1]",left,0,38,24,m,y,y,2019_Jul_12_1341,2AFC_task,59.96738973298241,
stimuli/rgb_scene000160_render000000.png,stimuli/rgb_scene000160_render000002.png,0,176,176,127,"[1, 0]",left,1,38,24,m,y,y,2019_Jul_12_1341,2AFC_task,59.96738973298241,
stimuli/rgb_scene000042_render000004.png,stimuli/rgb_scene000042_render000006.png,0,177,177,19,"[0, 1]",right,1,38,24,m,y,y,2019_Jul_12_1341,2AFC_task,59.96738973298241,
stimuli/rgb_scene000066_render000002.png,stimuli/rgb_scene000066_render000004.png,0,178,178,75,"[1, 0]",left,1,38,24,m,y,y,2019_Jul_12_1341,2AFC_task,59.96738973298241,
stimuli/rgb_scene000160_render000000.png,stimuli/rgb_scene000160_render000006.png,0,179,179,131,"[1, 0]",left,1,38,24,m,y,y,2019_Jul_12_1341,2AFC_task,59.96738973298241,
stimuli/rgb_scene000147_render000001.png,stimuli/rgb_scene000147_render000003.png,0,180,180,91,"[1, 0]",left,1,38,24,m,y,y,2019_Jul_12_1341,2AFC_task,59.96738973298241,
stimuli/rgb_scene000066_render000001.png,stimuli/rgb_scene000066_render000003.png,0,181,181,70,"[0, 1]",right,1,38,24,m,y,y,2019_Jul_12_1341,2AFC_task,59.96738973298241,
stimuli/rgb_scene000147_render000003.png,stimuli/rgb_scene000147_render000006.png,0,182,182,101,"[1, 0]",left,1,38,24,m,y,y,2019_Jul_12_1341,2AFC_task,59.96738973298241,
stimuli/rgb_scene000196_render000004.png,stimuli/rgb_scene000196_render000005.png,0,183,183,207,"[0, 1]",left,0,38,24,m,y,y,2019_Jul_12_1341,2AFC_task,59.96738973298241,
stimuli/rgb_scene000160_render000001.png,stimuli/rgb_scene000160_render000005.png,0,184,184,135,"[0, 1]",right,1,38,24,m,y,y,2019_Jul_12_1341,2AFC_task,59.96738973298241,
stimuli/rgb_scene000066_render000002.png,stimuli/rgb_scene000066_render000006.png,0,185,185,77,"[1, 0]",left,1,38,24,m,y,y,2019_Jul_12_1341,2AFC_task,59.96738973298241,
stimuli/rgb_scene000169_render000000.png,stimuli/rgb_scene000169_render000002.png,0,186,186,169,"[1, 0]",right,0,38,24,m,y,y,2019_Jul_12_1341,2AFC_task,59.96738973298241,
stimuli/rgb_scene000196_render000003.png,stimuli/rgb_scene000196_render000005.png,0,187,187,205,"[0, 1]",left,0,38,24,m,y,y,2019_Jul_12_1341,2AFC_task,59.96738973298241,
stimuli/rgb_scene000042_render000000.png,stimuli/rgb_scene000042_render000003.png,0,188,188,2,"[1, 0]",left,1,38,24,m,y,y,2019_Jul_12_1341,2AFC_task,59.96738973298241,
stimuli/rgb_scene000147_render000001.png,stimuli/rgb_scene000147_render000004.png,0,189,189,92,"[1, 0]",left,1,38,24,m,y,y,2019_Jul_12_1341,2AFC_task,59.96738973298241,
stimuli/rgb_scene000165_render000000.png,stimuli/rgb_scene000165_render000003.png,0,190,190,149,"[0, 1]",right,1,38,24,m,y,y,2019_Jul_12_1341,2AFC_task,59.96738973298241,
stimuli/rgb_scene000147_render000002.png,stimuli/rgb_scene000147_render000004.png,0,191,191,96,"[1, 0]",left,1,38,24,m,y,y,2019_Jul_12_1341,2AFC_task,59.96738973298241,
stimuli/rgb_scene000056_render000000.png,stimuli/rgb_scene000056_render000006.png,0,192,192,47,"[0, 1]",right,1,38,24,m,y,y,2019_Jul_12_1341,2AFC_task,59.96738973298241,
stimuli/rgb_scene000147_render000003.png,stimuli/rgb_scene000147_render000005.png,0,193,193,100,"[1, 0]",left,1,38,24,m,y,y,2019_Jul_12_1341,2AFC_task,59.96738973298241,
stimuli/rgb_scene000160_render000000.png,stimuli/rgb_scene000160_render000005.png,0,194,194,130,"[1, 0]",left,1,38,24,m,y,y,2019_Jul_12_1341,2AFC_task,59.96738973298241,
stimuli/rgb_scene000150_render000002.png,stimuli/rgb_scene000150_render000004.png,0,195,195,117,"[0, 1]",right,1,38,24,m,y,y,2019_Jul_12_1341,2AFC_task,59.96738973298241,
stimuli/rgb_scene000056_render000002.png,stimuli/rgb_scene000056_render000006.png,0,196,196,56,"[1, 0]",left,1,38,24,m,y,y,2019_Jul_12_1341,2AFC_task,59.96738973298241,
stimuli/rgb_scene000169_render000003.png,stimuli/rgb_scene000169_render000006.png,0,197,197,185,"[1, 0]",left,1,38,24,m,y,y,2019_Jul_12_1341,2AFC_task,59.96738973298241,
stimuli/rgb_scene000196_render000002.png,stimuli/rgb_scene000196_render000004.png,0,198,198,201,"[1, 0]",left,1,38,24,m,y,y,2019_Jul_12_1341,2AFC_task,59.96738973298241,
stimuli/rgb_scene000056_render000003.png,stimuli/rgb_scene000056_render000006.png,0,199,199,59,"[0, 1]",right,1,38,24,m,y,y,2019_Jul_12_1341,2AFC_task,59.96738973298241,
stimuli/rgb_scene000169_render000004.png,stimuli/rgb_scene000169_render000006.png,0,200,200,187,"[1, 0]",right,0,38,24,m,y,y,2019_Jul_12_1341,2AFC_task,59.96738973298241,
stimuli/rgb_scene000169_render000002.png,stimuli/rgb_scene000169_render000004.png,0,201,201,180,"[0, 1]",right,1,38,24,m,y,y,2019_Jul_12_1341,2AFC_task,59.96738973298241,
stimuli/rgb_scene000042_render000005.png,stimuli/rgb_scene000042_render000006.png,0,202,202,20,"[1, 0]",left,1,38,24,m,y,y,2019_Jul_12_1341,2AFC_task,59.96738973298241,
stimuli/rgb_scene000165_render000005.png,stimuli/rgb_scene000165_render000006.png,0,203,203,167,"[1, 0]",left,1,38,24,m,y,y,2019_Jul_12_1341,2AFC_task,59.96738973298241,
stimuli/rgb_scene000042_render000002.png,stimuli/rgb_scene000042_render000004.png,0,204,204,12,"[0, 1]",right,1,38,24,m,y,y,2019_Jul_12_1341,2AFC_task,59.96738973298241,
stimuli/rgb_scene000056_render000004.png,stimuli/rgb_scene000056_render000006.png,0,205,205,61,"[1, 0]",left,1,38,24,m,y,y,2019_Jul_12_1341,2AFC_task,59.96738973298241,
stimuli/rgb_scene000056_render000001.png,stimuli/rgb_scene000056_render000004.png,0,206,206,50,"[1, 0]",left,1,38,24,m,y,y,2019_Jul_12_1341,2AFC_task,59.96738973298241,
stimuli/rgb_scene000066_render000000.png,stimuli/rgb_scene000066_render000004.png,0,207,207,66,"[0, 1]",right,1,38,24,m,y,y,2019_Jul_12_1341,2AFC_task,59.96738973298241,
stimuli/rgb_scene000147_render000000.png,stimuli/rgb_scene000147_render000002.png,0,208,208,85,"[1, 0]",left,1,38,24,m,y,y,2019_Jul_12_1341,2AFC_task,59.96738973298241,
stimuli/rgb_scene000147_render000005.png,stimuli/rgb_scene000147_render000006.png,0,209,209,104,"[0, 1]",right,1,38,24,m,y,y,2019_Jul_12_1341,2AFC_task,59.96738973298241,
stimuli/rgb_scene000169_render000003.png,stimuli/rgb_scene000169_render000005.png,1,0,210,184,"[1, 0]",left,1,38,24,m,y,y,2019_Jul_12_1341,2AFC_task,59.96738973298241,
stimuli/rgb_scene000160_render000002.png,stimuli/rgb_scene000160_render000006.png,1,1,211,140,"[0, 1]",right,1,38,24,m,y,y,2019_Jul_12_1341,2AFC_task,59.96738973298241,
stimuli/rgb_scene000056_render000000.png,stimuli/rgb_scene000056_render000003.png,1,2,212,44,"[1, 0]",left,1,38,24,m,y,y,2019_Jul_12_1341,2AFC_task,59.96738973298241,
stimuli/rgb_scene000160_render000001.png,stimuli/rgb_scene000160_render000005.png,1,3,213,135,"[1, 0]",left,1,38,24,m,y,y,2019_Jul_12_1341,2AFC_task,59.96738973298241,
stimuli/rgb_scene000165_render000000.png,stimuli/rgb_scene000165_render000005.png,1,4,214,151,"[0, 1]",right,1,38,24,m,y,y,2019_Jul_12_1341,2AFC_task,59.96738973298241,
stimuli/rgb_scene000160_render000004.png,stimuli/rgb_scene000160_render000005.png,1,5,215,144,"[0, 1]",right,1,38,24,m,y,y,2019_Jul_12_1341,2AFC_task,59.96738973298241,
stimuli/rgb_scene000169_render000003.png,stimuli/rgb_scene000169_render000006.png,1,6,216,185,"[0, 1]",left,0,38,24,m,y,y,2019_Jul_12_1341,2AFC_task,59.96738973298241,
stimuli/rgb_scene000042_render000002.png,stimuli/rgb_scene000042_render000005.png,1,7,217,13,"[1, 0]",left,1,38,24,m,y,y,2019_Jul_12_1341,2AFC_task,59.96738973298241,
stimuli/rgb_scene000066_render000000.png,stimuli/rgb_scene000066_render000001.png,1,8,218,63,"[0, 1]",right,1,38,24,m,y,y,2019_Jul_12_1341,2AFC_task,59.96738973298241,
stimuli/rgb_scene000047_render000000.png,stimuli/rgb_scene000047_render000004.png,1,9,219,24,"[0, 1]",right,1,38,24,m,y,y,2019_Jul_12_1341,2AFC_task,59.96738973298241,
stimuli/rgb_scene000165_render000001.png,stimuli/rgb_scene000165_render000004.png,1,10,220,155,"[1, 0]",left,1,38,24,m,y,y,2019_Jul_12_1341,2AFC_task,59.96738973298241,
stimuli/rgb_scene000160_render000001.png,stimuli/rgb_scene000160_render000004.png,1,11,221,134,"[0, 1]",right,1,38,24,m,y,y,2019_Jul_12_1341,2AFC_task,59.96738973298241,
stimuli/rgb_scene000147_render000003.png,stimuli/rgb_scene000147_render000004.png,1,12,222,99,"[1, 0]",left,1,38,24,m,y,y,2019_Jul_12_1341,2AFC_task,59.96738973298241,
stimuli/rgb_scene000066_render000001.png,stimuli/rgb_scene000066_render000002.png,1,13,223,69,"[1, 0]",left,1,38,24,m,y,y,2019_Jul_12_1341,2AFC_task,59.96738973298241,
stimuli/rgb_scene000165_render000005.png,stimuli/rgb_scene000165_render000006.png,1,14,224,167,"[0, 1]",right,1,38,24,m,y,y,2019_Jul_12_1341,2AFC_task,59.96738973298241,
stimuli/rgb_scene000042_render000000.png,stimuli/rgb_scene000042_render000003.png,1,15,225,2,"[1, 0]",left,1,38,24,m,y,y,2019_Jul_12_1341,2AFC_task,59.96738973298241,
stimuli/rgb_scene000150_render000001.png,stimuli/rgb_scene000150_render000006.png,1,16,226,115,"[0, 1]",right,1,38,24,m,y,y,2019_Jul_12_1341,2AFC_task,59.96738973298241,
stimuli/rgb_scene000160_render000003.png,stimuli/rgb_scene000160_render000005.png,1,17,227,142,"[1, 0]",left,1,38,24,m,y,y,2019_Jul_12_1341,2AFC_task,59.96738973298241,
stimuli/rgb_scene000150_render000002.png,stimuli/rgb_scene000150_render000005.png,1,18,228,118,"[0, 1]",right,1,38,24,m,y,y,2019_Jul_12_1341,2AFC_task,59.96738973298241,
stimuli/rgb_scene000042_render000001.png,stimuli/rgb_scene000042_render000005.png,1,19,229,9,"[0, 1]",right,1,38,24,m,y,y,2019_Jul_12_1341,2AFC_task,59.96738973298241,
stimuli/rgb_scene000165_render000004.png,stimuli/rgb_scene000165_render000006.png,1,20,230,166,"[0, 1]",right,1,38,24,m,y,y,2019_Jul_12_1341,2AFC_task,59.96738973298241,
stimuli/rgb_scene000147_render000002.png,stimuli/rgb_scene000147_render000004.png,1,21,231,96,"[0, 1]",right,1,38,24,m,y,y,2019_Jul_12_1341,2AFC_task,59.96738973298241,
stimuli/rgb_scene000196_render000003.png,stimuli/rgb_scene000196_render000005.png,1,22,232,205,"[1, 0]",left,1,38,24,m,y,y,2019_Jul_12_1341,2AFC_task,59.96738973298241,
stimuli/rgb_scene000066_render000000.png,stimuli/rgb_scene000066_render000004.png,1,23,233,66,"[0, 1]",right,1,38,24,m,y,y,2019_Jul_12_1341,2AFC_task,59.96738973298241,
stimuli/rgb_scene000160_render000002.png,stimuli/rgb_scene000160_render000004.png,1,24,234,138,"[1, 0]",left,1,38,24,m,y,y,2019_Jul_12_1341,2AFC_task,59.96738973298241,
stimuli/rgb_scene000047_render000001.png,stimuli/rgb_scene000047_render000004.png,1,25,235,29,"[1, 0]",left,1,38,24,m,y,y,2019_Jul_12_1341,2AFC_task,59.96738973298241,
stimuli/rgb_scene000066_render000000.png,stimuli/rgb_scene000066_render000003.png,1,26,236,65,"[1, 0]",left,1,38,24,m,y,y,2019_Jul_12_1341,2AFC_task,59.96738973298241,
stimuli/rgb_scene000047_render000001.png,stimuli/rgb_scene000047_render000003.png,1,27,237,28,"[0, 1]",right,1,38,24,m,y,y,2019_Jul_12_1341,2AFC_task,59.96738973298241,
stimuli/rgb_scene000147_render000000.png,stimuli/rgb_scene000147_render000002.png,1,28,238,85,"[0, 1]",right,1,38,24,m,y,y,2019_Jul_12_1341,2AFC_task,59.96738973298241,
stimuli/rgb_scene000160_render000004.png,stimuli/rgb_scene000160_render000006.png,1,29,239,145,"[0, 1]",right,1,38,24,m,y,y,2019_Jul_12_1341,2AFC_task,59.96738973298241,
stimuli/rgb_scene000066_render000002.png,stimuli/rgb_scene000066_render000003.png,1,30,240,74,"[1, 0]",left,1,38,24,m,y,y,2019_Jul_12_1341,2AFC_task,59.96738973298241,
stimuli/rgb_scene000150_render000000.png,stimuli/rgb_scene000150_render000003.png,1,31,241,107,"[0, 1]",right,1,38,24,m,y,y,2019_Jul_12_1341,2AFC_task,59.96738973298241,
stimuli/rgb_scene000196_render000000.png,stimuli/rgb_scene000196_render000005.png,1,32,242,193,"[1, 0]",left,1,38,24,m,y,y,2019_Jul_12_1341,2AFC_task,59.96738973298241,
stimuli/rgb_scene000047_render000002.png,stimuli/rgb_scene000047_render000003.png,1,33,243,32,"[0, 1]",right,1,38,24,m,y,y,2019_Jul_12_1341,2AFC_task,59.96738973298241,
stimuli/rgb_scene000066_render000003.png,stimuli/rgb_scene000066_render000006.png,1,34,244,80,"[1, 0]",left,1,38,24,m,y,y,2019_Jul_12_1341,2AFC_task,59.96738973298241,
stimuli/rgb_scene000150_render000004.png,stimuli/rgb_scene000150_render000006.png,1,35,245,124,"[0, 1]",right,1,38,24,m,y,y,2019_Jul_12_1341,2AFC_task,59.96738973298241,
stimuli/rgb_scene000047_render000000.png,stimuli/rgb_scene000047_render000006.png,1,36,246,26,"[1, 0]",left,1,38,24,m,y,y,2019_Jul_12_1341,2AFC_task,59.96738973298241,
stimuli/rgb_scene000047_render000004.png,stimuli/rgb_scene000047_render000006.png,1,37,247,40,"[0, 1]",right,1,38,24,m,y,y,2019_Jul_12_1341,2AFC_task,59.96738973298241,
stimuli/rgb_scene000047_render000003.png,stimuli/rgb_scene000047_render000006.png,1,38,248,38,"[0, 1]",right,1,38,24,m,y,y,2019_Jul_12_1341,2AFC_task,59.96738973298241,
stimuli/rgb_scene000147_render000001.png,stimuli/rgb_scene000147_render000004.png,1,39,249,92,"[1, 0]",left,1,38,24,m,y,y,2019_Jul_12_1341,2AFC_task,59.96738973298241,
stimuli/rgb_scene000047_render000003.png,stimuli/rgb_scene000047_render000004.png,1,40,250,36,"[0, 1]",right,1,38,24,m,y,y,2019_Jul_12_1341,2AFC_task,59.96738973298241,
stimuli/rgb_scene000196_render000005.png,stimuli/rgb_scene000196_render000006.png,1,41,251,209,"[1, 0]",right,0,38,24,m,y,y,2019_Jul_12_1341,2AFC_task,59.96738973298241,
stimuli/rgb_scene000160_render000000.png,stimuli/rgb_scene000160_render000004.png,1,42,252,129,"[0, 1]",right,1,38,24,m,y,y,2019_Jul_12_1341,2AFC_task,59.96738973298241,
stimuli/rgb_scene000066_render000002.png,stimuli/rgb_scene000066_render000005.png,1,43,253,76,"[1, 0]",left,1,38,24,m,y,y,2019_Jul_12_1341,2AFC_task,59.96738973298241,
stimuli/rgb_scene000160_render000000.png,stimuli/rgb_scene000160_render000001.png,1,44,254,126,"[1, 0]",left,1,38,24,m,y,y,2019_Jul_12_1341,2AFC_task,59.96738973298241,
stimuli/rgb_scene000160_render000001.png,stimuli/rgb_scene000160_render000003.png,1,45,255,133,"[0, 1]",right,1,38,24,m,y,y,2019_Jul_12_1341,2AFC_task,59.96738973298241,
stimuli/rgb_scene000066_render000001.png,stimuli/rgb_scene000066_render000003.png,1,46,256,70,"[1, 0]",left,1,38,24,m,y,y,2019_Jul_12_1341,2AFC_task,59.96738973298241,
stimuli/rgb_scene000165_render000000.png,stimuli/rgb_scene000165_render000001.png,1,47,257,147,"[1, 0]",left,1,38,24,m,y,y,2019_Jul_12_1341,2AFC_task,59.96738973298241,
stimuli/rgb_scene000160_render000002.png,stimuli/rgb_scene000160_render000005.png,1,48,258,139,"[0, 1]",right,1,38,24,m,y,y,2019_Jul_12_1341,2AFC_task,59.96738973298241,
stimuli/rgb_scene000056_render000000.png,stimuli/rgb_scene000056_render000005.png,1,49,259,46,"[1, 0]",left,1,38,24,m,y,y,2019_Jul_12_1341,2AFC_task,59.96738973298241,
stimuli/rgb_scene000165_render000002.png,stimuli/rgb_scene000165_render000006.png,1,50,260,161,"[1, 0]",left,1,38,24,m,y,y,2019_Jul_12_1341,2AFC_task,59.96738973298241,
stimuli/rgb_scene000047_render000000.png,stimuli/rgb_scene000047_render000003.png,1,51,261,23,"[0, 1]",right,1,38,24,m,y,y,2019_Jul_12_1341,2AFC_task,59.96738973298241,
stimuli/rgb_scene000169_render000003.png,stimuli/rgb_scene000169_render000004.png,1,52,262,183,"[0, 1]",right,1,38,24,m,y,y,2019_Jul_12_1341,2AFC_task,59.96738973298241,
stimuli/rgb_scene000169_render000001.png,stimuli/rgb_scene000169_render000003.png,1,53,263,175,"[1, 0]",left,1,38,24,m,y,y,2019_Jul_12_1341,2AFC_task,59.96738973298241,
stimuli/rgb_scene000047_render000000.png,stimuli/rgb_scene000047_render000002.png,1,54,264,22,"[1, 0]",left,1,38,24,m,y,y,2019_Jul_12_1341,2AFC_task,59.96738973298241,
stimuli/rgb_scene000056_render000005.png,stimuli/rgb_scene000056_render000006.png,1,55,265,62,"[1, 0]",left,1,38,24,m,y,y,2019_Jul_12_1341,2AFC_task,59.96738973298241,
stimuli/rgb_scene000196_render000002.png,stimuli/rgb_scene000196_render000005.png,1,56,266,202,"[0, 1]",right,1,38,24,m,y,y,2019_Jul_12_1341,2AFC_task,59.96738973298241,
stimuli/rgb_scene000196_render000001.png,stimuli/rgb_scene000196_render000006.png,1,57,267,199,"[1, 0]",left,1,38,24,m,y,y,2019_Jul_12_1341,2AFC_task,59.96738973298241,
stimuli/rgb_scene000196_render000002.png,stimuli/rgb_scene000196_render000004.png,1,58,268,201,"[0, 1]",right,1,38,24,m,y,y,2019_Jul_12_1341,2AFC_task,59.96738973298241,
stimuli/rgb_scene000196_render000001.png,stimuli/rgb_scene000196_render000005.png,1,59,269,198,"[1, 0]",left,1,38,24,m,y,y,2019_Jul_12_1341,2AFC_task,59.96738973298241,
stimuli/rgb_scene000047_render000003.png,stimuli/rgb_scene000047_render000005.png,1,60,270,37,"[0, 1]",right,1,38,24,m,y,y,2019_Jul_12_1341,2AFC_task,59.96738973298241,
stimuli/rgb_scene000042_render000000.png,stimuli/rgb_scene000042_render000005.png,1,61,271,4,"[1, 0]",left,1,38,24,m,y,y,2019_Jul_12_1341,2AFC_task,59.96738973298241,
stimuli/rgb_scene000160_render000000.png,stimuli/rgb_scene000160_render000006.png,1,62,272,131,"[1, 0]",left,1,38,24,m,y,y,2019_Jul_12_1341,2AFC_task,59.96738973298241,
stimuli/rgb_scene000169_render000001.png,stimuli/rgb_scene000169_render000005.png,1,63,273,177,"[1, 0]",left,1,38,24,m,y,y,2019_Jul_12_1341,2AFC_task,59.96738973298241,
stimuli/rgb_scene000150_render000000.png,stimuli/rgb_scene000150_render000001.png,1,64,274,105,"[1, 0]",left,1,38,24,m,y,y,2019_Jul_12_1341,2AFC_task,59.96738973298241,
stimuli/rgb_scene000160_render000000.png,stimuli/rgb_scene000160_render000002.png,1,65,275,127,"[0, 1]",right,1,38,24,m,y,y,2019_Jul_12_1341,2AFC_task,59.96738973298241,
stimuli/rgb_scene000066_render000003.png,stimuli/rgb_scene000066_render000004.png,1,66,276,78,"[0, 1]",right,1,38,24,m,y,y,2019_Jul_12_1341,2AFC_task,59.96738973298241,
stimuli/rgb_scene000066_render000001.png,stimuli/rgb_scene000066_render000006.png,1,67,277,73,"[0, 1]",right,1,38,24,m,y,y,2019_Jul_12_1341,2AFC_task,59.96738973298241,
stimuli/rgb_scene000056_render000001.png,stimuli/rgb_scene000056_render000006.png,1,68,278,52,"[0, 1]",right,1,38,24,m,y,y,2019_Jul_12_1341,2AFC_task,59.96738973298241,
stimuli/rgb_scene000160_render000000.png,stimuli/rgb_scene000160_render000005.png,1,69,279,130,"[0, 1]",right,1,38,24,m,y,y,2019_Jul_12_1341,2AFC_task,59.96738973298241,
stimuli/rgb_scene000047_render000002.png,stimuli/rgb_scene000047_render000004.png,1,70,280,33,"[0, 1]",right,1,38,24,m,y,y,2019_Jul_12_1341,2AFC_task,59.96738973298241,
stimuli/rgb_scene000056_render000003.png,stimuli/rgb_scene000056_render000006.png,1,71,281,59,"[0, 1]",right,1,38,24,m,y,y,2019_Jul_12_1341,2AFC_task,59.96738973298241,
stimuli/rgb_scene000165_render000004.png,stimuli/rgb_scene000165_render000005.png,1,72,282,165,"[1, 0]",left,1,38,24,m,y,y,2019_Jul_12_1341,2AFC_task,59.96738973298241,
stimuli/rgb_scene000196_render000001.png,stimuli/rgb_scene000196_render000002.png,1,73,283,195,"[1, 0]",left,1,38,24,m,y,y,2019_Jul_12_1341,2AFC_task,59.96738973298241,
stimuli/rgb_scene000165_render000002.png,stimuli/rgb_scene000165_render000003.png,1,74,284,158,"[0, 1]",right,1,38,24,m,y,y,2019_Jul_12_1341,2AFC_task,59.96738973298241,
stimuli/rgb_scene000147_render000004.png,stimuli/rgb_scene000147_render000006.png,1,75,285,103,"[0, 1]",right,1,38,24,m,y,y,2019_Jul_12_1341,2AFC_task,59.96738973298241,
stimuli/rgb_scene000047_render000001.png,stimuli/rgb_scene000047_render000006.png,1,76,286,31,"[1, 0]",left,1,38,24,m,y,y,2019_Jul_12_1341,2AFC_task,59.96738973298241,
stimuli/rgb_scene000066_render000000.png,stimuli/rgb_scene000066_render000002.png,1,77,287,64,"[1, 0]",left,1,38,24,m,y,y,2019_Jul_12_1341,2AFC_task,59.96738973298241,
stimuli/rgb_scene000160_render000005.png,stimuli/rgb_scene000160_render000006.png,1,78,288,146,"[1, 0]",left,1,38,24,m,y,y,2019_Jul_12_1341,2AFC_task,59.96738973298241,
stimuli/rgb_scene000147_render000003.png,stimuli/rgb_scene000147_render000005.png,1,79,289,100,"[0, 1]",right,1,38,24,m,y,y,2019_Jul_12_1341,2AFC_task,59.96738973298241,
stimuli/rgb_scene000150_render000001.png,stimuli/rgb_scene000150_render000005.png,1,80,290,114,"[1, 0]",right,0,38,24,m,y,y,2019_Jul_12_1341,2AFC_task,59.96738973298241,
stimuli/rgb_scene000056_render000003.png,stimuli/rgb_scene000056_render000005.png,1,81,291,58,"[1, 0]",left,1,38,24,m,y,y,2019_Jul_12_1341,2AFC_task,59.96738973298241,
stimuli/rgb_scene000047_render000005.png,stimuli/rgb_scene000047_render000006.png,1,82,292,41,"[1, 0]",left,1,38,24,m,y,y,2019_Jul_12_1341,2AFC_task,59.96738973298241,
stimuli/rgb_scene000056_render000001.png,stimuli/rgb_scene000056_render000005.png,1,83,293,51,"[0, 1]",right,1,38,24,m,y,y,2019_Jul_12_1341,2AFC_task,59.96738973298241,
stimuli/rgb_scene000066_render000004.png,stimuli/rgb_scene000066_render000005.png,1,84,294,81,"[0, 1]",right,1,38,24,m,y,y,2019_Jul_12_1341,2AFC_task,59.96738973298241,
stimuli/rgb_scene000165_render000001.png,stimuli/rgb_scene000165_render000003.png,1,85,295,154,"[0, 1]",right,1,38,24,m,y,y,2019_Jul_12_1341,2AFC_task,59.96738973298241,
stimuli/rgb_scene000042_render000003.png,stimuli/rgb_scene000042_render000006.png,1,86,296,17,"[0, 1]",right,1,38,24,m,y,y,2019_Jul_12_1341,2AFC_task,59.96738973298241,
stimuli/rgb_scene000160_render000001.png,stimuli/rgb_scene000160_render000006.png,1,87,297,136,"[1, 0]",left,1,38,24,m,y,y,2019_Jul_12_1341,2AFC_task,59.96738973298241,
stimuli/rgb_scene000056_render000000.png,stimuli/rgb_scene000056_render000002.png,1,88,298,43,"[1, 0]",left,1,38,24,m,y,y,2019_Jul_12_1341,2AFC_task,59.96738973298241,
stimuli/rgb_scene000196_render000000.png,stimuli/rgb_scene000196_render000001.png,1,89,299,189,"[0, 1]",right,1,38,24,m,y,y,2019_Jul_12_1341,2AFC_task,59.96738973298241,
stimuli/rgb_scene000042_render000000.png,stimuli/rgb_scene000042_render000002.png,1,90,300,1,"[0, 1]",right,1,38,24,m,y,y,2019_Jul_12_1341,2AFC_task,59.96738973298241,
stimuli/rgb_scene000169_render000002.png,stimuli/rgb_scene000169_render000003.png,1,91,301,179,"[0, 1]",right,1,38,24,m,y,y,2019_Jul_12_1341,2AFC_task,59.96738973298241,
stimuli/rgb_scene000150_render000003.png,stimuli/rgb_scene000150_render000006.png,1,92,302,122,"[0, 1]",right,1,38,24,m,y,y,2019_Jul_12_1341,2AFC_task,59.96738973298241,
stimuli/rgb_scene000196_render000001.png,stimuli/rgb_scene000196_render000004.png,1,93,303,197,"[1, 0]",left,1,38,24,m,y,y,2019_Jul_12_1341,2AFC_task,59.96738973298241,
stimuli/rgb_scene000165_render000001.png,stimuli/rgb_scene000165_render000002.png,1,94,304,153,"[0, 1]",right,1,38,24,m,y,y,2019_Jul_12_1341,2AFC_task,59.96738973298241,
stimuli/rgb_scene000066_render000004.png,stimuli/rgb_scene000066_render000006.png,1,95,305,82,"[0, 1]",right,1,38,24,m,y,y,2019_Jul_12_1341,2AFC_task,59.96738973298241,
stimuli/rgb_scene000047_render000002.png,stimuli/rgb_scene000047_render000005.png,1,96,306,34,"[0, 1]",right,1,38,24,m,y,y,2019_Jul_12_1341,2AFC_task,59.96738973298241,
stimuli/rgb_scene000196_render000002.png,stimuli/rgb_scene000196_render000003.png,1,97,307,200,"[0, 1]",right,1,38,24,m,y,y,2019_Jul_12_1341,2AFC_task,59.96738973298241,
stimuli/rgb_scene000147_render000002.png,stimuli/rgb_scene000147_render000003.png,1,98,308,95,"[0, 1]",right,1,38,24,m,y,y,2019_Jul_12_1341,2AFC_task,59.96738973298241,
stimuli/rgb_scene000042_render000001.png,stimuli/rgb_scene000042_render000003.png,1,99,309,7,"[1, 0]",left,1,38,24,m,y,y,2019_Jul_12_1341,2AFC_task,59.96738973298241,
stimuli/rgb_scene000169_render000004.png,stimuli/rgb_scene000169_render000005.png,1,100,310,186,"[0, 1]",right,1,38,24,m,y,y,2019_Jul_12_1341,2AFC_task,59.96738973298241,
stimuli/rgb_scene000147_render000000.png,stimuli/rgb_scene000147_render000003.png,1,101,311,86,"[0, 1]",right,1,38,24,m,y,y,2019_Jul_12_1341,2AFC_task,59.96738973298241,
stimuli/rgb_scene000196_render000002.png,stimuli/rgb_scene000196_render000006.png,1,102,312,203,"[1, 0]",left,1,38,24,m,y,y,2019_Jul_12_1341,2AFC_task,59.96738973298241,
stimuli/rgb_scene000150_render000002.png,stimuli/rgb_scene000150_render000006.png,1,103,313,119,"[1, 0]",left,1,38,24,m,y,y,2019_Jul_12_1341,2AFC_task,59.96738973298241,
stimuli/rgb_scene000042_render000002.png,stimuli/rgb_scene000042_render000004.png,1,104,314,12,"[1, 0]",left,1,38,24,m,y,y,2019_Jul_12_1341,2AFC_task,59.96738973298241,
stimuli/rgb_scene000042_render000003.png,stimuli/rgb_scene000042_render000005.png,1,105,315,16,"[0, 1]",right,1,38,24,m,y,y,2019_Jul_12_1341,2AFC_task,59.96738973298241,
stimuli/rgb_scene000165_render000000.png,stimuli/rgb_scene000165_render000003.png,1,106,316,149,"[1, 0]",left,1,38,24,m,y,y,2019_Jul_12_1341,2AFC_task,59.96738973298241,
stimuli/rgb_scene000160_render000003.png,stimuli/rgb_scene000160_render000006.png,1,107,317,143,"[0, 1]",right,1,38,24,m,y,y,2019_Jul_12_1341,2AFC_task,59.96738973298241,
stimuli/rgb_scene000056_render000000.png,stimuli/rgb_scene000056_render000006.png,1,108,318,47,"[0, 1]",right,1,38,24,m,y,y,2019_Jul_12_1341,2AFC_task,59.96738973298241,
stimuli/rgb_scene000047_render000002.png,stimuli/rgb_scene000047_render000006.png,1,109,319,35,"[0, 1]",right,1,38,24,m,y,y,2019_Jul_12_1341,2AFC_task,59.96738973298241,
stimuli/rgb_scene000147_render000005.png,stimuli/rgb_scene000147_render000006.png,1,110,320,104,"[0, 1]",right,1,38,24,m,y,y,2019_Jul_12_1341,2AFC_task,59.96738973298241,
stimuli/rgb_scene000169_render000001.png,stimuli/rgb_scene000169_render000004.png,1,111,321,176,"[0, 1]",right,1,38,24,m,y,y,2019_Jul_12_1341,2AFC_task,59.96738973298241,
stimuli/rgb_scene000147_render000000.png,stimuli/rgb_scene000147_render000004.png,1,112,322,87,"[0, 1]",right,1,38,24,m,y,y,2019_Jul_12_1341,2AFC_task,59.96738973298241,
stimuli/rgb_scene000169_render000000.png,stimuli/rgb_scene000169_render000002.png,1,113,323,169,"[1, 0]",left,1,38,24,m,y,y,2019_Jul_12_1341,2AFC_task,59.96738973298241,
stimuli/rgb_scene000147_render000000.png,stimuli/rgb_scene000147_render000006.png,1,114,324,89,"[0, 1]",right,1,38,24,m,y,y,2019_Jul_12_1341,2AFC_task,59.96738973298241,
stimuli/rgb_scene000169_render000000.png,stimuli/rgb_scene000169_render000001.png,1,115,325,168,"[0, 1]",right,1,38,24,m,y,y,2019_Jul_12_1341,2AFC_task,59.96738973298241,
stimuli/rgb_scene000169_render000000.png,stimuli/rgb_scene000169_render000004.png,1,116,326,171,"[1, 0]",left,1,38,24,m,y,y,2019_Jul_12_1341,2AFC_task,59.96738973298241,
stimuli/rgb_scene000165_render000000.png,stimuli/rgb_scene000165_render000002.png,1,117,327,148,"[1, 0]",left,1,38,24,m,y,y,2019_Jul_12_1341,2AFC_task,59.96738973298241,
stimuli/rgb_scene000147_render000000.png,stimuli/rgb_scene000147_render000001.png,1,118,328,84,"[1, 0]",left,1,38,24,m,y,y,2019_Jul_12_1341,2AFC_task,59.96738973298241,
stimuli/rgb_scene000147_render000000.png,stimuli/rgb_scene000147_render000005.png,1,119,329,88,"[1, 0]",left,1,38,24,m,y,y,2019_Jul_12_1341,2AFC_task,59.96738973298241,
stimuli/rgb_scene000047_render000000.png,stimuli/rgb_scene000047_render000005.png,1,120,330,25,"[1, 0]",left,1,38,24,m,y,y,2019_Jul_12_1341,2AFC_task,59.96738973298241,
stimuli/rgb_scene000066_render000000.png,stimuli/rgb_scene000066_render000006.png,1,121,331,68,"[0, 1]",right,1,38,24,m,y,y,2019_Jul_12_1341,2AFC_task,59.96738973298241,
stimuli/rgb_scene000147_render000002.png,stimuli/rgb_scene000147_render000005.png,1,122,332,97,"[0, 1]",right,1,38,24,m,y,y,2019_Jul_12_1341,2AFC_task,59.96738973298241,
stimuli/rgb_scene000066_render000002.png,stimuli/rgb_scene000066_render000004.png,1,123,333,75,"[0, 1]",right,1,38,24,m,y,y,2019_Jul_12_1341,2AFC_task,59.96738973298241,
stimuli/rgb_scene000150_render000005.png,stimuli/rgb_scene000150_render000006.png,1,124,334,125,"[0, 1]",right,1,38,24,m,y,y,2019_Jul_12_1341,2AFC_task,59.96738973298241,
stimuli/rgb_scene000169_render000002.png,stimuli/rgb_scene000169_render000006.png,1,125,335,182,"[0, 1]",right,1,38,24,m,y,y,2019_Jul_12_1341,2AFC_task,59.96738973298241,
stimuli/rgb_scene000169_render000000.png,stimuli/rgb_scene000169_render000005.png,1,126,336,172,"[0, 1]",right,1,38,24,m,y,y,2019_Jul_12_1341,2AFC_task,59.96738973298241,
stimuli/rgb_scene000042_render000002.png,stimuli/rgb_scene000042_render000003.png,1,127,337,11,"[0, 1]",right,1,38,24,m,y,y,2019_Jul_12_1341,2AFC_task,59.96738973298241,
stimuli/rgb_scene000150_render000000.png,stimuli/rgb_scene000150_render000005.png,1,128,338,109,"[0, 1]",right,1,38,24,m,y,y,2019_Jul_12_1341,2AFC_task,59.96738973298241,
stimuli/rgb_scene000047_render000001.png,stimuli/rgb_scene000047_render000002.png,1,129,339,27,"[1, 0]",left,1,38,24,m,y,y,2019_Jul_12_1341,2AFC_task,59.96738973298241,
stimuli/rgb_scene000160_render000000.png,stimuli/rgb_scene000160_render000003.png,1,130,340,128,"[0, 1]",right,1,38,24,m,y,y,2019_Jul_12_1341,2AFC_task,59.96738973298241,
stimuli/rgb_scene000042_render000004.png,stimuli/rgb_scene000042_render000006.png,1,131,341,19,"[0, 1]",right,1,38,24,m,y,y,2019_Jul_12_1341,2AFC_task,59.96738973298241,
stimuli/rgb_scene000169_render000000.png,stimuli/rgb_scene000169_render000006.png,1,132,342,173,"[0, 1]",right,1,38,24,m,y,y,2019_Jul_12_1341,2AFC_task,59.96738973298241,
stimuli/rgb_scene000066_render000001.png,stimuli/rgb_scene000066_render000005.png,1,133,343,72,"[0, 1]",right,1,38,24,m,y,y,2019_Jul_12_1341,2AFC_task,59.96738973298241,
stimuli/rgb_scene000056_render000003.png,stimuli/rgb_scene000056_render000004.png,1,134,344,57,"[0, 1]",right,1,38,24,m,y,y,2019_Jul_12_1341,2AFC_task,59.96738973298241,
stimuli/rgb_scene000196_render000000.png,stimuli/rgb_scene000196_render000004.png,1,135,345,192,"[1, 0]",left,1,38,24,m,y,y,2019_Jul_12_1341,2AFC_task,59.96738973298241,
stimuli/rgb_scene000150_render000000.png,stimuli/rgb_scene000150_render000004.png,1,136,346,108,"[0, 1]",right,1,38,24,m,y,y,2019_Jul_12_1341,2AFC_task,59.96738973298241,
stimuli/rgb_scene000042_render000001.png,stimuli/rgb_scene000042_render000002.png,1,137,347,6,"[1, 0]",left,1,38,24,m,y,y,2019_Jul_12_1341,2AFC_task,59.96738973298241,
stimuli/rgb_scene000147_render000001.png,stimuli/rgb_scene000147_render000002.png,1,138,348,90,"[1, 0]",left,1,38,24,m,y,y,2019_Jul_12_1341,2AFC_task,59.96738973298241,
stimuli/rgb_scene000169_render000004.png,stimuli/rgb_scene000169_render000006.png,1,139,349,187,"[1, 0]",right,0,38,24,m,y,y,2019_Jul_12_1341,2AFC_task,59.96738973298241,
stimuli/rgb_scene000147_render000004.png,stimuli/rgb_scene000147_render000005.png,1,140,350,102,"[1, 0]",left,1,38,24,m,y,y,2019_Jul_12_1341,2AFC_task,59.96738973298241,
stimuli/rgb_scene000042_render000002.png,stimuli/rgb_scene000042_render000006.png,1,141,351,14,"[0, 1]",right,1,38,24,m,y,y,2019_Jul_12_1341,2AFC_task,59.96738973298241,
stimuli/rgb_scene000150_render000003.png,stimuli/rgb_scene000150_render000004.png,1,142,352,120,"[0, 1]",right,1,38,24,m,y,y,2019_Jul_12_1341,2AFC_task,59.96738973298241,
stimuli/rgb_scene000056_render000001.png,stimuli/rgb_scene000056_render000002.png,1,143,353,48,"[1, 0]",left,1,38,24,m,y,y,2019_Jul_12_1341,2AFC_task,59.96738973298241,
stimuli/rgb_scene000165_render000001.png,stimuli/rgb_scene000165_render000005.png,1,144,354,156,"[0, 1]",right,1,38,24,m,y,y,2019_Jul_12_1341,2AFC_task,59.96738973298241,
stimuli/rgb_scene000196_render000003.png,stimuli/rgb_scene000196_render000004.png,1,145,355,204,"[0, 1]",right,1,38,24,m,y,y,2019_Jul_12_1341,2AFC_task,59.96738973298241,
stimuli/rgb_scene000165_render000003.png,stimuli/rgb_scene000165_render000005.png,1,146,356,163,"[1, 0]",left,1,38,24,m,y,y,2019_Jul_12_1341,2AFC_task,59.96738973298241,
stimuli/rgb_scene000042_render000004.png,stimuli/rgb_scene000042_render000005.png,1,147,357,18,"[1, 0]",left,1,38,24,m,y,y,2019_Jul_12_1341,2AFC_task,59.96738973298241,
stimuli/rgb_scene000056_render000000.png,stimuli/rgb_scene000056_render000001.png,1,148,358,42,"[0, 1]",right,1,38,24,m,y,y,2019_Jul_12_1341,2AFC_task,59.96738973298241,
stimuli/rgb_scene000165_render000003.png,stimuli/rgb_scene000165_render000004.png,1,149,359,162,"[1, 0]",left,1,38,24,m,y,y,2019_Jul_12_1341,2AFC_task,59.96738973298241,
stimuli/rgb_scene000165_render000002.png,stimuli/rgb_scene000165_render000005.png,1,150,360,160,"[1, 0]",left,1,38,24,m,y,y,2019_Jul_12_1341,2AFC_task,59.96738973298241,
stimuli/rgb_scene000056_render000001.png,stimuli/rgb_scene000056_render000004.png,1,151,361,50,"[0, 1]",right,1,38,24,m,y,y,2019_Jul_12_1341,2AFC_task,59.96738973298241,
stimuli/rgb_scene000056_render000002.png,stimuli/rgb_scene000056_render000003.png,1,152,362,53,"[0, 1]",right,1,38,24,m,y,y,2019_Jul_12_1341,2AFC_task,59.96738973298241,
stimuli/rgb_scene000196_render000000.png,stimuli/rgb_scene000196_render000003.png,1,153,363,191,"[0, 1]",right,1,38,24,m,y,y,2019_Jul_12_1341,2AFC_task,59.96738973298241,
stimuli/rgb_scene000150_render000002.png,stimuli/rgb_scene000150_render000003.png,1,154,364,116,"[1, 0]",left,1,38,24,m,y,y,2019_Jul_12_1341,2AFC_task,59.96738973298241,
stimuli/rgb_scene000150_render000000.png,stimuli/rgb_scene000150_render000002.png,1,155,365,106,"[0, 1]",right,1,38,24,m,y,y,2019_Jul_12_1341,2AFC_task,59.96738973298241,
stimuli/rgb_scene000196_render000004.png,stimuli/rgb_scene000196_render000005.png,1,156,366,207,"[1, 0]",right,0,38,24,m,y,y,2019_Jul_12_1341,2AFC_task,59.96738973298241,
stimuli/rgb_scene000042_render000001.png,stimuli/rgb_scene000042_render000004.png,1,157,367,8,"[0, 1]",right,1,38,24,m,y,y,2019_Jul_12_1341,2AFC_task,59.96738973298241,
stimuli/rgb_scene000165_render000000.png,stimuli/rgb_scene000165_render000006.png,1,158,368,152,"[1, 0]",left,1,38,24,m,y,y,2019_Jul_12_1341,2AFC_task,59.96738973298241,
stimuli/rgb_scene000150_render000001.png,stimuli/rgb_scene000150_render000004.png,1,159,369,113,"[1, 0]",left,1,38,24,m,y,y,2019_Jul_12_1341,2AFC_task,59.96738973298241,
stimuli/rgb_scene000042_render000000.png,stimuli/rgb_scene000042_render000006.png,1,160,370,5,"[0, 1]",right,1,38,24,m,y,y,2019_Jul_12_1341,2AFC_task,59.96738973298241,
stimuli/rgb_scene000196_render000000.png,stimuli/rgb_scene000196_render000002.png,1,161,371,190,"[0, 1]",right,1,38,24,m,y,y,2019_Jul_12_1341,2AFC_task,59.96738973298241,
stimuli/rgb_scene000066_render000000.png,stimuli/rgb_scene000066_render000005.png,1,162,372,67,"[0, 1]",right,1,38,24,m,y,y,2019_Jul_12_1341,2AFC_task,59.96738973298241,
stimuli/rgb_scene000047_render000000.png,stimuli/rgb_scene000047_render000001.png,1,163,373,21,"[0, 1]",right,1,38,24,m,y,y,2019_Jul_12_1341,2AFC_task,59.96738973298241,
stimuli/rgb_scene000047_render000004.png,stimuli/rgb_scene000047_render000005.png,1,164,374,39,"[1, 0]",left,1,38,24,m,y,y,2019_Jul_12_1341,2AFC_task,59.96738973298241,
stimuli/rgb_scene000165_render000000.png,stimuli/rgb_scene000165_render000004.png,1,165,375,150,"[0, 1]",right,1,38,24,m,y,y,2019_Jul_12_1341,2AFC_task,59.96738973298241,
stimuli/rgb_scene000042_render000001.png,stimuli/rgb_scene000042_render000006.png,1,166,376,10,"[0, 1]",right,1,38,24,m,y,y,2019_Jul_12_1341,2AFC_task,59.96738973298241,
stimuli/rgb_scene000165_render000003.png,stimuli/rgb_scene000165_render000006.png,1,167,377,164,"[0, 1]",right,1,38,24,m,y,y,2019_Jul_12_1341,2AFC_task,59.96738973298241,
stimuli/rgb_scene000165_render000001.png,stimuli/rgb_scene000165_render000006.png,1,168,378,157,"[1, 0]",left,1,38,24,m,y,y,2019_Jul_12_1341,2AFC_task,59.96738973298241,
stimuli/rgb_scene000056_render000004.png,stimuli/rgb_scene000056_render000005.png,1,169,379,60,"[1, 0]",left,1,38,24,m,y,y,2019_Jul_12_1341,2AFC_task,59.96738973298241,
stimuli/rgb_scene000056_render000002.png,stimuli/rgb_scene000056_render000004.png,1,170,380,54,"[0, 1]",right,1,38,24,m,y,y,2019_Jul_12_1341,2AFC_task,59.96738973298241,
stimuli/rgb_scene000196_render000000.png,stimuli/rgb_scene000196_render000006.png,1,171,381,194,"[1, 0]",left,1,38,24,m,y,y,2019_Jul_12_1341,2AFC_task,59.96738973298241,
stimuli/rgb_scene000169_render000005.png,stimuli/rgb_scene000169_render000006.png,1,172,382,188,"[0, 1]",right,1,38,24,m,y,y,2019_Jul_12_1341,2AFC_task,59.96738973298241,
stimuli/rgb_scene000147_render000001.png,stimuli/rgb_scene000147_render000003.png,1,173,383,91,"[0, 1]",right,1,38,24,m,y,y,2019_Jul_12_1341,2AFC_task,59.96738973298241,
stimuli/rgb_scene000147_render000001.png,stimuli/rgb_scene000147_render000006.png,1,174,384,94,"[1, 0]",left,1,38,24,m,y,y,2019_Jul_12_1341,2AFC_task,59.96738973298241,
stimuli/rgb_scene000056_render000002.png,stimuli/rgb_scene000056_render000005.png,1,175,385,55,"[0, 1]",right,1,38,24,m,y,y,2019_Jul_12_1341,2AFC_task,59.96738973298241,
stimuli/rgb_scene000196_render000004.png,stimuli/rgb_scene000196_render000006.png,1,176,386,208,"[1, 0]",right,0,38,24,m,y,y,2019_Jul_12_1341,2AFC_task,59.96738973298241,
stimuli/rgb_scene000066_render000005.png,stimuli/rgb_scene000066_render000006.png,1,177,387,83,"[0, 1]",right,1,38,24,m,y,y,2019_Jul_12_1341,2AFC_task,59.96738973298241,
stimuli/rgb_scene000147_render000002.png,stimuli/rgb_scene000147_render000006.png,1,178,388,98,"[1, 0]",left,1,38,24,m,y,y,2019_Jul_12_1341,2AFC_task,59.96738973298241,
stimuli/rgb_scene000150_render000000.png,stimuli/rgb_scene000150_render000006.png,1,179,389,110,"[0, 1]",right,1,38,24,m,y,y,2019_Jul_12_1341,2AFC_task,59.96738973298241,
stimuli/rgb_scene000150_render000001.png,stimuli/rgb_scene000150_render000002.png,1,180,390,111,"[1, 0]",left,1,38,24,m,y,y,2019_Jul_12_1341,2AFC_task,59.96738973298241,
stimuli/rgb_scene000169_render000000.png,stimuli/rgb_scene000169_render000003.png,1,181,391,170,"[0, 1]",right,1,38,24,m,y,y,2019_Jul_12_1341,2AFC_task,59.96738973298241,
stimuli/rgb_scene000042_render000000.png,stimuli/rgb_scene000042_render000001.png,1,182,392,0,"[0, 1]",right,1,38,24,m,y,y,2019_Jul_12_1341,2AFC_task,59.96738973298241,
stimuli/rgb_scene000066_render000003.png,stimuli/rgb_scene000066_render000005.png,1,183,393,79,"[1, 0]",left,1,38,24,m,y,y,2019_Jul_12_1341,2AFC_task,59.96738973298241,
stimuli/rgb_scene000160_render000002.png,stimuli/rgb_scene000160_render000003.png,1,184,394,137,"[0, 1]",right,1,38,24,m,y,y,2019_Jul_12_1341,2AFC_task,59.96738973298241,
stimuli/rgb_scene000056_render000004.png,stimuli/rgb_scene000056_render000006.png,1,185,395,61,"[1, 0]",left,1,38,24,m,y,y,2019_Jul_12_1341,2AFC_task,59.96738973298241,
stimuli/rgb_scene000169_render000001.png,stimuli/rgb_scene000169_render000006.png,1,186,396,178,"[1, 0]",left,1,38,24,m,y,y,2019_Jul_12_1341,2AFC_task,59.96738973298241,
stimuli/rgb_scene000147_render000001.png,stimuli/rgb_scene000147_render000005.png,1,187,397,93,"[0, 1]",right,1,38,24,m,y,y,2019_Jul_12_1341,2AFC_task,59.96738973298241,
stimuli/rgb_scene000165_render000002.png,stimuli/rgb_scene000165_render000004.png,1,188,398,159,"[0, 1]",right,1,38,24,m,y,y,2019_Jul_12_1341,2AFC_task,59.96738973298241,
stimuli/rgb_scene000042_render000005.png,stimuli/rgb_scene000042_render000006.png,1,189,399,20,"[0, 1]",right,1,38,24,m,y,y,2019_Jul_12_1341,2AFC_task,59.96738973298241,
stimuli/rgb_scene000160_render000003.png,stimuli/rgb_scene000160_render000004.png,1,190,400,141,"[0, 1]",right,1,38,24,m,y,y,2019_Jul_12_1341,2AFC_task,59.96738973298241,
stimuli/rgb_scene000042_render000003.png,stimuli/rgb_scene000042_render000004.png,1,191,401,15,"[0, 1]",right,1,38,24,m,y,y,2019_Jul_12_1341,2AFC_task,59.96738973298241,
stimuli/rgb_scene000150_render000001.png,stimuli/rgb_scene000150_render000003.png,1,192,402,112,"[0, 1]",right,1,38,24,m,y,y,2019_Jul_12_1341,2AFC_task,59.96738973298241,
stimuli/rgb_scene000160_render000001.png,stimuli/rgb_scene000160_render000002.png,1,193,403,132,"[0, 1]",right,1,38,24,m,y,y,2019_Jul_12_1341,2AFC_task,59.96738973298241,
stimuli/rgb_scene000056_render000001.png,stimuli/rgb_scene000056_render000003.png,1,194,404,49,"[1, 0]",left,1,38,24,m,y,y,2019_Jul_12_1341,2AFC_task,59.96738973298241,
stimuli/rgb_scene000147_render000003.png,stimuli/rgb_scene000147_render000006.png,1,195,405,101,"[0, 1]",right,1,38,24,m,y,y,2019_Jul_12_1341,2AFC_task,59.96738973298241,
stimuli/rgb_scene000056_render000002.png,stimuli/rgb_scene000056_render000006.png,1,196,406,56,"[1, 0]",left,1,38,24,m,y,y,2019_Jul_12_1341,2AFC_task,59.96738973298241,
stimuli/rgb_scene000150_render000003.png,stimuli/rgb_scene000150_render000005.png,1,197,407,121,"[1, 0]",left,1,38,24,m,y,y,2019_Jul_12_1341,2AFC_task,59.96738973298241,
stimuli/rgb_scene000150_render000004.png,stimuli/rgb_scene000150_render000005.png,1,198,408,123,"[1, 0]",left,1,38,24,m,y,y,2019_Jul_12_1341,2AFC_task,59.96738973298241,
stimuli/rgb_scene000196_render000001.png,stimuli/rgb_scene000196_render000003.png,1,199,409,196,"[0, 1]",right,1,38,24,m,y,y,2019_Jul_12_1341,2AFC_task,59.96738973298241,
stimuli/rgb_scene000169_render000001.png,stimuli/rgb_scene000169_render000002.png,1,200,410,174,"[0, 1]",right,1,38,24,m,y,y,2019_Jul_12_1341,2AFC_task,59.96738973298241,
stimuli/rgb_scene000056_render000000.png,stimuli/rgb_scene000056_render000004.png,1,201,411,45,"[1, 0]",left,1,38,24,m,y,y,2019_Jul_12_1341,2AFC_task,59.96738973298241,
stimuli/rgb_scene000169_render000002.png,stimuli/rgb_scene000169_render000004.png,1,202,412,180,"[1, 0]",left,1,38,24,m,y,y,2019_Jul_12_1341,2AFC_task,59.96738973298241,
stimuli/rgb_scene000150_render000002.png,stimuli/rgb_scene000150_render000004.png,1,203,413,117,"[1, 0]",left,1,38,24,m,y,y,2019_Jul_12_1341,2AFC_task,59.96738973298241,
stimuli/rgb_scene000066_render000001.png,stimuli/rgb_scene000066_render000004.png,1,204,414,71,"[0, 1]",right,1,38,24,m,y,y,2019_Jul_12_1341,2AFC_task,59.96738973298241,
stimuli/rgb_scene000169_render000002.png,stimuli/rgb_scene000169_render000005.png,1,205,415,181,"[0, 1]",right,1,38,24,m,y,y,2019_Jul_12_1341,2AFC_task,59.96738973298241,
stimuli/rgb_scene000047_render000001.png,stimuli/rgb_scene000047_render000005.png,1,206,416,30,"[1, 0]",left,1,38,24,m,y,y,2019_Jul_12_1341,2AFC_task,59.96738973298241,
stimuli/rgb_scene000066_render000002.png,stimuli/rgb_scene000066_render000006.png,1,207,417,77,"[1, 0]",left,1,38,24,m,y,y,2019_Jul_12_1341,2AFC_task,59.96738973298241,
stimuli/rgb_scene000196_render000003.png,stimuli/rgb_scene000196_render000006.png,1,208,418,206,"[1, 0]",right,0,38,24,m,y,y,2019_Jul_12_1341,2AFC_task,59.96738973298241,
stimuli/rgb_scene000042_render000000.png,stimuli/rgb_scene000042_render000004.png,1,209,419,3,"[0, 1]",right,1,38,24,m,y,y,2019_Jul_12_1341,2AFC_task,59.96738973298241,
