stimOne,stimTwo,trials_1.thisRepN,trials_1.thisTrialN,trials_1.thisN,trials_1.thisIndex,presentation_positions,resp_key,corresponding_image,participant ID (two digits, e.g. 01),age,gender (m/f/-),normal or corrected-to-normal vision (y/n),normal colour vision (y/n),date,expName,frameRate,
stimuli/rgb_scene000160_render000005.png,stimuli/rgb_scene000160_render000006.png,0,0,0,146,"[1, 0]",left,1,43,22,f,y,y,2019_Jul_12_1014,2AFC_task,59.98793042728005,
stimuli/rgb_scene000160_render000004.png,stimuli/rgb_scene000160_render000005.png,0,1,1,144,"[0, 1]",right,1,43,22,f,y,y,2019_Jul_12_1014,2AFC_task,59.98793042728005,
stimuli/rgb_scene000066_render000002.png,stimuli/rgb_scene000066_render000004.png,0,2,2,75,"[1, 0]",left,1,43,22,f,y,y,2019_Jul_12_1014,2AFC_task,59.98793042728005,
stimuli/rgb_scene000042_render000001.png,stimuli/rgb_scene000042_render000002.png,0,3,3,6,"[0, 1]",right,1,43,22,f,y,y,2019_Jul_12_1014,2AFC_task,59.98793042728005,
stimuli/rgb_scene000147_render000004.png,stimuli/rgb_scene000147_render000006.png,0,4,4,103,"[1, 0]",left,1,43,22,f,y,y,2019_Jul_12_1014,2AFC_task,59.98793042728005,
stimuli/rgb_scene000047_render000001.png,stimuli/rgb_scene000047_render000006.png,0,5,5,31,"[1, 0]",left,1,43,22,f,y,y,2019_Jul_12_1014,2AFC_task,59.98793042728005,
stimuli/rgb_scene000169_render000001.png,stimuli/rgb_scene000169_render000006.png,0,6,6,178,"[0, 1]",right,1,43,22,f,y,y,2019_Jul_12_1014,2AFC_task,59.98793042728005,
stimuli/rgb_scene000056_render000003.png,stimuli/rgb_scene000056_render000004.png,0,7,7,57,"[0, 1]",right,1,43,22,f,y,y,2019_Jul_12_1014,2AFC_task,59.98793042728005,
stimuli/rgb_scene000169_render000002.png,stimuli/rgb_scene000169_render000003.png,0,8,8,179,"[0, 1]",right,1,43,22,f,y,y,2019_Jul_12_1014,2AFC_task,59.98793042728005,
stimuli/rgb_scene000196_render000000.png,stimuli/rgb_scene000196_render000002.png,0,9,9,190,"[0, 1]",left,0,43,22,f,y,y,2019_Jul_12_1014,2AFC_task,59.98793042728005,
stimuli/rgb_scene000147_render000001.png,stimuli/rgb_scene000147_render000003.png,0,10,10,91,"[1, 0]",left,1,43,22,f,y,y,2019_Jul_12_1014,2AFC_task,59.98793042728005,
stimuli/rgb_scene000147_render000002.png,stimuli/rgb_scene000147_render000003.png,0,11,11,95,"[0, 1]",right,1,43,22,f,y,y,2019_Jul_12_1014,2AFC_task,59.98793042728005,
stimuli/rgb_scene000160_render000002.png,stimuli/rgb_scene000160_render000003.png,0,12,12,137,"[1, 0]",left,1,43,22,f,y,y,2019_Jul_12_1014,2AFC_task,59.98793042728005,
stimuli/rgb_scene000165_render000000.png,stimuli/rgb_scene000165_render000001.png,0,13,13,147,"[0, 1]",right,1,43,22,f,y,y,2019_Jul_12_1014,2AFC_task,59.98793042728005,
stimuli/rgb_scene000150_render000003.png,stimuli/rgb_scene000150_render000005.png,0,14,14,121,"[1, 0]",left,1,43,22,f,y,y,2019_Jul_12_1014,2AFC_task,59.98793042728005,
stimuli/rgb_scene000160_render000002.png,stimuli/rgb_scene000160_render000005.png,0,15,15,139,"[0, 1]",right,1,43,22,f,y,y,2019_Jul_12_1014,2AFC_task,59.98793042728005,
stimuli/rgb_scene000147_render000000.png,stimuli/rgb_scene000147_render000002.png,0,16,16,85,"[1, 0]",left,1,43,22,f,y,y,2019_Jul_12_1014,2AFC_task,59.98793042728005,
stimuli/rgb_scene000165_render000001.png,stimuli/rgb_scene000165_render000004.png,0,17,17,155,"[1, 0]",left,1,43,22,f,y,y,2019_Jul_12_1014,2AFC_task,59.98793042728005,
stimuli/rgb_scene000147_render000001.png,stimuli/rgb_scene000147_render000006.png,0,18,18,94,"[1, 0]",left,1,43,22,f,y,y,2019_Jul_12_1014,2AFC_task,59.98793042728005,
stimuli/rgb_scene000066_render000003.png,stimuli/rgb_scene000066_render000004.png,0,19,19,78,"[1, 0]",left,1,43,22,f,y,y,2019_Jul_12_1014,2AFC_task,59.98793042728005,
stimuli/rgb_scene000160_render000000.png,stimuli/rgb_scene000160_render000002.png,0,20,20,127,"[1, 0]",left,1,43,22,f,y,y,2019_Jul_12_1014,2AFC_task,59.98793042728005,
stimuli/rgb_scene000196_render000000.png,stimuli/rgb_scene000196_render000004.png,0,21,21,192,"[0, 1]",right,1,43,22,f,y,y,2019_Jul_12_1014,2AFC_task,59.98793042728005,
stimuli/rgb_scene000165_render000002.png,stimuli/rgb_scene000165_render000005.png,0,22,22,160,"[1, 0]",left,1,43,22,f,y,y,2019_Jul_12_1014,2AFC_task,59.98793042728005,
stimuli/rgb_scene000160_render000000.png,stimuli/rgb_scene000160_render000003.png,0,23,23,128,"[0, 1]",right,1,43,22,f,y,y,2019_Jul_12_1014,2AFC_task,59.98793042728005,
stimuli/rgb_scene000066_render000001.png,stimuli/rgb_scene000066_render000003.png,0,24,24,70,"[0, 1]",right,1,43,22,f,y,y,2019_Jul_12_1014,2AFC_task,59.98793042728005,
stimuli/rgb_scene000165_render000001.png,stimuli/rgb_scene000165_render000003.png,0,25,25,154,"[1, 0]",left,1,43,22,f,y,y,2019_Jul_12_1014,2AFC_task,59.98793042728005,
stimuli/rgb_scene000196_render000001.png,stimuli/rgb_scene000196_render000005.png,0,26,26,198,"[0, 1]",right,1,43,22,f,y,y,2019_Jul_12_1014,2AFC_task,59.98793042728005,
stimuli/rgb_scene000056_render000003.png,stimuli/rgb_scene000056_render000006.png,0,27,27,59,"[0, 1]",right,1,43,22,f,y,y,2019_Jul_12_1014,2AFC_task,59.98793042728005,
stimuli/rgb_scene000147_render000001.png,stimuli/rgb_scene000147_render000005.png,0,28,28,93,"[0, 1]",right,1,43,22,f,y,y,2019_Jul_12_1014,2AFC_task,59.98793042728005,
stimuli/rgb_scene000042_render000000.png,stimuli/rgb_scene000042_render000005.png,0,29,29,4,"[1, 0]",left,1,43,22,f,y,y,2019_Jul_12_1014,2AFC_task,59.98793042728005,
stimuli/rgb_scene000165_render000004.png,stimuli/rgb_scene000165_render000006.png,0,30,30,166,"[1, 0]",left,1,43,22,f,y,y,2019_Jul_12_1014,2AFC_task,59.98793042728005,
stimuli/rgb_scene000196_render000002.png,stimuli/rgb_scene000196_render000003.png,0,31,31,200,"[0, 1]",right,1,43,22,f,y,y,2019_Jul_12_1014,2AFC_task,59.98793042728005,
stimuli/rgb_scene000042_render000001.png,stimuli/rgb_scene000042_render000006.png,0,32,32,10,"[0, 1]",right,1,43,22,f,y,y,2019_Jul_12_1014,2AFC_task,59.98793042728005,
stimuli/rgb_scene000056_render000001.png,stimuli/rgb_scene000056_render000003.png,0,33,33,49,"[0, 1]",right,1,43,22,f,y,y,2019_Jul_12_1014,2AFC_task,59.98793042728005,
stimuli/rgb_scene000147_render000002.png,stimuli/rgb_scene000147_render000006.png,0,34,34,98,"[1, 0]",left,1,43,22,f,y,y,2019_Jul_12_1014,2AFC_task,59.98793042728005,
stimuli/rgb_scene000066_render000000.png,stimuli/rgb_scene000066_render000001.png,0,35,35,63,"[1, 0]",left,1,43,22,f,y,y,2019_Jul_12_1014,2AFC_task,59.98793042728005,
stimuli/rgb_scene000169_render000000.png,stimuli/rgb_scene000169_render000006.png,0,36,36,173,"[1, 0]",left,1,43,22,f,y,y,2019_Jul_12_1014,2AFC_task,59.98793042728005,
stimuli/rgb_scene000165_render000000.png,stimuli/rgb_scene000165_render000005.png,0,37,37,151,"[0, 1]",right,1,43,22,f,y,y,2019_Jul_12_1014,2AFC_task,59.98793042728005,
stimuli/rgb_scene000066_render000002.png,stimuli/rgb_scene000066_render000006.png,0,38,38,77,"[1, 0]",left,1,43,22,f,y,y,2019_Jul_12_1014,2AFC_task,59.98793042728005,
stimuli/rgb_scene000047_render000000.png,stimuli/rgb_scene000047_render000001.png,0,39,39,21,"[0, 1]",right,1,43,22,f,y,y,2019_Jul_12_1014,2AFC_task,59.98793042728005,
stimuli/rgb_scene000196_render000000.png,stimuli/rgb_scene000196_render000001.png,0,40,40,189,"[0, 1]",left,0,43,22,f,y,y,2019_Jul_12_1014,2AFC_task,59.98793042728005,
stimuli/rgb_scene000165_render000003.png,stimuli/rgb_scene000165_render000004.png,0,41,41,162,"[1, 0]",left,1,43,22,f,y,y,2019_Jul_12_1014,2AFC_task,59.98793042728005,
stimuli/rgb_scene000147_render000002.png,stimuli/rgb_scene000147_render000005.png,0,42,42,97,"[0, 1]",right,1,43,22,f,y,y,2019_Jul_12_1014,2AFC_task,59.98793042728005,
stimuli/rgb_scene000150_render000001.png,stimuli/rgb_scene000150_render000005.png,0,43,43,114,"[0, 1]",right,1,43,22,f,y,y,2019_Jul_12_1014,2AFC_task,59.98793042728005,
stimuli/rgb_scene000150_render000002.png,stimuli/rgb_scene000150_render000003.png,0,44,44,116,"[1, 0]",left,1,43,22,f,y,y,2019_Jul_12_1014,2AFC_task,59.98793042728005,
stimuli/rgb_scene000042_render000003.png,stimuli/rgb_scene000042_render000006.png,0,45,45,17,"[1, 0]",left,1,43,22,f,y,y,2019_Jul_12_1014,2AFC_task,59.98793042728005,
stimuli/rgb_scene000066_render000002.png,stimuli/rgb_scene000066_render000005.png,0,46,46,76,"[0, 1]",right,1,43,22,f,y,y,2019_Jul_12_1014,2AFC_task,59.98793042728005,
stimuli/rgb_scene000042_render000000.png,stimuli/rgb_scene000042_render000003.png,0,47,47,2,"[0, 1]",right,1,43,22,f,y,y,2019_Jul_12_1014,2AFC_task,59.98793042728005,
stimuli/rgb_scene000165_render000000.png,stimuli/rgb_scene000165_render000003.png,0,48,48,149,"[1, 0]",left,1,43,22,f,y,y,2019_Jul_12_1014,2AFC_task,59.98793042728005,
stimuli/rgb_scene000165_render000000.png,stimuli/rgb_scene000165_render000006.png,0,49,49,152,"[1, 0]",left,1,43,22,f,y,y,2019_Jul_12_1014,2AFC_task,59.98793042728005,
stimuli/rgb_scene000196_render000001.png,stimuli/rgb_scene000196_render000006.png,0,50,50,199,"[1, 0]",right,0,43,22,f,y,y,2019_Jul_12_1014,2AFC_task,59.98793042728005,
stimuli/rgb_scene000196_render000001.png,stimuli/rgb_scene000196_render000002.png,0,51,51,195,"[1, 0]",right,0,43,22,f,y,y,2019_Jul_12_1014,2AFC_task,59.98793042728005,
stimuli/rgb_scene000042_render000001.png,stimuli/rgb_scene000042_render000005.png,0,52,52,9,"[0, 1]",right,1,43,22,f,y,y,2019_Jul_12_1014,2AFC_task,59.98793042728005,
stimuli/rgb_scene000066_render000000.png,stimuli/rgb_scene000066_render000006.png,0,53,53,68,"[1, 0]",left,1,43,22,f,y,y,2019_Jul_12_1014,2AFC_task,59.98793042728005,
stimuli/rgb_scene000196_render000003.png,stimuli/rgb_scene000196_render000004.png,0,54,54,204,"[0, 1]",right,1,43,22,f,y,y,2019_Jul_12_1014,2AFC_task,59.98793042728005,
stimuli/rgb_scene000169_render000004.png,stimuli/rgb_scene000169_render000006.png,0,55,55,187,"[0, 1]",right,1,43,22,f,y,y,2019_Jul_12_1014,2AFC_task,59.98793042728005,
stimuli/rgb_scene000056_render000003.png,stimuli/rgb_scene000056_render000005.png,0,56,56,58,"[0, 1]",right,1,43,22,f,y,y,2019_Jul_12_1014,2AFC_task,59.98793042728005,
stimuli/rgb_scene000165_render000005.png,stimuli/rgb_scene000165_render000006.png,0,57,57,167,"[0, 1]",right,1,43,22,f,y,y,2019_Jul_12_1014,2AFC_task,59.98793042728005,
stimuli/rgb_scene000160_render000003.png,stimuli/rgb_scene000160_render000005.png,0,58,58,142,"[0, 1]",right,1,43,22,f,y,y,2019_Jul_12_1014,2AFC_task,59.98793042728005,
stimuli/rgb_scene000147_render000003.png,stimuli/rgb_scene000147_render000006.png,0,59,59,101,"[1, 0]",left,1,43,22,f,y,y,2019_Jul_12_1014,2AFC_task,59.98793042728005,
stimuli/rgb_scene000160_render000003.png,stimuli/rgb_scene000160_render000004.png,0,60,60,141,"[1, 0]",left,1,43,22,f,y,y,2019_Jul_12_1014,2AFC_task,59.98793042728005,
stimuli/rgb_scene000056_render000000.png,stimuli/rgb_scene000056_render000004.png,0,61,61,45,"[1, 0]",left,1,43,22,f,y,y,2019_Jul_12_1014,2AFC_task,59.98793042728005,
stimuli/rgb_scene000056_render000002.png,stimuli/rgb_scene000056_render000003.png,0,62,62,53,"[1, 0]",left,1,43,22,f,y,y,2019_Jul_12_1014,2AFC_task,59.98793042728005,
stimuli/rgb_scene000047_render000003.png,stimuli/rgb_scene000047_render000006.png,0,63,63,38,"[0, 1]",right,1,43,22,f,y,y,2019_Jul_12_1014,2AFC_task,59.98793042728005,
stimuli/rgb_scene000042_render000002.png,stimuli/rgb_scene000042_render000004.png,0,64,64,12,"[1, 0]",left,1,43,22,f,y,y,2019_Jul_12_1014,2AFC_task,59.98793042728005,
stimuli/rgb_scene000047_render000002.png,stimuli/rgb_scene000047_render000004.png,0,65,65,33,"[1, 0]",left,1,43,22,f,y,y,2019_Jul_12_1014,2AFC_task,59.98793042728005,
stimuli/rgb_scene000196_render000002.png,stimuli/rgb_scene000196_render000004.png,0,66,66,201,"[1, 0]",right,0,43,22,f,y,y,2019_Jul_12_1014,2AFC_task,59.98793042728005,
stimuli/rgb_scene000056_render000001.png,stimuli/rgb_scene000056_render000004.png,0,67,67,50,"[1, 0]",left,1,43,22,f,y,y,2019_Jul_12_1014,2AFC_task,59.98793042728005,
stimuli/rgb_scene000196_render000000.png,stimuli/rgb_scene000196_render000003.png,0,68,68,191,"[0, 1]",right,1,43,22,f,y,y,2019_Jul_12_1014,2AFC_task,59.98793042728005,
stimuli/rgb_scene000066_render000003.png,stimuli/rgb_scene000066_render000006.png,0,69,69,80,"[1, 0]",left,1,43,22,f,y,y,2019_Jul_12_1014,2AFC_task,59.98793042728005,
stimuli/rgb_scene000066_render000000.png,stimuli/rgb_scene000066_render000003.png,0,70,70,65,"[0, 1]",right,1,43,22,f,y,y,2019_Jul_12_1014,2AFC_task,59.98793042728005,
stimuli/rgb_scene000056_render000000.png,stimuli/rgb_scene000056_render000002.png,0,71,71,43,"[0, 1]",right,1,43,22,f,y,y,2019_Jul_12_1014,2AFC_task,59.98793042728005,
stimuli/rgb_scene000066_render000001.png,stimuli/rgb_scene000066_render000006.png,0,72,72,73,"[0, 1]",right,1,43,22,f,y,y,2019_Jul_12_1014,2AFC_task,59.98793042728005,
stimuli/rgb_scene000150_render000002.png,stimuli/rgb_scene000150_render000005.png,0,73,73,118,"[1, 0]",left,1,43,22,f,y,y,2019_Jul_12_1014,2AFC_task,59.98793042728005,
stimuli/rgb_scene000160_render000000.png,stimuli/rgb_scene000160_render000004.png,0,74,74,129,"[0, 1]",right,1,43,22,f,y,y,2019_Jul_12_1014,2AFC_task,59.98793042728005,
stimuli/rgb_scene000169_render000001.png,stimuli/rgb_scene000169_render000005.png,0,75,75,177,"[0, 1]",right,1,43,22,f,y,y,2019_Jul_12_1014,2AFC_task,59.98793042728005,
stimuli/rgb_scene000147_render000000.png,stimuli/rgb_scene000147_render000006.png,0,76,76,89,"[1, 0]",left,1,43,22,f,y,y,2019_Jul_12_1014,2AFC_task,59.98793042728005,
stimuli/rgb_scene000150_render000000.png,stimuli/rgb_scene000150_render000006.png,0,77,77,110,"[0, 1]",right,1,43,22,f,y,y,2019_Jul_12_1014,2AFC_task,59.98793042728005,
stimuli/rgb_scene000056_render000000.png,stimuli/rgb_scene000056_render000005.png,0,78,78,46,"[0, 1]",right,1,43,22,f,y,y,2019_Jul_12_1014,2AFC_task,59.98793042728005,
stimuli/rgb_scene000160_render000002.png,stimuli/rgb_scene000160_render000006.png,0,79,79,140,"[1, 0]",left,1,43,22,f,y,y,2019_Jul_12_1014,2AFC_task,59.98793042728005,
stimuli/rgb_scene000169_render000002.png,stimuli/rgb_scene000169_render000004.png,0,80,80,180,"[0, 1]",right,1,43,22,f,y,y,2019_Jul_12_1014,2AFC_task,59.98793042728005,
stimuli/rgb_scene000150_render000002.png,stimuli/rgb_scene000150_render000006.png,0,81,81,119,"[1, 0]",left,1,43,22,f,y,y,2019_Jul_12_1014,2AFC_task,59.98793042728005,
stimuli/rgb_scene000066_render000002.png,stimuli/rgb_scene000066_render000003.png,0,82,82,74,"[0, 1]",right,1,43,22,f,y,y,2019_Jul_12_1014,2AFC_task,59.98793042728005,
stimuli/rgb_scene000042_render000003.png,stimuli/rgb_scene000042_render000004.png,0,83,83,15,"[1, 0]",left,1,43,22,f,y,y,2019_Jul_12_1014,2AFC_task,59.98793042728005,
stimuli/rgb_scene000047_render000002.png,stimuli/rgb_scene000047_render000005.png,0,84,84,34,"[0, 1]",right,1,43,22,f,y,y,2019_Jul_12_1014,2AFC_task,59.98793042728005,
stimuli/rgb_scene000042_render000004.png,stimuli/rgb_scene000042_render000006.png,0,85,85,19,"[0, 1]",right,1,43,22,f,y,y,2019_Jul_12_1014,2AFC_task,59.98793042728005,
stimuli/rgb_scene000147_render000005.png,stimuli/rgb_scene000147_render000006.png,0,86,86,104,"[1, 0]",left,1,43,22,f,y,y,2019_Jul_12_1014,2AFC_task,59.98793042728005,
stimuli/rgb_scene000169_render000000.png,stimuli/rgb_scene000169_render000001.png,0,87,87,168,"[0, 1]",right,1,43,22,f,y,y,2019_Jul_12_1014,2AFC_task,59.98793042728005,
stimuli/rgb_scene000196_render000003.png,stimuli/rgb_scene000196_render000005.png,0,88,88,205,"[0, 1]",left,0,43,22,f,y,y,2019_Jul_12_1014,2AFC_task,59.98793042728005,
stimuli/rgb_scene000196_render000004.png,stimuli/rgb_scene000196_render000005.png,0,89,89,207,"[0, 1]",left,0,43,22,f,y,y,2019_Jul_12_1014,2AFC_task,59.98793042728005,
stimuli/rgb_scene000150_render000000.png,stimuli/rgb_scene000150_render000004.png,0,90,90,108,"[1, 0]",left,1,43,22,f,y,y,2019_Jul_12_1014,2AFC_task,59.98793042728005,
stimuli/rgb_scene000196_render000001.png,stimuli/rgb_scene000196_render000003.png,0,91,91,196,"[0, 1]",right,1,43,22,f,y,y,2019_Jul_12_1014,2AFC_task,59.98793042728005,
stimuli/rgb_scene000165_render000001.png,stimuli/rgb_scene000165_render000005.png,0,92,92,156,"[1, 0]",left,1,43,22,f,y,y,2019_Jul_12_1014,2AFC_task,59.98793042728005,
stimuli/rgb_scene000169_render000004.png,stimuli/rgb_scene000169_render000005.png,0,93,93,186,"[1, 0]",left,1,43,22,f,y,y,2019_Jul_12_1014,2AFC_task,59.98793042728005,
stimuli/rgb_scene000056_render000000.png,stimuli/rgb_scene000056_render000006.png,0,94,94,47,"[1, 0]",left,1,43,22,f,y,y,2019_Jul_12_1014,2AFC_task,59.98793042728005,
stimuli/rgb_scene000042_render000000.png,stimuli/rgb_scene000042_render000002.png,0,95,95,1,"[1, 0]",left,1,43,22,f,y,y,2019_Jul_12_1014,2AFC_task,59.98793042728005,
stimuli/rgb_scene000047_render000002.png,stimuli/rgb_scene000047_render000003.png,0,96,96,32,"[1, 0]",left,1,43,22,f,y,y,2019_Jul_12_1014,2AFC_task,59.98793042728005,
stimuli/rgb_scene000169_render000002.png,stimuli/rgb_scene000169_render000006.png,0,97,97,182,"[1, 0]",left,1,43,22,f,y,y,2019_Jul_12_1014,2AFC_task,59.98793042728005,
stimuli/rgb_scene000042_render000001.png,stimuli/rgb_scene000042_render000004.png,0,98,98,8,"[0, 1]",right,1,43,22,f,y,y,2019_Jul_12_1014,2AFC_task,59.98793042728005,
stimuli/rgb_scene000147_render000000.png,stimuli/rgb_scene000147_render000005.png,0,99,99,88,"[1, 0]",left,1,43,22,f,y,y,2019_Jul_12_1014,2AFC_task,59.98793042728005,
stimuli/rgb_scene000042_render000000.png,stimuli/rgb_scene000042_render000004.png,0,100,100,3,"[0, 1]",right,1,43,22,f,y,y,2019_Jul_12_1014,2AFC_task,59.98793042728005,
stimuli/rgb_scene000147_render000000.png,stimuli/rgb_scene000147_render000004.png,0,101,101,87,"[0, 1]",right,1,43,22,f,y,y,2019_Jul_12_1014,2AFC_task,59.98793042728005,
stimuli/rgb_scene000196_render000000.png,stimuli/rgb_scene000196_render000005.png,0,102,102,193,"[0, 1]",left,0,43,22,f,y,y,2019_Jul_12_1014,2AFC_task,59.98793042728005,
stimuli/rgb_scene000066_render000004.png,stimuli/rgb_scene000066_render000005.png,0,103,103,81,"[1, 0]",left,1,43,22,f,y,y,2019_Jul_12_1014,2AFC_task,59.98793042728005,
stimuli/rgb_scene000047_render000001.png,stimuli/rgb_scene000047_render000004.png,0,104,104,29,"[0, 1]",right,1,43,22,f,y,y,2019_Jul_12_1014,2AFC_task,59.98793042728005,
stimuli/rgb_scene000169_render000000.png,stimuli/rgb_scene000169_render000005.png,0,105,105,172,"[1, 0]",left,1,43,22,f,y,y,2019_Jul_12_1014,2AFC_task,59.98793042728005,
stimuli/rgb_scene000169_render000000.png,stimuli/rgb_scene000169_render000004.png,0,106,106,171,"[1, 0]",right,0,43,22,f,y,y,2019_Jul_12_1014,2AFC_task,59.98793042728005,
stimuli/rgb_scene000169_render000000.png,stimuli/rgb_scene000169_render000002.png,0,107,107,169,"[0, 1]",right,1,43,22,f,y,y,2019_Jul_12_1014,2AFC_task,59.98793042728005,
stimuli/rgb_scene000160_render000002.png,stimuli/rgb_scene000160_render000004.png,0,108,108,138,"[1, 0]",left,1,43,22,f,y,y,2019_Jul_12_1014,2AFC_task,59.98793042728005,
stimuli/rgb_scene000165_render000002.png,stimuli/rgb_scene000165_render000003.png,0,109,109,158,"[0, 1]",right,1,43,22,f,y,y,2019_Jul_12_1014,2AFC_task,59.98793042728005,
stimuli/rgb_scene000150_render000001.png,stimuli/rgb_scene000150_render000006.png,0,110,110,115,"[0, 1]",right,1,43,22,f,y,y,2019_Jul_12_1014,2AFC_task,59.98793042728005,
stimuli/rgb_scene000047_render000000.png,stimuli/rgb_scene000047_render000006.png,0,111,111,26,"[1, 0]",left,1,43,22,f,y,y,2019_Jul_12_1014,2AFC_task,59.98793042728005,
stimuli/rgb_scene000160_render000000.png,stimuli/rgb_scene000160_render000006.png,0,112,112,131,"[1, 0]",left,1,43,22,f,y,y,2019_Jul_12_1014,2AFC_task,59.98793042728005,
stimuli/rgb_scene000066_render000001.png,stimuli/rgb_scene000066_render000005.png,0,113,113,72,"[1, 0]",left,1,43,22,f,y,y,2019_Jul_12_1014,2AFC_task,59.98793042728005,
stimuli/rgb_scene000056_render000002.png,stimuli/rgb_scene000056_render000004.png,0,114,114,54,"[0, 1]",right,1,43,22,f,y,y,2019_Jul_12_1014,2AFC_task,59.98793042728005,
stimuli/rgb_scene000042_render000004.png,stimuli/rgb_scene000042_render000005.png,0,115,115,18,"[1, 0]",left,1,43,22,f,y,y,2019_Jul_12_1014,2AFC_task,59.98793042728005,
stimuli/rgb_scene000147_render000000.png,stimuli/rgb_scene000147_render000003.png,0,116,116,86,"[0, 1]",right,1,43,22,f,y,y,2019_Jul_12_1014,2AFC_task,59.98793042728005,
stimuli/rgb_scene000147_render000001.png,stimuli/rgb_scene000147_render000004.png,0,117,117,92,"[1, 0]",left,1,43,22,f,y,y,2019_Jul_12_1014,2AFC_task,59.98793042728005,
stimuli/rgb_scene000169_render000001.png,stimuli/rgb_scene000169_render000002.png,0,118,118,174,"[1, 0]",right,0,43,22,f,y,y,2019_Jul_12_1014,2AFC_task,59.98793042728005,
stimuli/rgb_scene000056_render000002.png,stimuli/rgb_scene000056_render000005.png,0,119,119,55,"[0, 1]",right,1,43,22,f,y,y,2019_Jul_12_1014,2AFC_task,59.98793042728005,
stimuli/rgb_scene000165_render000003.png,stimuli/rgb_scene000165_render000006.png,0,120,120,164,"[1, 0]",left,1,43,22,f,y,y,2019_Jul_12_1014,2AFC_task,59.98793042728005,
stimuli/rgb_scene000066_render000003.png,stimuli/rgb_scene000066_render000005.png,0,121,121,79,"[0, 1]",right,1,43,22,f,y,y,2019_Jul_12_1014,2AFC_task,59.98793042728005,
stimuli/rgb_scene000150_render000001.png,stimuli/rgb_scene000150_render000002.png,0,122,122,111,"[1, 0]",left,1,43,22,f,y,y,2019_Jul_12_1014,2AFC_task,59.98793042728005,
stimuli/rgb_scene000169_render000003.png,stimuli/rgb_scene000169_render000006.png,0,123,123,185,"[1, 0]",left,1,43,22,f,y,y,2019_Jul_12_1014,2AFC_task,59.98793042728005,
stimuli/rgb_scene000066_render000001.png,stimuli/rgb_scene000066_render000002.png,0,124,124,69,"[0, 1]",right,1,43,22,f,y,y,2019_Jul_12_1014,2AFC_task,59.98793042728005,
stimuli/rgb_scene000150_render000000.png,stimuli/rgb_scene000150_render000003.png,0,125,125,107,"[0, 1]",right,1,43,22,f,y,y,2019_Jul_12_1014,2AFC_task,59.98793042728005,
stimuli/rgb_scene000056_render000001.png,stimuli/rgb_scene000056_render000005.png,0,126,126,51,"[0, 1]",right,1,43,22,f,y,y,2019_Jul_12_1014,2AFC_task,59.98793042728005,
stimuli/rgb_scene000169_render000002.png,stimuli/rgb_scene000169_render000005.png,0,127,127,181,"[0, 1]",right,1,43,22,f,y,y,2019_Jul_12_1014,2AFC_task,59.98793042728005,
stimuli/rgb_scene000047_render000003.png,stimuli/rgb_scene000047_render000005.png,0,128,128,37,"[1, 0]",left,1,43,22,f,y,y,2019_Jul_12_1014,2AFC_task,59.98793042728005,
stimuli/rgb_scene000150_render000003.png,stimuli/rgb_scene000150_render000006.png,0,129,129,122,"[1, 0]",right,0,43,22,f,y,y,2019_Jul_12_1014,2AFC_task,59.98793042728005,
stimuli/rgb_scene000042_render000002.png,stimuli/rgb_scene000042_render000003.png,0,130,130,11,"[1, 0]",left,1,43,22,f,y,y,2019_Jul_12_1014,2AFC_task,59.98793042728005,
stimuli/rgb_scene000066_render000001.png,stimuli/rgb_scene000066_render000004.png,0,131,131,71,"[0, 1]",right,1,43,22,f,y,y,2019_Jul_12_1014,2AFC_task,59.98793042728005,
stimuli/rgb_scene000066_render000000.png,stimuli/rgb_scene000066_render000004.png,0,132,132,66,"[0, 1]",right,1,43,22,f,y,y,2019_Jul_12_1014,2AFC_task,59.98793042728005,
stimuli/rgb_scene000150_render000001.png,stimuli/rgb_scene000150_render000004.png,0,133,133,113,"[1, 0]",left,1,43,22,f,y,y,2019_Jul_12_1014,2AFC_task,59.98793042728005,
stimuli/rgb_scene000169_render000001.png,stimuli/rgb_scene000169_render000004.png,0,134,134,176,"[1, 0]",right,0,43,22,f,y,y,2019_Jul_12_1014,2AFC_task,59.98793042728005,
stimuli/rgb_scene000165_render000002.png,stimuli/rgb_scene000165_render000006.png,0,135,135,161,"[0, 1]",right,1,43,22,f,y,y,2019_Jul_12_1014,2AFC_task,59.98793042728005,
stimuli/rgb_scene000042_render000003.png,stimuli/rgb_scene000042_render000005.png,0,136,136,16,"[1, 0]",left,1,43,22,f,y,y,2019_Jul_12_1014,2AFC_task,59.98793042728005,
stimuli/rgb_scene000066_render000000.png,stimuli/rgb_scene000066_render000005.png,0,137,137,67,"[0, 1]",right,1,43,22,f,y,y,2019_Jul_12_1014,2AFC_task,59.98793042728005,
stimuli/rgb_scene000147_render000003.png,stimuli/rgb_scene000147_render000004.png,0,138,138,99,"[1, 0]",left,1,43,22,f,y,y,2019_Jul_12_1014,2AFC_task,59.98793042728005,
stimuli/rgb_scene000066_render000000.png,stimuli/rgb_scene000066_render000002.png,0,139,139,64,"[1, 0]",left,1,43,22,f,y,y,2019_Jul_12_1014,2AFC_task,59.98793042728005,
stimuli/rgb_scene000047_render000002.png,stimuli/rgb_scene000047_render000006.png,0,140,140,35,"[0, 1]",right,1,43,22,f,y,y,2019_Jul_12_1014,2AFC_task,59.98793042728005,
stimuli/rgb_scene000066_render000005.png,stimuli/rgb_scene000066_render000006.png,0,141,141,83,"[0, 1]",right,1,43,22,f,y,y,2019_Jul_12_1014,2AFC_task,59.98793042728005,
stimuli/rgb_scene000165_render000001.png,stimuli/rgb_scene000165_render000006.png,0,142,142,157,"[0, 1]",right,1,43,22,f,y,y,2019_Jul_12_1014,2AFC_task,59.98793042728005,
stimuli/rgb_scene000056_render000000.png,stimuli/rgb_scene000056_render000001.png,0,143,143,42,"[1, 0]",left,1,43,22,f,y,y,2019_Jul_12_1014,2AFC_task,59.98793042728005,
stimuli/rgb_scene000169_render000003.png,stimuli/rgb_scene000169_render000004.png,0,144,144,183,"[0, 1]",right,1,43,22,f,y,y,2019_Jul_12_1014,2AFC_task,59.98793042728005,
stimuli/rgb_scene000047_render000004.png,stimuli/rgb_scene000047_render000005.png,0,145,145,39,"[1, 0]",left,1,43,22,f,y,y,2019_Jul_12_1014,2AFC_task,59.98793042728005,
stimuli/rgb_scene000047_render000001.png,stimuli/rgb_scene000047_render000003.png,0,146,146,28,"[0, 1]",right,1,43,22,f,y,y,2019_Jul_12_1014,2AFC_task,59.98793042728005,
stimuli/rgb_scene000165_render000000.png,stimuli/rgb_scene000165_render000002.png,0,147,147,148,"[0, 1]",right,1,43,22,f,y,y,2019_Jul_12_1014,2AFC_task,59.98793042728005,
stimuli/rgb_scene000042_render000000.png,stimuli/rgb_scene000042_render000001.png,0,148,148,0,"[1, 0]",left,1,43,22,f,y,y,2019_Jul_12_1014,2AFC_task,59.98793042728005,
stimuli/rgb_scene000169_render000000.png,stimuli/rgb_scene000169_render000003.png,0,149,149,170,"[1, 0]",left,1,43,22,f,y,y,2019_Jul_12_1014,2AFC_task,59.98793042728005,
stimuli/rgb_scene000150_render000004.png,stimuli/rgb_scene000150_render000006.png,0,150,150,124,"[1, 0]",right,0,43,22,f,y,y,2019_Jul_12_1014,2AFC_task,59.98793042728005,
stimuli/rgb_scene000160_render000004.png,stimuli/rgb_scene000160_render000006.png,0,151,151,145,"[0, 1]",right,1,43,22,f,y,y,2019_Jul_12_1014,2AFC_task,59.98793042728005,
stimuli/rgb_scene000047_render000005.png,stimuli/rgb_scene000047_render000006.png,0,152,152,41,"[0, 1]",right,1,43,22,f,y,y,2019_Jul_12_1014,2AFC_task,59.98793042728005,
stimuli/rgb_scene000150_render000002.png,stimuli/rgb_scene000150_render000004.png,0,153,153,117,"[1, 0]",left,1,43,22,f,y,y,2019_Jul_12_1014,2AFC_task,59.98793042728005,
stimuli/rgb_scene000160_render000001.png,stimuli/rgb_scene000160_render000005.png,0,154,154,135,"[1, 0]",left,1,43,22,f,y,y,2019_Jul_12_1014,2AFC_task,59.98793042728005,
stimuli/rgb_scene000056_render000005.png,stimuli/rgb_scene000056_render000006.png,0,155,155,62,"[0, 1]",right,1,43,22,f,y,y,2019_Jul_12_1014,2AFC_task,59.98793042728005,
stimuli/rgb_scene000147_render000003.png,stimuli/rgb_scene000147_render000005.png,0,156,156,100,"[1, 0]",left,1,43,22,f,y,y,2019_Jul_12_1014,2AFC_task,59.98793042728005,
stimuli/rgb_scene000056_render000000.png,stimuli/rgb_scene000056_render000003.png,0,157,157,44,"[0, 1]",right,1,43,22,f,y,y,2019_Jul_12_1014,2AFC_task,59.98793042728005,
stimuli/rgb_scene000047_render000003.png,stimuli/rgb_scene000047_render000004.png,0,158,158,36,"[0, 1]",right,1,43,22,f,y,y,2019_Jul_12_1014,2AFC_task,59.98793042728005,
stimuli/rgb_scene000165_render000004.png,stimuli/rgb_scene000165_render000005.png,0,159,159,165,"[1, 0]",left,1,43,22,f,y,y,2019_Jul_12_1014,2AFC_task,59.98793042728005,
stimuli/rgb_scene000056_render000004.png,stimuli/rgb_scene000056_render000006.png,0,160,160,61,"[1, 0]",left,1,43,22,f,y,y,2019_Jul_12_1014,2AFC_task,59.98793042728005,
stimuli/rgb_scene000047_render000000.png,stimuli/rgb_scene000047_render000004.png,0,161,161,24,"[1, 0]",left,1,43,22,f,y,y,2019_Jul_12_1014,2AFC_task,59.98793042728005,
stimuli/rgb_scene000150_render000000.png,stimuli/rgb_scene000150_render000002.png,0,162,162,106,"[0, 1]",right,1,43,22,f,y,y,2019_Jul_12_1014,2AFC_task,59.98793042728005,
stimuli/rgb_scene000056_render000004.png,stimuli/rgb_scene000056_render000005.png,0,163,163,60,"[1, 0]",left,1,43,22,f,y,y,2019_Jul_12_1014,2AFC_task,59.98793042728005,
stimuli/rgb_scene000160_render000000.png,stimuli/rgb_scene000160_render000001.png,0,164,164,126,"[0, 1]",right,1,43,22,f,y,y,2019_Jul_12_1014,2AFC_task,59.98793042728005,
stimuli/rgb_scene000196_render000002.png,stimuli/rgb_scene000196_render000006.png,0,165,165,203,"[0, 1]",right,1,43,22,f,y,y,2019_Jul_12_1014,2AFC_task,59.98793042728005,
stimuli/rgb_scene000196_render000000.png,stimuli/rgb_scene000196_render000006.png,0,166,166,194,"[1, 0]",left,1,43,22,f,y,y,2019_Jul_12_1014,2AFC_task,59.98793042728005,
stimuli/rgb_scene000147_render000000.png,stimuli/rgb_scene000147_render000001.png,0,167,167,84,"[1, 0]",left,1,43,22,f,y,y,2019_Jul_12_1014,2AFC_task,59.98793042728005,
stimuli/rgb_scene000042_render000005.png,stimuli/rgb_scene000042_render000006.png,0,168,168,20,"[0, 1]",right,1,43,22,f,y,y,2019_Jul_12_1014,2AFC_task,59.98793042728005,
stimuli/rgb_scene000056_render000002.png,stimuli/rgb_scene000056_render000006.png,0,169,169,56,"[1, 0]",left,1,43,22,f,y,y,2019_Jul_12_1014,2AFC_task,59.98793042728005,
stimuli/rgb_scene000196_render000003.png,stimuli/rgb_scene000196_render000006.png,0,170,170,206,"[0, 1]",right,1,43,22,f,y,y,2019_Jul_12_1014,2AFC_task,59.98793042728005,
stimuli/rgb_scene000160_render000000.png,stimuli/rgb_scene000160_render000005.png,0,171,171,130,"[0, 1]",right,1,43,22,f,y,y,2019_Jul_12_1014,2AFC_task,59.98793042728005,
stimuli/rgb_scene000150_render000000.png,stimuli/rgb_scene000150_render000005.png,0,172,172,109,"[1, 0]",left,1,43,22,f,y,y,2019_Jul_12_1014,2AFC_task,59.98793042728005,
stimuli/rgb_scene000042_render000002.png,stimuli/rgb_scene000042_render000005.png,0,173,173,13,"[1, 0]",left,1,43,22,f,y,y,2019_Jul_12_1014,2AFC_task,59.98793042728005,
stimuli/rgb_scene000047_render000001.png,stimuli/rgb_scene000047_render000005.png,0,174,174,30,"[1, 0]",left,1,43,22,f,y,y,2019_Jul_12_1014,2AFC_task,59.98793042728005,
stimuli/rgb_scene000160_render000003.png,stimuli/rgb_scene000160_render000006.png,0,175,175,143,"[0, 1]",right,1,43,22,f,y,y,2019_Jul_12_1014,2AFC_task,59.98793042728005,
stimuli/rgb_scene000150_render000000.png,stimuli/rgb_scene000150_render000001.png,0,176,176,105,"[0, 1]",right,1,43,22,f,y,y,2019_Jul_12_1014,2AFC_task,59.98793042728005,
stimuli/rgb_scene000160_render000001.png,stimuli/rgb_scene000160_render000003.png,0,177,177,133,"[1, 0]",left,1,43,22,f,y,y,2019_Jul_12_1014,2AFC_task,59.98793042728005,
stimuli/rgb_scene000066_render000004.png,stimuli/rgb_scene000066_render000006.png,0,178,178,82,"[0, 1]",right,1,43,22,f,y,y,2019_Jul_12_1014,2AFC_task,59.98793042728005,
stimuli/rgb_scene000047_render000001.png,stimuli/rgb_scene000047_render000002.png,0,179,179,27,"[0, 1]",right,1,43,22,f,y,y,2019_Jul_12_1014,2AFC_task,59.98793042728005,
stimuli/rgb_scene000150_render000003.png,stimuli/rgb_scene000150_render000004.png,0,180,180,120,"[1, 0]",left,1,43,22,f,y,y,2019_Jul_12_1014,2AFC_task,59.98793042728005,
stimuli/rgb_scene000169_render000001.png,stimuli/rgb_scene000169_render000003.png,0,181,181,175,"[1, 0]",right,0,43,22,f,y,y,2019_Jul_12_1014,2AFC_task,59.98793042728005,
stimuli/rgb_scene000196_render000005.png,stimuli/rgb_scene000196_render000006.png,0,182,182,209,"[1, 0]",right,0,43,22,f,y,y,2019_Jul_12_1014,2AFC_task,59.98793042728005,
stimuli/rgb_scene000047_render000000.png,stimuli/rgb_scene000047_render000005.png,0,183,183,25,"[0, 1]",right,1,43,22,f,y,y,2019_Jul_12_1014,2AFC_task,59.98793042728005,
stimuli/rgb_scene000150_render000001.png,stimuli/rgb_scene000150_render000003.png,0,184,184,112,"[1, 0]",left,1,43,22,f,y,y,2019_Jul_12_1014,2AFC_task,59.98793042728005,
stimuli/rgb_scene000047_render000000.png,stimuli/rgb_scene000047_render000002.png,0,185,185,22,"[0, 1]",right,1,43,22,f,y,y,2019_Jul_12_1014,2AFC_task,59.98793042728005,
stimuli/rgb_scene000196_render000001.png,stimuli/rgb_scene000196_render000004.png,0,186,186,197,"[0, 1]",right,1,43,22,f,y,y,2019_Jul_12_1014,2AFC_task,59.98793042728005,
stimuli/rgb_scene000165_render000002.png,stimuli/rgb_scene000165_render000004.png,0,187,187,159,"[0, 1]",right,1,43,22,f,y,y,2019_Jul_12_1014,2AFC_task,59.98793042728005,
stimuli/rgb_scene000047_render000000.png,stimuli/rgb_scene000047_render000003.png,0,188,188,23,"[0, 1]",right,1,43,22,f,y,y,2019_Jul_12_1014,2AFC_task,59.98793042728005,
stimuli/rgb_scene000147_render000001.png,stimuli/rgb_scene000147_render000002.png,0,189,189,90,"[0, 1]",right,1,43,22,f,y,y,2019_Jul_12_1014,2AFC_task,59.98793042728005,
stimuli/rgb_scene000169_render000005.png,stimuli/rgb_scene000169_render000006.png,0,190,190,188,"[0, 1]",right,1,43,22,f,y,y,2019_Jul_12_1014,2AFC_task,59.98793042728005,
stimuli/rgb_scene000042_render000000.png,stimuli/rgb_scene000042_render000006.png,0,191,191,5,"[0, 1]",right,1,43,22,f,y,y,2019_Jul_12_1014,2AFC_task,59.98793042728005,
stimuli/rgb_scene000196_render000004.png,stimuli/rgb_scene000196_render000006.png,0,192,192,208,"[0, 1]",right,1,43,22,f,y,y,2019_Jul_12_1014,2AFC_task,59.98793042728005,
stimuli/rgb_scene000160_render000001.png,stimuli/rgb_scene000160_render000002.png,0,193,193,132,"[0, 1]",right,1,43,22,f,y,y,2019_Jul_12_1014,2AFC_task,59.98793042728005,
stimuli/rgb_scene000196_render000002.png,stimuli/rgb_scene000196_render000005.png,0,194,194,202,"[1, 0]",right,0,43,22,f,y,y,2019_Jul_12_1014,2AFC_task,59.98793042728005,
stimuli/rgb_scene000165_render000001.png,stimuli/rgb_scene000165_render000002.png,0,195,195,153,"[0, 1]",right,1,43,22,f,y,y,2019_Jul_12_1014,2AFC_task,59.98793042728005,
stimuli/rgb_scene000150_render000004.png,stimuli/rgb_scene000150_render000005.png,0,196,196,123,"[0, 1]",right,1,43,22,f,y,y,2019_Jul_12_1014,2AFC_task,59.98793042728005,
stimuli/rgb_scene000056_render000001.png,stimuli/rgb_scene000056_render000002.png,0,197,197,48,"[1, 0]",left,1,43,22,f,y,y,2019_Jul_12_1014,2AFC_task,59.98793042728005,
stimuli/rgb_scene000147_render000002.png,stimuli/rgb_scene000147_render000004.png,0,198,198,96,"[0, 1]",right,1,43,22,f,y,y,2019_Jul_12_1014,2AFC_task,59.98793042728005,
stimuli/rgb_scene000147_render000004.png,stimuli/rgb_scene000147_render000005.png,0,199,199,102,"[0, 1]",right,1,43,22,f,y,y,2019_Jul_12_1014,2AFC_task,59.98793042728005,
stimuli/rgb_scene000056_render000001.png,stimuli/rgb_scene000056_render000006.png,0,200,200,52,"[0, 1]",right,1,43,22,f,y,y,2019_Jul_12_1014,2AFC_task,59.98793042728005,
stimuli/rgb_scene000042_render000001.png,stimuli/rgb_scene000042_render000003.png,0,201,201,7,"[0, 1]",right,1,43,22,f,y,y,2019_Jul_12_1014,2AFC_task,59.98793042728005,
stimuli/rgb_scene000047_render000004.png,stimuli/rgb_scene000047_render000006.png,0,202,202,40,"[0, 1]",right,1,43,22,f,y,y,2019_Jul_12_1014,2AFC_task,59.98793042728005,
stimuli/rgb_scene000165_render000003.png,stimuli/rgb_scene000165_render000005.png,0,203,203,163,"[1, 0]",left,1,43,22,f,y,y,2019_Jul_12_1014,2AFC_task,59.98793042728005,
stimuli/rgb_scene000160_render000001.png,stimuli/rgb_scene000160_render000006.png,0,204,204,136,"[1, 0]",left,1,43,22,f,y,y,2019_Jul_12_1014,2AFC_task,59.98793042728005,
stimuli/rgb_scene000169_render000003.png,stimuli/rgb_scene000169_render000005.png,0,205,205,184,"[0, 1]",right,1,43,22,f,y,y,2019_Jul_12_1014,2AFC_task,59.98793042728005,
stimuli/rgb_scene000165_render000000.png,stimuli/rgb_scene000165_render000004.png,0,206,206,150,"[1, 0]",left,1,43,22,f,y,y,2019_Jul_12_1014,2AFC_task,59.98793042728005,
stimuli/rgb_scene000160_render000001.png,stimuli/rgb_scene000160_render000004.png,0,207,207,134,"[1, 0]",left,1,43,22,f,y,y,2019_Jul_12_1014,2AFC_task,59.98793042728005,
stimuli/rgb_scene000150_render000005.png,stimuli/rgb_scene000150_render000006.png,0,208,208,125,"[1, 0]",right,0,43,22,f,y,y,2019_Jul_12_1014,2AFC_task,59.98793042728005,
stimuli/rgb_scene000042_render000002.png,stimuli/rgb_scene000042_render000006.png,0,209,209,14,"[1, 0]",left,1,43,22,f,y,y,2019_Jul_12_1014,2AFC_task,59.98793042728005,
stimuli/rgb_scene000169_render000003.png,stimuli/rgb_scene000169_render000004.png,1,0,210,183,"[1, 0]",left,1,43,22,f,y,y,2019_Jul_12_1014,2AFC_task,59.98793042728005,
stimuli/rgb_scene000056_render000001.png,stimuli/rgb_scene000056_render000005.png,1,1,211,51,"[1, 0]",left,1,43,22,f,y,y,2019_Jul_12_1014,2AFC_task,59.98793042728005,
stimuli/rgb_scene000056_render000002.png,stimuli/rgb_scene000056_render000003.png,1,2,212,53,"[1, 0]",left,1,43,22,f,y,y,2019_Jul_12_1014,2AFC_task,59.98793042728005,
stimuli/rgb_scene000047_render000001.png,stimuli/rgb_scene000047_render000004.png,1,3,213,29,"[1, 0]",left,1,43,22,f,y,y,2019_Jul_12_1014,2AFC_task,59.98793042728005,
stimuli/rgb_scene000196_render000001.png,stimuli/rgb_scene000196_render000004.png,1,4,214,197,"[1, 0]",right,0,43,22,f,y,y,2019_Jul_12_1014,2AFC_task,59.98793042728005,
stimuli/rgb_scene000047_render000001.png,stimuli/rgb_scene000047_render000005.png,1,5,215,30,"[0, 1]",right,1,43,22,f,y,y,2019_Jul_12_1014,2AFC_task,59.98793042728005,
stimuli/rgb_scene000147_render000001.png,stimuli/rgb_scene000147_render000003.png,1,6,216,91,"[0, 1]",right,1,43,22,f,y,y,2019_Jul_12_1014,2AFC_task,59.98793042728005,
stimuli/rgb_scene000196_render000005.png,stimuli/rgb_scene000196_render000006.png,1,7,217,209,"[0, 1]",left,0,43,22,f,y,y,2019_Jul_12_1014,2AFC_task,59.98793042728005,
stimuli/rgb_scene000196_render000000.png,stimuli/rgb_scene000196_render000006.png,1,8,218,194,"[0, 1]",right,1,43,22,f,y,y,2019_Jul_12_1014,2AFC_task,59.98793042728005,
stimuli/rgb_scene000196_render000001.png,stimuli/rgb_scene000196_render000003.png,1,9,219,196,"[0, 1]",right,1,43,22,f,y,y,2019_Jul_12_1014,2AFC_task,59.98793042728005,
stimuli/rgb_scene000160_render000003.png,stimuli/rgb_scene000160_render000005.png,1,10,220,142,"[1, 0]",left,1,43,22,f,y,y,2019_Jul_12_1014,2AFC_task,59.98793042728005,
stimuli/rgb_scene000165_render000003.png,stimuli/rgb_scene000165_render000004.png,1,11,221,162,"[0, 1]",right,1,43,22,f,y,y,2019_Jul_12_1014,2AFC_task,59.98793042728005,
stimuli/rgb_scene000160_render000000.png,stimuli/rgb_scene000160_render000001.png,1,12,222,126,"[0, 1]",right,1,43,22,f,y,y,2019_Jul_12_1014,2AFC_task,59.98793042728005,
stimuli/rgb_scene000147_render000003.png,stimuli/rgb_scene000147_render000006.png,1,13,223,101,"[1, 0]",left,1,43,22,f,y,y,2019_Jul_12_1014,2AFC_task,59.98793042728005,
stimuli/rgb_scene000196_render000003.png,stimuli/rgb_scene000196_render000006.png,1,14,224,206,"[1, 0]",right,0,43,22,f,y,y,2019_Jul_12_1014,2AFC_task,59.98793042728005,
stimuli/rgb_scene000056_render000000.png,stimuli/rgb_scene000056_render000003.png,1,15,225,44,"[0, 1]",right,1,43,22,f,y,y,2019_Jul_12_1014,2AFC_task,59.98793042728005,
stimuli/rgb_scene000165_render000000.png,stimuli/rgb_scene000165_render000004.png,1,16,226,150,"[0, 1]",right,1,43,22,f,y,y,2019_Jul_12_1014,2AFC_task,59.98793042728005,
stimuli/rgb_scene000169_render000000.png,stimuli/rgb_scene000169_render000001.png,1,17,227,168,"[1, 0]",right,0,43,22,f,y,y,2019_Jul_12_1014,2AFC_task,59.98793042728005,
stimuli/rgb_scene000042_render000005.png,stimuli/rgb_scene000042_render000006.png,1,18,228,20,"[0, 1]",right,1,43,22,f,y,y,2019_Jul_12_1014,2AFC_task,59.98793042728005,
stimuli/rgb_scene000165_render000000.png,stimuli/rgb_scene000165_render000001.png,1,19,229,147,"[0, 1]",right,1,43,22,f,y,y,2019_Jul_12_1014,2AFC_task,59.98793042728005,
stimuli/rgb_scene000047_render000000.png,stimuli/rgb_scene000047_render000003.png,1,20,230,23,"[1, 0]",left,1,43,22,f,y,y,2019_Jul_12_1014,2AFC_task,59.98793042728005,
stimuli/rgb_scene000147_render000000.png,stimuli/rgb_scene000147_render000002.png,1,21,231,85,"[1, 0]",left,1,43,22,f,y,y,2019_Jul_12_1014,2AFC_task,59.98793042728005,
stimuli/rgb_scene000165_render000001.png,stimuli/rgb_scene000165_render000002.png,1,22,232,153,"[0, 1]",right,1,43,22,f,y,y,2019_Jul_12_1014,2AFC_task,59.98793042728005,
stimuli/rgb_scene000169_render000000.png,stimuli/rgb_scene000169_render000006.png,1,23,233,173,"[0, 1]",right,1,43,22,f,y,y,2019_Jul_12_1014,2AFC_task,59.98793042728005,
stimuli/rgb_scene000066_render000003.png,stimuli/rgb_scene000066_render000004.png,1,24,234,78,"[0, 1]",right,1,43,22,f,y,y,2019_Jul_12_1014,2AFC_task,59.98793042728005,
stimuli/rgb_scene000066_render000003.png,stimuli/rgb_scene000066_render000006.png,1,25,235,80,"[0, 1]",right,1,43,22,f,y,y,2019_Jul_12_1014,2AFC_task,59.98793042728005,
stimuli/rgb_scene000160_render000000.png,stimuli/rgb_scene000160_render000005.png,1,26,236,130,"[1, 0]",left,1,43,22,f,y,y,2019_Jul_12_1014,2AFC_task,59.98793042728005,
stimuli/rgb_scene000066_render000001.png,stimuli/rgb_scene000066_render000004.png,1,27,237,71,"[1, 0]",left,1,43,22,f,y,y,2019_Jul_12_1014,2AFC_task,59.98793042728005,
stimuli/rgb_scene000150_render000002.png,stimuli/rgb_scene000150_render000003.png,1,28,238,116,"[0, 1]",right,1,43,22,f,y,y,2019_Jul_12_1014,2AFC_task,59.98793042728005,
stimuli/rgb_scene000147_render000000.png,stimuli/rgb_scene000147_render000003.png,1,29,239,86,"[0, 1]",right,1,43,22,f,y,y,2019_Jul_12_1014,2AFC_task,59.98793042728005,
stimuli/rgb_scene000147_render000000.png,stimuli/rgb_scene000147_render000001.png,1,30,240,84,"[0, 1]",right,1,43,22,f,y,y,2019_Jul_12_1014,2AFC_task,59.98793042728005,
stimuli/rgb_scene000150_render000000.png,stimuli/rgb_scene000150_render000001.png,1,31,241,105,"[0, 1]",right,1,43,22,f,y,y,2019_Jul_12_1014,2AFC_task,59.98793042728005,
stimuli/rgb_scene000066_render000000.png,stimuli/rgb_scene000066_render000002.png,1,32,242,64,"[1, 0]",left,1,43,22,f,y,y,2019_Jul_12_1014,2AFC_task,59.98793042728005,
stimuli/rgb_scene000147_render000000.png,stimuli/rgb_scene000147_render000005.png,1,33,243,88,"[1, 0]",left,1,43,22,f,y,y,2019_Jul_12_1014,2AFC_task,59.98793042728005,
stimuli/rgb_scene000047_render000000.png,stimuli/rgb_scene000047_render000001.png,1,34,244,21,"[1, 0]",left,1,43,22,f,y,y,2019_Jul_12_1014,2AFC_task,59.98793042728005,
stimuli/rgb_scene000169_render000000.png,stimuli/rgb_scene000169_render000004.png,1,35,245,171,"[0, 1]",right,1,43,22,f,y,y,2019_Jul_12_1014,2AFC_task,59.98793042728005,
stimuli/rgb_scene000066_render000002.png,stimuli/rgb_scene000066_render000006.png,1,36,246,77,"[1, 0]",left,1,43,22,f,y,y,2019_Jul_12_1014,2AFC_task,59.98793042728005,
stimuli/rgb_scene000147_render000004.png,stimuli/rgb_scene000147_render000006.png,1,37,247,103,"[0, 1]",right,1,43,22,f,y,y,2019_Jul_12_1014,2AFC_task,59.98793042728005,
stimuli/rgb_scene000147_render000001.png,stimuli/rgb_scene000147_render000002.png,1,38,248,90,"[1, 0]",left,1,43,22,f,y,y,2019_Jul_12_1014,2AFC_task,59.98793042728005,
stimuli/rgb_scene000056_render000000.png,stimuli/rgb_scene000056_render000002.png,1,39,249,43,"[1, 0]",left,1,43,22,f,y,y,2019_Jul_12_1014,2AFC_task,59.98793042728005,
stimuli/rgb_scene000196_render000002.png,stimuli/rgb_scene000196_render000004.png,1,40,250,201,"[0, 1]",right,1,43,22,f,y,y,2019_Jul_12_1014,2AFC_task,59.98793042728005,
stimuli/rgb_scene000150_render000001.png,stimuli/rgb_scene000150_render000005.png,1,41,251,114,"[0, 1]",right,1,43,22,f,y,y,2019_Jul_12_1014,2AFC_task,59.98793042728005,
stimuli/rgb_scene000147_render000001.png,stimuli/rgb_scene000147_render000004.png,1,42,252,92,"[0, 1]",right,1,43,22,f,y,y,2019_Jul_12_1014,2AFC_task,59.98793042728005,
stimuli/rgb_scene000042_render000000.png,stimuli/rgb_scene000042_render000002.png,1,43,253,1,"[0, 1]",right,1,43,22,f,y,y,2019_Jul_12_1014,2AFC_task,59.98793042728005,
stimuli/rgb_scene000150_render000000.png,stimuli/rgb_scene000150_render000004.png,1,44,254,108,"[0, 1]",right,1,43,22,f,y,y,2019_Jul_12_1014,2AFC_task,59.98793042728005,
stimuli/rgb_scene000160_render000000.png,stimuli/rgb_scene000160_render000004.png,1,45,255,129,"[0, 1]",right,1,43,22,f,y,y,2019_Jul_12_1014,2AFC_task,59.98793042728005,
stimuli/rgb_scene000196_render000003.png,stimuli/rgb_scene000196_render000005.png,1,46,256,205,"[1, 0]",right,0,43,22,f,y,y,2019_Jul_12_1014,2AFC_task,59.98793042728005,
stimuli/rgb_scene000047_render000000.png,stimuli/rgb_scene000047_render000004.png,1,47,257,24,"[0, 1]",right,1,43,22,f,y,y,2019_Jul_12_1014,2AFC_task,59.98793042728005,
stimuli/rgb_scene000056_render000002.png,stimuli/rgb_scene000056_render000006.png,1,48,258,56,"[0, 1]",right,1,43,22,f,y,y,2019_Jul_12_1014,2AFC_task,59.98793042728005,
stimuli/rgb_scene000160_render000005.png,stimuli/rgb_scene000160_render000006.png,1,49,259,146,"[1, 0]",left,1,43,22,f,y,y,2019_Jul_12_1014,2AFC_task,59.98793042728005,
stimuli/rgb_scene000196_render000000.png,stimuli/rgb_scene000196_render000005.png,1,50,260,193,"[0, 1]",left,0,43,22,f,y,y,2019_Jul_12_1014,2AFC_task,59.98793042728005,
stimuli/rgb_scene000150_render000001.png,stimuli/rgb_scene000150_render000004.png,1,51,261,113,"[1, 0]",left,1,43,22,f,y,y,2019_Jul_12_1014,2AFC_task,59.98793042728005,
stimuli/rgb_scene000147_render000002.png,stimuli/rgb_scene000147_render000005.png,1,52,262,97,"[1, 0]",left,1,43,22,f,y,y,2019_Jul_12_1014,2AFC_task,59.98793042728005,
stimuli/rgb_scene000147_render000001.png,stimuli/rgb_scene000147_render000006.png,1,53,263,94,"[1, 0]",left,1,43,22,f,y,y,2019_Jul_12_1014,2AFC_task,59.98793042728005,
stimuli/rgb_scene000066_render000000.png,stimuli/rgb_scene000066_render000001.png,1,54,264,63,"[1, 0]",left,1,43,22,f,y,y,2019_Jul_12_1014,2AFC_task,59.98793042728005,
stimuli/rgb_scene000165_render000001.png,stimuli/rgb_scene000165_render000003.png,1,55,265,154,"[1, 0]",left,1,43,22,f,y,y,2019_Jul_12_1014,2AFC_task,59.98793042728005,
stimuli/rgb_scene000150_render000003.png,stimuli/rgb_scene000150_render000005.png,1,56,266,121,"[1, 0]",left,1,43,22,f,y,y,2019_Jul_12_1014,2AFC_task,59.98793042728005,
stimuli/rgb_scene000056_render000003.png,stimuli/rgb_scene000056_render000006.png,1,57,267,59,"[1, 0]",left,1,43,22,f,y,y,2019_Jul_12_1014,2AFC_task,59.98793042728005,
stimuli/rgb_scene000047_render000002.png,stimuli/rgb_scene000047_render000004.png,1,58,268,33,"[0, 1]",right,1,43,22,f,y,y,2019_Jul_12_1014,2AFC_task,59.98793042728005,
stimuli/rgb_scene000056_render000000.png,stimuli/rgb_scene000056_render000004.png,1,59,269,45,"[1, 0]",left,1,43,22,f,y,y,2019_Jul_12_1014,2AFC_task,59.98793042728005,
stimuli/rgb_scene000169_render000003.png,stimuli/rgb_scene000169_render000005.png,1,60,270,184,"[1, 0]",right,0,43,22,f,y,y,2019_Jul_12_1014,2AFC_task,59.98793042728005,
stimuli/rgb_scene000196_render000001.png,stimuli/rgb_scene000196_render000002.png,1,61,271,195,"[1, 0]",right,0,43,22,f,y,y,2019_Jul_12_1014,2AFC_task,59.98793042728005,
stimuli/rgb_scene000047_render000005.png,stimuli/rgb_scene000047_render000006.png,1,62,272,41,"[0, 1]",right,1,43,22,f,y,y,2019_Jul_12_1014,2AFC_task,59.98793042728005,
stimuli/rgb_scene000042_render000002.png,stimuli/rgb_scene000042_render000005.png,1,63,273,13,"[0, 1]",right,1,43,22,f,y,y,2019_Jul_12_1014,2AFC_task,59.98793042728005,
stimuli/rgb_scene000160_render000003.png,stimuli/rgb_scene000160_render000004.png,1,64,274,141,"[1, 0]",left,1,43,22,f,y,y,2019_Jul_12_1014,2AFC_task,59.98793042728005,
stimuli/rgb_scene000150_render000000.png,stimuli/rgb_scene000150_render000002.png,1,65,275,106,"[0, 1]",right,1,43,22,f,y,y,2019_Jul_12_1014,2AFC_task,59.98793042728005,
stimuli/rgb_scene000056_render000005.png,stimuli/rgb_scene000056_render000006.png,1,66,276,62,"[1, 0]",left,1,43,22,f,y,y,2019_Jul_12_1014,2AFC_task,59.98793042728005,
stimuli/rgb_scene000150_render000002.png,stimuli/rgb_scene000150_render000004.png,1,67,277,117,"[1, 0]",left,1,43,22,f,y,y,2019_Jul_12_1014,2AFC_task,59.98793042728005,
stimuli/rgb_scene000042_render000002.png,stimuli/rgb_scene000042_render000003.png,1,68,278,11,"[1, 0]",left,1,43,22,f,y,y,2019_Jul_12_1014,2AFC_task,59.98793042728005,
stimuli/rgb_scene000169_render000002.png,stimuli/rgb_scene000169_render000006.png,1,69,279,182,"[1, 0]",left,1,43,22,f,y,y,2019_Jul_12_1014,2AFC_task,59.98793042728005,
stimuli/rgb_scene000160_render000002.png,stimuli/rgb_scene000160_render000004.png,1,70,280,138,"[0, 1]",right,1,43,22,f,y,y,2019_Jul_12_1014,2AFC_task,59.98793042728005,
stimuli/rgb_scene000066_render000002.png,stimuli/rgb_scene000066_render000003.png,1,71,281,74,"[0, 1]",right,1,43,22,f,y,y,2019_Jul_12_1014,2AFC_task,59.98793042728005,
stimuli/rgb_scene000160_render000002.png,stimuli/rgb_scene000160_render000006.png,1,72,282,140,"[1, 0]",left,1,43,22,f,y,y,2019_Jul_12_1014,2AFC_task,59.98793042728005,
stimuli/rgb_scene000150_render000000.png,stimuli/rgb_scene000150_render000003.png,1,73,283,107,"[0, 1]",right,1,43,22,f,y,y,2019_Jul_12_1014,2AFC_task,59.98793042728005,
stimuli/rgb_scene000160_render000003.png,stimuli/rgb_scene000160_render000006.png,1,74,284,143,"[0, 1]",right,1,43,22,f,y,y,2019_Jul_12_1014,2AFC_task,59.98793042728005,
stimuli/rgb_scene000165_render000001.png,stimuli/rgb_scene000165_render000006.png,1,75,285,157,"[1, 0]",left,1,43,22,f,y,y,2019_Jul_12_1014,2AFC_task,59.98793042728005,
stimuli/rgb_scene000160_render000004.png,stimuli/rgb_scene000160_render000005.png,1,76,286,144,"[1, 0]",left,1,43,22,f,y,y,2019_Jul_12_1014,2AFC_task,59.98793042728005,
stimuli/rgb_scene000066_render000000.png,stimuli/rgb_scene000066_render000006.png,1,77,287,68,"[0, 1]",right,1,43,22,f,y,y,2019_Jul_12_1014,2AFC_task,59.98793042728005,
stimuli/rgb_scene000165_render000002.png,stimuli/rgb_scene000165_render000005.png,1,78,288,160,"[1, 0]",left,1,43,22,f,y,y,2019_Jul_12_1014,2AFC_task,59.98793042728005,
stimuli/rgb_scene000160_render000001.png,stimuli/rgb_scene000160_render000006.png,1,79,289,136,"[1, 0]",left,1,43,22,f,y,y,2019_Jul_12_1014,2AFC_task,59.98793042728005,
stimuli/rgb_scene000169_render000001.png,stimuli/rgb_scene000169_render000003.png,1,80,290,175,"[0, 1]",right,1,43,22,f,y,y,2019_Jul_12_1014,2AFC_task,59.98793042728005,
stimuli/rgb_scene000056_render000003.png,stimuli/rgb_scene000056_render000004.png,1,81,291,57,"[0, 1]",right,1,43,22,f,y,y,2019_Jul_12_1014,2AFC_task,59.98793042728005,
stimuli/rgb_scene000147_render000000.png,stimuli/rgb_scene000147_render000006.png,1,82,292,89,"[0, 1]",right,1,43,22,f,y,y,2019_Jul_12_1014,2AFC_task,59.98793042728005,
stimuli/rgb_scene000150_render000004.png,stimuli/rgb_scene000150_render000005.png,1,83,293,123,"[0, 1]",right,1,43,22,f,y,y,2019_Jul_12_1014,2AFC_task,59.98793042728005,
stimuli/rgb_scene000196_render000003.png,stimuli/rgb_scene000196_render000004.png,1,84,294,204,"[1, 0]",right,0,43,22,f,y,y,2019_Jul_12_1014,2AFC_task,59.98793042728005,
stimuli/rgb_scene000150_render000005.png,stimuli/rgb_scene000150_render000006.png,1,85,295,125,"[1, 0]",right,0,43,22,f,y,y,2019_Jul_12_1014,2AFC_task,59.98793042728005,
stimuli/rgb_scene000066_render000002.png,stimuli/rgb_scene000066_render000004.png,1,86,296,75,"[0, 1]",right,1,43,22,f,y,y,2019_Jul_12_1014,2AFC_task,59.98793042728005,
stimuli/rgb_scene000169_render000005.png,stimuli/rgb_scene000169_render000006.png,1,87,297,188,"[1, 0]",left,1,43,22,f,y,y,2019_Jul_12_1014,2AFC_task,59.98793042728005,
stimuli/rgb_scene000150_render000002.png,stimuli/rgb_scene000150_render000005.png,1,88,298,118,"[0, 1]",right,1,43,22,f,y,y,2019_Jul_12_1014,2AFC_task,59.98793042728005,
stimuli/rgb_scene000056_render000002.png,stimuli/rgb_scene000056_render000005.png,1,89,299,55,"[1, 0]",left,1,43,22,f,y,y,2019_Jul_12_1014,2AFC_task,59.98793042728005,
stimuli/rgb_scene000160_render000001.png,stimuli/rgb_scene000160_render000002.png,1,90,300,132,"[1, 0]",left,1,43,22,f,y,y,2019_Jul_12_1014,2AFC_task,59.98793042728005,
stimuli/rgb_scene000147_render000003.png,stimuli/rgb_scene000147_render000004.png,1,91,301,99,"[0, 1]",right,1,43,22,f,y,y,2019_Jul_12_1014,2AFC_task,59.98793042728005,
stimuli/rgb_scene000056_render000000.png,stimuli/rgb_scene000056_render000006.png,1,92,302,47,"[0, 1]",right,1,43,22,f,y,y,2019_Jul_12_1014,2AFC_task,59.98793042728005,
stimuli/rgb_scene000066_render000000.png,stimuli/rgb_scene000066_render000005.png,1,93,303,67,"[0, 1]",right,1,43,22,f,y,y,2019_Jul_12_1014,2AFC_task,59.98793042728005,
stimuli/rgb_scene000047_render000003.png,stimuli/rgb_scene000047_render000006.png,1,94,304,38,"[1, 0]",left,1,43,22,f,y,y,2019_Jul_12_1014,2AFC_task,59.98793042728005,
stimuli/rgb_scene000196_render000004.png,stimuli/rgb_scene000196_render000005.png,1,95,305,207,"[1, 0]",right,0,43,22,f,y,y,2019_Jul_12_1014,2AFC_task,59.98793042728005,
stimuli/rgb_scene000165_render000002.png,stimuli/rgb_scene000165_render000004.png,1,96,306,159,"[1, 0]",left,1,43,22,f,y,y,2019_Jul_12_1014,2AFC_task,59.98793042728005,
stimuli/rgb_scene000056_render000000.png,stimuli/rgb_scene000056_render000005.png,1,97,307,46,"[1, 0]",left,1,43,22,f,y,y,2019_Jul_12_1014,2AFC_task,59.98793042728005,
stimuli/rgb_scene000047_render000001.png,stimuli/rgb_scene000047_render000002.png,1,98,308,27,"[0, 1]",right,1,43,22,f,y,y,2019_Jul_12_1014,2AFC_task,59.98793042728005,
stimuli/rgb_scene000150_render000000.png,stimuli/rgb_scene000150_render000005.png,1,99,309,109,"[1, 0]",left,1,43,22,f,y,y,2019_Jul_12_1014,2AFC_task,59.98793042728005,
stimuli/rgb_scene000165_render000005.png,stimuli/rgb_scene000165_render000006.png,1,100,310,167,"[0, 1]",right,1,43,22,f,y,y,2019_Jul_12_1014,2AFC_task,59.98793042728005,
stimuli/rgb_scene000066_render000001.png,stimuli/rgb_scene000066_render000005.png,1,101,311,72,"[0, 1]",right,1,43,22,f,y,y,2019_Jul_12_1014,2AFC_task,59.98793042728005,
stimuli/rgb_scene000169_render000000.png,stimuli/rgb_scene000169_render000005.png,1,102,312,172,"[1, 0]",left,1,43,22,f,y,y,2019_Jul_12_1014,2AFC_task,59.98793042728005,
stimuli/rgb_scene000169_render000002.png,stimuli/rgb_scene000169_render000004.png,1,103,313,180,"[1, 0]",left,1,43,22,f,y,y,2019_Jul_12_1014,2AFC_task,59.98793042728005,
stimuli/rgb_scene000169_render000000.png,stimuli/rgb_scene000169_render000002.png,1,104,314,169,"[0, 1]",right,1,43,22,f,y,y,2019_Jul_12_1014,2AFC_task,59.98793042728005,
stimuli/rgb_scene000042_render000001.png,stimuli/rgb_scene000042_render000003.png,1,105,315,7,"[0, 1]",right,1,43,22,f,y,y,2019_Jul_12_1014,2AFC_task,59.98793042728005,
stimuli/rgb_scene000150_render000004.png,stimuli/rgb_scene000150_render000006.png,1,106,316,124,"[0, 1]",right,1,43,22,f,y,y,2019_Jul_12_1014,2AFC_task,59.98793042728005,
stimuli/rgb_scene000147_render000004.png,stimuli/rgb_scene000147_render000005.png,1,107,317,102,"[0, 1]",right,1,43,22,f,y,y,2019_Jul_12_1014,2AFC_task,59.98793042728005,
stimuli/rgb_scene000150_render000001.png,stimuli/rgb_scene000150_render000002.png,1,108,318,111,"[0, 1]",right,1,43,22,f,y,y,2019_Jul_12_1014,2AFC_task,59.98793042728005,
stimuli/rgb_scene000169_render000002.png,stimuli/rgb_scene000169_render000003.png,1,109,319,179,"[1, 0]",left,1,43,22,f,y,y,2019_Jul_12_1014,2AFC_task,59.98793042728005,
stimuli/rgb_scene000150_render000002.png,stimuli/rgb_scene000150_render000006.png,1,110,320,119,"[0, 1]",right,1,43,22,f,y,y,2019_Jul_12_1014,2AFC_task,59.98793042728005,
stimuli/rgb_scene000169_render000004.png,stimuli/rgb_scene000169_render000006.png,1,111,321,187,"[1, 0]",left,1,43,22,f,y,y,2019_Jul_12_1014,2AFC_task,59.98793042728005,
stimuli/rgb_scene000056_render000002.png,stimuli/rgb_scene000056_render000004.png,1,112,322,54,"[0, 1]",right,1,43,22,f,y,y,2019_Jul_12_1014,2AFC_task,59.98793042728005,
stimuli/rgb_scene000165_render000000.png,stimuli/rgb_scene000165_render000005.png,1,113,323,151,"[1, 0]",left,1,43,22,f,y,y,2019_Jul_12_1014,2AFC_task,59.98793042728005,
stimuli/rgb_scene000066_render000001.png,stimuli/rgb_scene000066_render000003.png,1,114,324,70,"[1, 0]",left,1,43,22,f,y,y,2019_Jul_12_1014,2AFC_task,59.98793042728005,
stimuli/rgb_scene000196_render000002.png,stimuli/rgb_scene000196_render000005.png,1,115,325,202,"[0, 1]",left,0,43,22,f,y,y,2019_Jul_12_1014,2AFC_task,59.98793042728005,
stimuli/rgb_scene000147_render000002.png,stimuli/rgb_scene000147_render000004.png,1,116,326,96,"[1, 0]",left,1,43,22,f,y,y,2019_Jul_12_1014,2AFC_task,59.98793042728005,
stimuli/rgb_scene000147_render000002.png,stimuli/rgb_scene000147_render000006.png,1,117,327,98,"[1, 0]",left,1,43,22,f,y,y,2019_Jul_12_1014,2AFC_task,59.98793042728005,
stimuli/rgb_scene000042_render000003.png,stimuli/rgb_scene000042_render000004.png,1,118,328,15,"[0, 1]",right,1,43,22,f,y,y,2019_Jul_12_1014,2AFC_task,59.98793042728005,
stimuli/rgb_scene000169_render000001.png,stimuli/rgb_scene000169_render000004.png,1,119,329,176,"[0, 1]",right,1,43,22,f,y,y,2019_Jul_12_1014,2AFC_task,59.98793042728005,
stimuli/rgb_scene000160_render000002.png,stimuli/rgb_scene000160_render000003.png,1,120,330,137,"[0, 1]",right,1,43,22,f,y,y,2019_Jul_12_1014,2AFC_task,59.98793042728005,
stimuli/rgb_scene000056_render000001.png,stimuli/rgb_scene000056_render000002.png,1,121,331,48,"[1, 0]",left,1,43,22,f,y,y,2019_Jul_12_1014,2AFC_task,59.98793042728005,
stimuli/rgb_scene000056_render000004.png,stimuli/rgb_scene000056_render000006.png,1,122,332,61,"[1, 0]",left,1,43,22,f,y,y,2019_Jul_12_1014,2AFC_task,59.98793042728005,
stimuli/rgb_scene000047_render000003.png,stimuli/rgb_scene000047_render000005.png,1,123,333,37,"[1, 0]",left,1,43,22,f,y,y,2019_Jul_12_1014,2AFC_task,59.98793042728005,
stimuli/rgb_scene000196_render000000.png,stimuli/rgb_scene000196_render000001.png,1,124,334,189,"[1, 0]",right,0,43,22,f,y,y,2019_Jul_12_1014,2AFC_task,59.98793042728005,
stimuli/rgb_scene000160_render000001.png,stimuli/rgb_scene000160_render000003.png,1,125,335,133,"[0, 1]",right,1,43,22,f,y,y,2019_Jul_12_1014,2AFC_task,59.98793042728005,
stimuli/rgb_scene000056_render000000.png,stimuli/rgb_scene000056_render000001.png,1,126,336,42,"[1, 0]",left,1,43,22,f,y,y,2019_Jul_12_1014,2AFC_task,59.98793042728005,
stimuli/rgb_scene000165_render000002.png,stimuli/rgb_scene000165_render000006.png,1,127,337,161,"[0, 1]",right,1,43,22,f,y,y,2019_Jul_12_1014,2AFC_task,59.98793042728005,
stimuli/rgb_scene000169_render000001.png,stimuli/rgb_scene000169_render000002.png,1,128,338,174,"[0, 1]",right,1,43,22,f,y,y,2019_Jul_12_1014,2AFC_task,59.98793042728005,
stimuli/rgb_scene000165_render000003.png,stimuli/rgb_scene000165_render000005.png,1,129,339,163,"[1, 0]",left,1,43,22,f,y,y,2019_Jul_12_1014,2AFC_task,59.98793042728005,
stimuli/rgb_scene000042_render000001.png,stimuli/rgb_scene000042_render000002.png,1,130,340,6,"[0, 1]",right,1,43,22,f,y,y,2019_Jul_12_1014,2AFC_task,59.98793042728005,
stimuli/rgb_scene000169_render000000.png,stimuli/rgb_scene000169_render000003.png,1,131,341,170,"[1, 0]",left,1,43,22,f,y,y,2019_Jul_12_1014,2AFC_task,59.98793042728005,
stimuli/rgb_scene000169_render000002.png,stimuli/rgb_scene000169_render000005.png,1,132,342,181,"[0, 1]",right,1,43,22,f,y,y,2019_Jul_12_1014,2AFC_task,59.98793042728005,
stimuli/rgb_scene000150_render000001.png,stimuli/rgb_scene000150_render000003.png,1,133,343,112,"[0, 1]",right,1,43,22,f,y,y,2019_Jul_12_1014,2AFC_task,59.98793042728005,
stimuli/rgb_scene000042_render000003.png,stimuli/rgb_scene000042_render000006.png,1,134,344,17,"[1, 0]",left,1,43,22,f,y,y,2019_Jul_12_1014,2AFC_task,59.98793042728005,
stimuli/rgb_scene000196_render000001.png,stimuli/rgb_scene000196_render000005.png,1,135,345,198,"[0, 1]",left,0,43,22,f,y,y,2019_Jul_12_1014,2AFC_task,59.98793042728005,
stimuli/rgb_scene000147_render000000.png,stimuli/rgb_scene000147_render000004.png,1,136,346,87,"[0, 1]",right,1,43,22,f,y,y,2019_Jul_12_1014,2AFC_task,59.98793042728005,
stimuli/rgb_scene000160_render000004.png,stimuli/rgb_scene000160_render000006.png,1,137,347,145,"[0, 1]",right,1,43,22,f,y,y,2019_Jul_12_1014,2AFC_task,59.98793042728005,
stimuli/rgb_scene000042_render000000.png,stimuli/rgb_scene000042_render000004.png,1,138,348,3,"[1, 0]",left,1,43,22,f,y,y,2019_Jul_12_1014,2AFC_task,59.98793042728005,
stimuli/rgb_scene000042_render000004.png,stimuli/rgb_scene000042_render000006.png,1,139,349,19,"[1, 0]",left,1,43,22,f,y,y,2019_Jul_12_1014,2AFC_task,59.98793042728005,
stimuli/rgb_scene000196_render000004.png,stimuli/rgb_scene000196_render000006.png,1,140,350,208,"[0, 1]",left,0,43,22,f,y,y,2019_Jul_12_1014,2AFC_task,59.98793042728005,
stimuli/rgb_scene000056_render000001.png,stimuli/rgb_scene000056_render000006.png,1,141,351,52,"[1, 0]",left,1,43,22,f,y,y,2019_Jul_12_1014,2AFC_task,59.98793042728005,
stimuli/rgb_scene000165_render000004.png,stimuli/rgb_scene000165_render000006.png,1,142,352,166,"[0, 1]",right,1,43,22,f,y,y,2019_Jul_12_1014,2AFC_task,59.98793042728005,
stimuli/rgb_scene000066_render000002.png,stimuli/rgb_scene000066_render000005.png,1,143,353,76,"[0, 1]",right,1,43,22,f,y,y,2019_Jul_12_1014,2AFC_task,59.98793042728005,
stimuli/rgb_scene000056_render000004.png,stimuli/rgb_scene000056_render000005.png,1,144,354,60,"[1, 0]",left,1,43,22,f,y,y,2019_Jul_12_1014,2AFC_task,59.98793042728005,
stimuli/rgb_scene000047_render000002.png,stimuli/rgb_scene000047_render000005.png,1,145,355,34,"[0, 1]",right,1,43,22,f,y,y,2019_Jul_12_1014,2AFC_task,59.98793042728005,
stimuli/rgb_scene000056_render000001.png,stimuli/rgb_scene000056_render000003.png,1,146,356,49,"[1, 0]",left,1,43,22,f,y,y,2019_Jul_12_1014,2AFC_task,59.98793042728005,
stimuli/rgb_scene000042_render000002.png,stimuli/rgb_scene000042_render000004.png,1,147,357,12,"[1, 0]",left,1,43,22,f,y,y,2019_Jul_12_1014,2AFC_task,59.98793042728005,
stimuli/rgb_scene000042_render000000.png,stimuli/rgb_scene000042_render000005.png,1,148,358,4,"[0, 1]",right,1,43,22,f,y,y,2019_Jul_12_1014,2AFC_task,59.98793042728005,
stimuli/rgb_scene000165_render000001.png,stimuli/rgb_scene000165_render000005.png,1,149,359,156,"[0, 1]",right,1,43,22,f,y,y,2019_Jul_12_1014,2AFC_task,59.98793042728005,
stimuli/rgb_scene000042_render000003.png,stimuli/rgb_scene000042_render000005.png,1,150,360,16,"[0, 1]",right,1,43,22,f,y,y,2019_Jul_12_1014,2AFC_task,59.98793042728005,
stimuli/rgb_scene000047_render000000.png,stimuli/rgb_scene000047_render000005.png,1,151,361,25,"[0, 1]",right,1,43,22,f,y,y,2019_Jul_12_1014,2AFC_task,59.98793042728005,
stimuli/rgb_scene000042_render000000.png,stimuli/rgb_scene000042_render000006.png,1,152,362,5,"[1, 0]",left,1,43,22,f,y,y,2019_Jul_12_1014,2AFC_task,59.98793042728005,
stimuli/rgb_scene000066_render000005.png,stimuli/rgb_scene000066_render000006.png,1,153,363,83,"[1, 0]",right,0,43,22,f,y,y,2019_Jul_12_1014,2AFC_task,59.98793042728005,
stimuli/rgb_scene000047_render000004.png,stimuli/rgb_scene000047_render000006.png,1,154,364,40,"[1, 0]",left,1,43,22,f,y,y,2019_Jul_12_1014,2AFC_task,59.98793042728005,
stimuli/rgb_scene000147_render000005.png,stimuli/rgb_scene000147_render000006.png,1,155,365,104,"[0, 1]",right,1,43,22,f,y,y,2019_Jul_12_1014,2AFC_task,59.98793042728005,
stimuli/rgb_scene000169_render000001.png,stimuli/rgb_scene000169_render000005.png,1,156,366,177,"[0, 1]",right,1,43,22,f,y,y,2019_Jul_12_1014,2AFC_task,59.98793042728005,
stimuli/rgb_scene000047_render000000.png,stimuli/rgb_scene000047_render000006.png,1,157,367,26,"[1, 0]",left,1,43,22,f,y,y,2019_Jul_12_1014,2AFC_task,59.98793042728005,
stimuli/rgb_scene000165_render000001.png,stimuli/rgb_scene000165_render000004.png,1,158,368,155,"[1, 0]",left,1,43,22,f,y,y,2019_Jul_12_1014,2AFC_task,59.98793042728005,
stimuli/rgb_scene000147_render000003.png,stimuli/rgb_scene000147_render000005.png,1,159,369,100,"[1, 0]",left,1,43,22,f,y,y,2019_Jul_12_1014,2AFC_task,59.98793042728005,
stimuli/rgb_scene000160_render000001.png,stimuli/rgb_scene000160_render000005.png,1,160,370,135,"[1, 0]",left,1,43,22,f,y,y,2019_Jul_12_1014,2AFC_task,59.98793042728005,
stimuli/rgb_scene000047_render000001.png,stimuli/rgb_scene000047_render000003.png,1,161,371,28,"[1, 0]",left,1,43,22,f,y,y,2019_Jul_12_1014,2AFC_task,59.98793042728005,
stimuli/rgb_scene000165_render000002.png,stimuli/rgb_scene000165_render000003.png,1,162,372,158,"[1, 0]",left,1,43,22,f,y,y,2019_Jul_12_1014,2AFC_task,59.98793042728005,
stimuli/rgb_scene000196_render000000.png,stimuli/rgb_scene000196_render000003.png,1,163,373,191,"[0, 1]",right,1,43,22,f,y,y,2019_Jul_12_1014,2AFC_task,59.98793042728005,
stimuli/rgb_scene000042_render000001.png,stimuli/rgb_scene000042_render000005.png,1,164,374,9,"[0, 1]",right,1,43,22,f,y,y,2019_Jul_12_1014,2AFC_task,59.98793042728005,
stimuli/rgb_scene000165_render000000.png,stimuli/rgb_scene000165_render000006.png,1,165,375,152,"[0, 1]",right,1,43,22,f,y,y,2019_Jul_12_1014,2AFC_task,59.98793042728005,
stimuli/rgb_scene000165_render000000.png,stimuli/rgb_scene000165_render000002.png,1,166,376,148,"[1, 0]",left,1,43,22,f,y,y,2019_Jul_12_1014,2AFC_task,59.98793042728005,
stimuli/rgb_scene000047_render000002.png,stimuli/rgb_scene000047_render000003.png,1,167,377,32,"[0, 1]",right,1,43,22,f,y,y,2019_Jul_12_1014,2AFC_task,59.98793042728005,
stimuli/rgb_scene000196_render000000.png,stimuli/rgb_scene000196_render000002.png,1,168,378,190,"[1, 0]",left,1,43,22,f,y,y,2019_Jul_12_1014,2AFC_task,59.98793042728005,
stimuli/rgb_scene000042_render000000.png,stimuli/rgb_scene000042_render000003.png,1,169,379,2,"[0, 1]",right,1,43,22,f,y,y,2019_Jul_12_1014,2AFC_task,59.98793042728005,
stimuli/rgb_scene000160_render000001.png,stimuli/rgb_scene000160_render000004.png,1,170,380,134,"[0, 1]",right,1,43,22,f,y,y,2019_Jul_12_1014,2AFC_task,59.98793042728005,
stimuli/rgb_scene000066_render000004.png,stimuli/rgb_scene000066_render000005.png,1,171,381,81,"[0, 1]",right,1,43,22,f,y,y,2019_Jul_12_1014,2AFC_task,59.98793042728005,
stimuli/rgb_scene000047_render000001.png,stimuli/rgb_scene000047_render000006.png,1,172,382,31,"[0, 1]",right,1,43,22,f,y,y,2019_Jul_12_1014,2AFC_task,59.98793042728005,
stimuli/rgb_scene000196_render000002.png,stimuli/rgb_scene000196_render000006.png,1,173,383,203,"[1, 0]",right,0,43,22,f,y,y,2019_Jul_12_1014,2AFC_task,59.98793042728005,
stimuli/rgb_scene000042_render000000.png,stimuli/rgb_scene000042_render000001.png,1,174,384,0,"[1, 0]",left,1,43,22,f,y,y,2019_Jul_12_1014,2AFC_task,59.98793042728005,
stimuli/rgb_scene000042_render000004.png,stimuli/rgb_scene000042_render000005.png,1,175,385,18,"[1, 0]",left,1,43,22,f,y,y,2019_Jul_12_1014,2AFC_task,59.98793042728005,
stimuli/rgb_scene000169_render000001.png,stimuli/rgb_scene000169_render000006.png,1,176,386,178,"[0, 1]",right,1,43,22,f,y,y,2019_Jul_12_1014,2AFC_task,59.98793042728005,
stimuli/rgb_scene000160_render000002.png,stimuli/rgb_scene000160_render000005.png,1,177,387,139,"[1, 0]",left,1,43,22,f,y,y,2019_Jul_12_1014,2AFC_task,59.98793042728005,
stimuli/rgb_scene000196_render000000.png,stimuli/rgb_scene000196_render000004.png,1,178,388,192,"[0, 1]",right,1,43,22,f,y,y,2019_Jul_12_1014,2AFC_task,59.98793042728005,
stimuli/rgb_scene000047_render000000.png,stimuli/rgb_scene000047_render000002.png,1,179,389,22,"[0, 1]",right,1,43,22,f,y,y,2019_Jul_12_1014,2AFC_task,59.98793042728005,
stimuli/rgb_scene000165_render000003.png,stimuli/rgb_scene000165_render000006.png,1,180,390,164,"[0, 1]",right,1,43,22,f,y,y,2019_Jul_12_1014,2AFC_task,59.98793042728005,
stimuli/rgb_scene000066_render000004.png,stimuli/rgb_scene000066_render000006.png,1,181,391,82,"[1, 0]",left,1,43,22,f,y,y,2019_Jul_12_1014,2AFC_task,59.98793042728005,
stimuli/rgb_scene000165_render000000.png,stimuli/rgb_scene000165_render000003.png,1,182,392,149,"[0, 1]",right,1,43,22,f,y,y,2019_Jul_12_1014,2AFC_task,59.98793042728005,
stimuli/rgb_scene000160_render000000.png,stimuli/rgb_scene000160_render000006.png,1,183,393,131,"[0, 1]",right,1,43,22,f,y,y,2019_Jul_12_1014,2AFC_task,59.98793042728005,
stimuli/rgb_scene000150_render000001.png,stimuli/rgb_scene000150_render000006.png,1,184,394,115,"[1, 0]",left,1,43,22,f,y,y,2019_Jul_12_1014,2AFC_task,59.98793042728005,
stimuli/rgb_scene000066_render000001.png,stimuli/rgb_scene000066_render000006.png,1,185,395,73,"[1, 0]",left,1,43,22,f,y,y,2019_Jul_12_1014,2AFC_task,59.98793042728005,
stimuli/rgb_scene000169_render000003.png,stimuli/rgb_scene000169_render000006.png,1,186,396,185,"[0, 1]",right,1,43,22,f,y,y,2019_Jul_12_1014,2AFC_task,59.98793042728005,
stimuli/rgb_scene000056_render000001.png,stimuli/rgb_scene000056_render000004.png,1,187,397,50,"[1, 0]",left,1,43,22,f,y,y,2019_Jul_12_1014,2AFC_task,59.98793042728005,
stimuli/rgb_scene000147_render000001.png,stimuli/rgb_scene000147_render000005.png,1,188,398,93,"[1, 0]",left,1,43,22,f,y,y,2019_Jul_12_1014,2AFC_task,59.98793042728005,
stimuli/rgb_scene000047_render000004.png,stimuli/rgb_scene000047_render000005.png,1,189,399,39,"[0, 1]",right,1,43,22,f,y,y,2019_Jul_12_1014,2AFC_task,59.98793042728005,
stimuli/rgb_scene000150_render000000.png,stimuli/rgb_scene000150_render000006.png,1,190,400,110,"[1, 0]",left,1,43,22,f,y,y,2019_Jul_12_1014,2AFC_task,59.98793042728005,
stimuli/rgb_scene000042_render000001.png,stimuli/rgb_scene000042_render000006.png,1,191,401,10,"[1, 0]",left,1,43,22,f,y,y,2019_Jul_12_1014,2AFC_task,59.98793042728005,
stimuli/rgb_scene000150_render000003.png,stimuli/rgb_scene000150_render000004.png,1,192,402,120,"[0, 1]",right,1,43,22,f,y,y,2019_Jul_12_1014,2AFC_task,59.98793042728005,
stimuli/rgb_scene000147_render000002.png,stimuli/rgb_scene000147_render000003.png,1,193,403,95,"[1, 0]",left,1,43,22,f,y,y,2019_Jul_12_1014,2AFC_task,59.98793042728005,
stimuli/rgb_scene000160_render000000.png,stimuli/rgb_scene000160_render000003.png,1,194,404,128,"[1, 0]",left,1,43,22,f,y,y,2019_Jul_12_1014,2AFC_task,59.98793042728005,
stimuli/rgb_scene000042_render000002.png,stimuli/rgb_scene000042_render000006.png,1,195,405,14,"[1, 0]",left,1,43,22,f,y,y,2019_Jul_12_1014,2AFC_task,59.98793042728005,
stimuli/rgb_scene000160_render000000.png,stimuli/rgb_scene000160_render000002.png,1,196,406,127,"[0, 1]",right,1,43,22,f,y,y,2019_Jul_12_1014,2AFC_task,59.98793042728005,
stimuli/rgb_scene000169_render000004.png,stimuli/rgb_scene000169_render000005.png,1,197,407,186,"[1, 0]",left,1,43,22,f,y,y,2019_Jul_12_1014,2AFC_task,59.98793042728005,
stimuli/rgb_scene000066_render000003.png,stimuli/rgb_scene000066_render000005.png,1,198,408,79,"[1, 0]",left,1,43,22,f,y,y,2019_Jul_12_1014,2AFC_task,59.98793042728005,
stimuli/rgb_scene000196_render000001.png,stimuli/rgb_scene000196_render000006.png,1,199,409,199,"[0, 1]",right,1,43,22,f,y,y,2019_Jul_12_1014,2AFC_task,59.98793042728005,
stimuli/rgb_scene000066_render000000.png,stimuli/rgb_scene000066_render000004.png,1,200,410,66,"[1, 0]",left,1,43,22,f,y,y,2019_Jul_12_1014,2AFC_task,59.98793042728005,
stimuli/rgb_scene000165_render000004.png,stimuli/rgb_scene000165_render000005.png,1,201,411,165,"[0, 1]",right,1,43,22,f,y,y,2019_Jul_12_1014,2AFC_task,59.98793042728005,
stimuli/rgb_scene000056_render000003.png,stimuli/rgb_scene000056_render000005.png,1,202,412,58,"[1, 0]",left,1,43,22,f,y,y,2019_Jul_12_1014,2AFC_task,59.98793042728005,
stimuli/rgb_scene000042_render000001.png,stimuli/rgb_scene000042_render000004.png,1,203,413,8,"[1, 0]",left,1,43,22,f,y,y,2019_Jul_12_1014,2AFC_task,59.98793042728005,
stimuli/rgb_scene000150_render000003.png,stimuli/rgb_scene000150_render000006.png,1,204,414,122,"[1, 0]",left,1,43,22,f,y,y,2019_Jul_12_1014,2AFC_task,59.98793042728005,
stimuli/rgb_scene000066_render000001.png,stimuli/rgb_scene000066_render000002.png,1,205,415,69,"[0, 1]",right,1,43,22,f,y,y,2019_Jul_12_1014,2AFC_task,59.98793042728005,
stimuli/rgb_scene000047_render000003.png,stimuli/rgb_scene000047_render000004.png,1,206,416,36,"[0, 1]",right,1,43,22,f,y,y,2019_Jul_12_1014,2AFC_task,59.98793042728005,
stimuli/rgb_scene000047_render000002.png,stimuli/rgb_scene000047_render000006.png,1,207,417,35,"[1, 0]",left,1,43,22,f,y,y,2019_Jul_12_1014,2AFC_task,59.98793042728005,
stimuli/rgb_scene000196_render000002.png,stimuli/rgb_scene000196_render000003.png,1,208,418,200,"[1, 0]",left,1,43,22,f,y,y,2019_Jul_12_1014,2AFC_task,59.98793042728005,
stimuli/rgb_scene000066_render000000.png,stimuli/rgb_scene000066_render000003.png,1,209,419,65,"[0, 1]",right,1,43,22,f,y,y,2019_Jul_12_1014,2AFC_task,59.98793042728005,
