stimOne,stimTwo,trials_1.thisRepN,trials_1.thisTrialN,trials_1.thisN,trials_1.thisIndex,presentation_positions,resp_key,corresponding_image,participant ID (two digits, e.g. 01),age,gender (m/f/-),normal or corrected-to-normal vision (y/n),normal colour vision (y/n),date,expName,frameRate,
stimuli/rgb_scene000150_render000004.png,stimuli/rgb_scene000150_render000005.png,0,0,0,123,"[1, 0]",left,1,70,21,m,n,y,2019_Jul_17_1020,2AFC_task,59.938347413905575,
stimuli/rgb_scene000169_render000000.png,stimuli/rgb_scene000169_render000002.png,0,1,1,169,"[0, 1]",right,1,70,21,m,n,y,2019_Jul_17_1020,2AFC_task,59.938347413905575,
stimuli/rgb_scene000150_render000001.png,stimuli/rgb_scene000150_render000003.png,0,2,2,112,"[1, 0]",left,1,70,21,m,n,y,2019_Jul_17_1020,2AFC_task,59.938347413905575,
stimuli/rgb_scene000196_render000000.png,stimuli/rgb_scene000196_render000005.png,0,3,3,193,"[1, 0]",left,1,70,21,m,n,y,2019_Jul_17_1020,2AFC_task,59.938347413905575,
stimuli/rgb_scene000196_render000001.png,stimuli/rgb_scene000196_render000002.png,0,4,4,195,"[1, 0]",left,1,70,21,m,n,y,2019_Jul_17_1020,2AFC_task,59.938347413905575,
stimuli/rgb_scene000196_render000003.png,stimuli/rgb_scene000196_render000004.png,0,5,5,204,"[0, 1]",right,1,70,21,m,n,y,2019_Jul_17_1020,2AFC_task,59.938347413905575,
stimuli/rgb_scene000160_render000002.png,stimuli/rgb_scene000160_render000006.png,0,6,6,140,"[1, 0]",left,1,70,21,m,n,y,2019_Jul_17_1020,2AFC_task,59.938347413905575,
stimuli/rgb_scene000056_render000001.png,stimuli/rgb_scene000056_render000003.png,0,7,7,49,"[0, 1]",right,1,70,21,m,n,y,2019_Jul_17_1020,2AFC_task,59.938347413905575,
stimuli/rgb_scene000169_render000003.png,stimuli/rgb_scene000169_render000006.png,0,8,8,185,"[1, 0]",left,1,70,21,m,n,y,2019_Jul_17_1020,2AFC_task,59.938347413905575,
stimuli/rgb_scene000165_render000000.png,stimuli/rgb_scene000165_render000003.png,0,9,9,149,"[0, 1]",right,1,70,21,m,n,y,2019_Jul_17_1020,2AFC_task,59.938347413905575,
stimuli/rgb_scene000169_render000001.png,stimuli/rgb_scene000169_render000003.png,0,10,10,175,"[0, 1]",right,1,70,21,m,n,y,2019_Jul_17_1020,2AFC_task,59.938347413905575,
stimuli/rgb_scene000047_render000000.png,stimuli/rgb_scene000047_render000005.png,0,11,11,25,"[1, 0]",left,1,70,21,m,n,y,2019_Jul_17_1020,2AFC_task,59.938347413905575,
stimuli/rgb_scene000042_render000000.png,stimuli/rgb_scene000042_render000006.png,0,12,12,5,"[1, 0]",left,1,70,21,m,n,y,2019_Jul_17_1020,2AFC_task,59.938347413905575,
stimuli/rgb_scene000047_render000001.png,stimuli/rgb_scene000047_render000003.png,0,13,13,28,"[1, 0]",left,1,70,21,m,n,y,2019_Jul_17_1020,2AFC_task,59.938347413905575,
stimuli/rgb_scene000160_render000002.png,stimuli/rgb_scene000160_render000004.png,0,14,14,138,"[0, 1]",right,1,70,21,m,n,y,2019_Jul_17_1020,2AFC_task,59.938347413905575,
stimuli/rgb_scene000042_render000003.png,stimuli/rgb_scene000042_render000004.png,0,15,15,15,"[0, 1]",right,1,70,21,m,n,y,2019_Jul_17_1020,2AFC_task,59.938347413905575,
stimuli/rgb_scene000150_render000003.png,stimuli/rgb_scene000150_render000004.png,0,16,16,120,"[1, 0]",left,1,70,21,m,n,y,2019_Jul_17_1020,2AFC_task,59.938347413905575,
stimuli/rgb_scene000150_render000001.png,stimuli/rgb_scene000150_render000005.png,0,17,17,114,"[0, 1]",right,1,70,21,m,n,y,2019_Jul_17_1020,2AFC_task,59.938347413905575,
stimuli/rgb_scene000147_render000001.png,stimuli/rgb_scene000147_render000006.png,0,18,18,94,"[0, 1]",right,1,70,21,m,n,y,2019_Jul_17_1020,2AFC_task,59.938347413905575,
stimuli/rgb_scene000066_render000000.png,stimuli/rgb_scene000066_render000004.png,0,19,19,66,"[1, 0]",left,1,70,21,m,n,y,2019_Jul_17_1020,2AFC_task,59.938347413905575,
stimuli/rgb_scene000147_render000004.png,stimuli/rgb_scene000147_render000006.png,0,20,20,103,"[1, 0]",left,1,70,21,m,n,y,2019_Jul_17_1020,2AFC_task,59.938347413905575,
stimuli/rgb_scene000147_render000000.png,stimuli/rgb_scene000147_render000004.png,0,21,21,87,"[0, 1]",right,1,70,21,m,n,y,2019_Jul_17_1020,2AFC_task,59.938347413905575,
stimuli/rgb_scene000165_render000001.png,stimuli/rgb_scene000165_render000004.png,0,22,22,155,"[0, 1]",right,1,70,21,m,n,y,2019_Jul_17_1020,2AFC_task,59.938347413905575,
stimuli/rgb_scene000147_render000000.png,stimuli/rgb_scene000147_render000001.png,0,23,23,84,"[1, 0]",left,1,70,21,m,n,y,2019_Jul_17_1020,2AFC_task,59.938347413905575,
stimuli/rgb_scene000150_render000005.png,stimuli/rgb_scene000150_render000006.png,0,24,24,125,"[0, 1]",right,1,70,21,m,n,y,2019_Jul_17_1020,2AFC_task,59.938347413905575,
stimuli/rgb_scene000042_render000001.png,stimuli/rgb_scene000042_render000006.png,0,25,25,10,"[0, 1]",right,1,70,21,m,n,y,2019_Jul_17_1020,2AFC_task,59.938347413905575,
stimuli/rgb_scene000196_render000001.png,stimuli/rgb_scene000196_render000004.png,0,26,26,197,"[0, 1]",right,1,70,21,m,n,y,2019_Jul_17_1020,2AFC_task,59.938347413905575,
stimuli/rgb_scene000066_render000001.png,stimuli/rgb_scene000066_render000002.png,0,27,27,69,"[0, 1]",right,1,70,21,m,n,y,2019_Jul_17_1020,2AFC_task,59.938347413905575,
stimuli/rgb_scene000042_render000001.png,stimuli/rgb_scene000042_render000004.png,0,28,28,8,"[1, 0]",left,1,70,21,m,n,y,2019_Jul_17_1020,2AFC_task,59.938347413905575,
stimuli/rgb_scene000196_render000002.png,stimuli/rgb_scene000196_render000003.png,0,29,29,200,"[0, 1]",right,1,70,21,m,n,y,2019_Jul_17_1020,2AFC_task,59.938347413905575,
stimuli/rgb_scene000066_render000001.png,stimuli/rgb_scene000066_render000003.png,0,30,30,70,"[0, 1]",right,1,70,21,m,n,y,2019_Jul_17_1020,2AFC_task,59.938347413905575,
stimuli/rgb_scene000150_render000003.png,stimuli/rgb_scene000150_render000006.png,0,31,31,122,"[1, 0]",left,1,70,21,m,n,y,2019_Jul_17_1020,2AFC_task,59.938347413905575,
stimuli/rgb_scene000056_render000001.png,stimuli/rgb_scene000056_render000004.png,0,32,32,50,"[1, 0]",left,1,70,21,m,n,y,2019_Jul_17_1020,2AFC_task,59.938347413905575,
stimuli/rgb_scene000042_render000001.png,stimuli/rgb_scene000042_render000002.png,0,33,33,6,"[1, 0]",left,1,70,21,m,n,y,2019_Jul_17_1020,2AFC_task,59.938347413905575,
stimuli/rgb_scene000056_render000002.png,stimuli/rgb_scene000056_render000004.png,0,34,34,54,"[0, 1]",right,1,70,21,m,n,y,2019_Jul_17_1020,2AFC_task,59.938347413905575,
stimuli/rgb_scene000066_render000001.png,stimuli/rgb_scene000066_render000005.png,0,35,35,72,"[0, 1]",right,1,70,21,m,n,y,2019_Jul_17_1020,2AFC_task,59.938347413905575,
stimuli/rgb_scene000147_render000000.png,stimuli/rgb_scene000147_render000006.png,0,36,36,89,"[0, 1]",right,1,70,21,m,n,y,2019_Jul_17_1020,2AFC_task,59.938347413905575,
stimuli/rgb_scene000066_render000002.png,stimuli/rgb_scene000066_render000003.png,0,37,37,74,"[1, 0]",left,1,70,21,m,n,y,2019_Jul_17_1020,2AFC_task,59.938347413905575,
stimuli/rgb_scene000160_render000004.png,stimuli/rgb_scene000160_render000006.png,0,38,38,145,"[0, 1]",right,1,70,21,m,n,y,2019_Jul_17_1020,2AFC_task,59.938347413905575,
stimuli/rgb_scene000169_render000001.png,stimuli/rgb_scene000169_render000006.png,0,39,39,178,"[1, 0]",left,1,70,21,m,n,y,2019_Jul_17_1020,2AFC_task,59.938347413905575,
stimuli/rgb_scene000196_render000001.png,stimuli/rgb_scene000196_render000003.png,0,40,40,196,"[0, 1]",right,1,70,21,m,n,y,2019_Jul_17_1020,2AFC_task,59.938347413905575,
stimuli/rgb_scene000147_render000004.png,stimuli/rgb_scene000147_render000005.png,0,41,41,102,"[1, 0]",left,1,70,21,m,n,y,2019_Jul_17_1020,2AFC_task,59.938347413905575,
stimuli/rgb_scene000042_render000004.png,stimuli/rgb_scene000042_render000005.png,0,42,42,18,"[0, 1]",right,1,70,21,m,n,y,2019_Jul_17_1020,2AFC_task,59.938347413905575,
stimuli/rgb_scene000066_render000000.png,stimuli/rgb_scene000066_render000001.png,0,43,43,63,"[1, 0]",left,1,70,21,m,n,y,2019_Jul_17_1020,2AFC_task,59.938347413905575,
stimuli/rgb_scene000147_render000005.png,stimuli/rgb_scene000147_render000006.png,0,44,44,104,"[1, 0]",left,1,70,21,m,n,y,2019_Jul_17_1020,2AFC_task,59.938347413905575,
stimuli/rgb_scene000150_render000002.png,stimuli/rgb_scene000150_render000006.png,0,45,45,119,"[1, 0]",left,1,70,21,m,n,y,2019_Jul_17_1020,2AFC_task,59.938347413905575,
stimuli/rgb_scene000056_render000001.png,stimuli/rgb_scene000056_render000006.png,0,46,46,52,"[0, 1]",right,1,70,21,m,n,y,2019_Jul_17_1020,2AFC_task,59.938347413905575,
stimuli/rgb_scene000047_render000004.png,stimuli/rgb_scene000047_render000005.png,0,47,47,39,"[1, 0]",left,1,70,21,m,n,y,2019_Jul_17_1020,2AFC_task,59.938347413905575,
stimuli/rgb_scene000056_render000000.png,stimuli/rgb_scene000056_render000004.png,0,48,48,45,"[0, 1]",right,1,70,21,m,n,y,2019_Jul_17_1020,2AFC_task,59.938347413905575,
stimuli/rgb_scene000160_render000002.png,stimuli/rgb_scene000160_render000005.png,0,49,49,139,"[1, 0]",left,1,70,21,m,n,y,2019_Jul_17_1020,2AFC_task,59.938347413905575,
stimuli/rgb_scene000169_render000005.png,stimuli/rgb_scene000169_render000006.png,0,50,50,188,"[1, 0]",left,1,70,21,m,n,y,2019_Jul_17_1020,2AFC_task,59.938347413905575,
stimuli/rgb_scene000165_render000000.png,stimuli/rgb_scene000165_render000004.png,0,51,51,150,"[1, 0]",left,1,70,21,m,n,y,2019_Jul_17_1020,2AFC_task,59.938347413905575,
stimuli/rgb_scene000066_render000003.png,stimuli/rgb_scene000066_render000004.png,0,52,52,78,"[0, 1]",right,1,70,21,m,n,y,2019_Jul_17_1020,2AFC_task,59.938347413905575,
stimuli/rgb_scene000047_render000003.png,stimuli/rgb_scene000047_render000004.png,0,53,53,36,"[1, 0]",left,1,70,21,m,n,y,2019_Jul_17_1020,2AFC_task,59.938347413905575,
stimuli/rgb_scene000147_render000003.png,stimuli/rgb_scene000147_render000004.png,0,54,54,99,"[1, 0]",left,1,70,21,m,n,y,2019_Jul_17_1020,2AFC_task,59.938347413905575,
stimuli/rgb_scene000196_render000005.png,stimuli/rgb_scene000196_render000006.png,0,55,55,209,"[0, 1]",right,1,70,21,m,n,y,2019_Jul_17_1020,2AFC_task,59.938347413905575,
stimuli/rgb_scene000165_render000002.png,stimuli/rgb_scene000165_render000006.png,0,56,56,161,"[1, 0]",left,1,70,21,m,n,y,2019_Jul_17_1020,2AFC_task,59.938347413905575,
stimuli/rgb_scene000196_render000003.png,stimuli/rgb_scene000196_render000006.png,0,57,57,206,"[1, 0]",right,0,70,21,m,n,y,2019_Jul_17_1020,2AFC_task,59.938347413905575,
stimuli/rgb_scene000047_render000003.png,stimuli/rgb_scene000047_render000006.png,0,58,58,38,"[0, 1]",right,1,70,21,m,n,y,2019_Jul_17_1020,2AFC_task,59.938347413905575,
stimuli/rgb_scene000160_render000000.png,stimuli/rgb_scene000160_render000002.png,0,59,59,127,"[1, 0]",left,1,70,21,m,n,y,2019_Jul_17_1020,2AFC_task,59.938347413905575,
stimuli/rgb_scene000066_render000005.png,stimuli/rgb_scene000066_render000006.png,0,60,60,83,"[1, 0]",left,1,70,21,m,n,y,2019_Jul_17_1020,2AFC_task,59.938347413905575,
stimuli/rgb_scene000042_render000001.png,stimuli/rgb_scene000042_render000005.png,0,61,61,9,"[1, 0]",left,1,70,21,m,n,y,2019_Jul_17_1020,2AFC_task,59.938347413905575,
stimuli/rgb_scene000147_render000003.png,stimuli/rgb_scene000147_render000006.png,0,62,62,101,"[1, 0]",left,1,70,21,m,n,y,2019_Jul_17_1020,2AFC_task,59.938347413905575,
stimuli/rgb_scene000169_render000003.png,stimuli/rgb_scene000169_render000005.png,0,63,63,184,"[1, 0]",left,1,70,21,m,n,y,2019_Jul_17_1020,2AFC_task,59.938347413905575,
stimuli/rgb_scene000196_render000001.png,stimuli/rgb_scene000196_render000006.png,0,64,64,199,"[1, 0]",left,1,70,21,m,n,y,2019_Jul_17_1020,2AFC_task,59.938347413905575,
stimuli/rgb_scene000160_render000001.png,stimuli/rgb_scene000160_render000003.png,0,65,65,133,"[0, 1]",right,1,70,21,m,n,y,2019_Jul_17_1020,2AFC_task,59.938347413905575,
stimuli/rgb_scene000047_render000005.png,stimuli/rgb_scene000047_render000006.png,0,66,66,41,"[1, 0]",left,1,70,21,m,n,y,2019_Jul_17_1020,2AFC_task,59.938347413905575,
stimuli/rgb_scene000056_render000004.png,stimuli/rgb_scene000056_render000006.png,0,67,67,61,"[0, 1]",right,1,70,21,m,n,y,2019_Jul_17_1020,2AFC_task,59.938347413905575,
stimuli/rgb_scene000042_render000004.png,stimuli/rgb_scene000042_render000006.png,0,68,68,19,"[1, 0]",left,1,70,21,m,n,y,2019_Jul_17_1020,2AFC_task,59.938347413905575,
stimuli/rgb_scene000160_render000000.png,stimuli/rgb_scene000160_render000004.png,0,69,69,129,"[0, 1]",right,1,70,21,m,n,y,2019_Jul_17_1020,2AFC_task,59.938347413905575,
stimuli/rgb_scene000150_render000000.png,stimuli/rgb_scene000150_render000001.png,0,70,70,105,"[0, 1]",right,1,70,21,m,n,y,2019_Jul_17_1020,2AFC_task,59.938347413905575,
stimuli/rgb_scene000147_render000001.png,stimuli/rgb_scene000147_render000004.png,0,71,71,92,"[0, 1]",right,1,70,21,m,n,y,2019_Jul_17_1020,2AFC_task,59.938347413905575,
stimuli/rgb_scene000150_render000000.png,stimuli/rgb_scene000150_render000002.png,0,72,72,106,"[0, 1]",right,1,70,21,m,n,y,2019_Jul_17_1020,2AFC_task,59.938347413905575,
stimuli/rgb_scene000147_render000000.png,stimuli/rgb_scene000147_render000002.png,0,73,73,85,"[1, 0]",left,1,70,21,m,n,y,2019_Jul_17_1020,2AFC_task,59.938347413905575,
stimuli/rgb_scene000169_render000000.png,stimuli/rgb_scene000169_render000005.png,0,74,74,172,"[0, 1]",right,1,70,21,m,n,y,2019_Jul_17_1020,2AFC_task,59.938347413905575,
stimuli/rgb_scene000196_render000002.png,stimuli/rgb_scene000196_render000006.png,0,75,75,203,"[0, 1]",left,0,70,21,m,n,y,2019_Jul_17_1020,2AFC_task,59.938347413905575,
stimuli/rgb_scene000196_render000000.png,stimuli/rgb_scene000196_render000006.png,0,76,76,194,"[0, 1]",right,1,70,21,m,n,y,2019_Jul_17_1020,2AFC_task,59.938347413905575,
stimuli/rgb_scene000066_render000001.png,stimuli/rgb_scene000066_render000006.png,0,77,77,73,"[0, 1]",right,1,70,21,m,n,y,2019_Jul_17_1020,2AFC_task,59.938347413905575,
stimuli/rgb_scene000169_render000000.png,stimuli/rgb_scene000169_render000006.png,0,78,78,173,"[0, 1]",right,1,70,21,m,n,y,2019_Jul_17_1020,2AFC_task,59.938347413905575,
stimuli/rgb_scene000169_render000004.png,stimuli/rgb_scene000169_render000006.png,0,79,79,187,"[0, 1]",right,1,70,21,m,n,y,2019_Jul_17_1020,2AFC_task,59.938347413905575,
stimuli/rgb_scene000169_render000000.png,stimuli/rgb_scene000169_render000001.png,0,80,80,168,"[1, 0]",left,1,70,21,m,n,y,2019_Jul_17_1020,2AFC_task,59.938347413905575,
stimuli/rgb_scene000042_render000000.png,stimuli/rgb_scene000042_render000003.png,0,81,81,2,"[1, 0]",left,1,70,21,m,n,y,2019_Jul_17_1020,2AFC_task,59.938347413905575,
stimuli/rgb_scene000150_render000001.png,stimuli/rgb_scene000150_render000004.png,0,82,82,113,"[0, 1]",right,1,70,21,m,n,y,2019_Jul_17_1020,2AFC_task,59.938347413905575,
stimuli/rgb_scene000042_render000002.png,stimuli/rgb_scene000042_render000005.png,0,83,83,13,"[1, 0]",left,1,70,21,m,n,y,2019_Jul_17_1020,2AFC_task,59.938347413905575,
stimuli/rgb_scene000165_render000000.png,stimuli/rgb_scene000165_render000005.png,0,84,84,151,"[1, 0]",left,1,70,21,m,n,y,2019_Jul_17_1020,2AFC_task,59.938347413905575,
stimuli/rgb_scene000042_render000000.png,stimuli/rgb_scene000042_render000001.png,0,85,85,0,"[1, 0]",left,1,70,21,m,n,y,2019_Jul_17_1020,2AFC_task,59.938347413905575,
stimuli/rgb_scene000150_render000000.png,stimuli/rgb_scene000150_render000004.png,0,86,86,108,"[0, 1]",right,1,70,21,m,n,y,2019_Jul_17_1020,2AFC_task,59.938347413905575,
stimuli/rgb_scene000150_render000001.png,stimuli/rgb_scene000150_render000006.png,0,87,87,115,"[1, 0]",left,1,70,21,m,n,y,2019_Jul_17_1020,2AFC_task,59.938347413905575,
stimuli/rgb_scene000165_render000000.png,stimuli/rgb_scene000165_render000001.png,0,88,88,147,"[0, 1]",right,1,70,21,m,n,y,2019_Jul_17_1020,2AFC_task,59.938347413905575,
stimuli/rgb_scene000066_render000003.png,stimuli/rgb_scene000066_render000005.png,0,89,89,79,"[0, 1]",right,1,70,21,m,n,y,2019_Jul_17_1020,2AFC_task,59.938347413905575,
stimuli/rgb_scene000169_render000001.png,stimuli/rgb_scene000169_render000004.png,0,90,90,176,"[1, 0]",left,1,70,21,m,n,y,2019_Jul_17_1020,2AFC_task,59.938347413905575,
stimuli/rgb_scene000056_render000000.png,stimuli/rgb_scene000056_render000001.png,0,91,91,42,"[0, 1]",right,1,70,21,m,n,y,2019_Jul_17_1020,2AFC_task,59.938347413905575,
stimuli/rgb_scene000147_render000001.png,stimuli/rgb_scene000147_render000003.png,0,92,92,91,"[1, 0]",left,1,70,21,m,n,y,2019_Jul_17_1020,2AFC_task,59.938347413905575,
stimuli/rgb_scene000169_render000001.png,stimuli/rgb_scene000169_render000002.png,0,93,93,174,"[0, 1]",right,1,70,21,m,n,y,2019_Jul_17_1020,2AFC_task,59.938347413905575,
stimuli/rgb_scene000165_render000003.png,stimuli/rgb_scene000165_render000005.png,0,94,94,163,"[1, 0]",left,1,70,21,m,n,y,2019_Jul_17_1020,2AFC_task,59.938347413905575,
stimuli/rgb_scene000160_render000000.png,stimuli/rgb_scene000160_render000001.png,0,95,95,126,"[0, 1]",right,1,70,21,m,n,y,2019_Jul_17_1020,2AFC_task,59.938347413905575,
stimuli/rgb_scene000066_render000002.png,stimuli/rgb_scene000066_render000005.png,0,96,96,76,"[0, 1]",right,1,70,21,m,n,y,2019_Jul_17_1020,2AFC_task,59.938347413905575,
stimuli/rgb_scene000169_render000004.png,stimuli/rgb_scene000169_render000005.png,0,97,97,186,"[1, 0]",left,1,70,21,m,n,y,2019_Jul_17_1020,2AFC_task,59.938347413905575,
stimuli/rgb_scene000056_render000000.png,stimuli/rgb_scene000056_render000005.png,0,98,98,46,"[1, 0]",left,1,70,21,m,n,y,2019_Jul_17_1020,2AFC_task,59.938347413905575,
stimuli/rgb_scene000169_render000000.png,stimuli/rgb_scene000169_render000003.png,0,99,99,170,"[1, 0]",left,1,70,21,m,n,y,2019_Jul_17_1020,2AFC_task,59.938347413905575,
stimuli/rgb_scene000056_render000002.png,stimuli/rgb_scene000056_render000005.png,0,100,100,55,"[0, 1]",right,1,70,21,m,n,y,2019_Jul_17_1020,2AFC_task,59.938347413905575,
stimuli/rgb_scene000056_render000000.png,stimuli/rgb_scene000056_render000003.png,0,101,101,44,"[0, 1]",right,1,70,21,m,n,y,2019_Jul_17_1020,2AFC_task,59.938347413905575,
stimuli/rgb_scene000160_render000000.png,stimuli/rgb_scene000160_render000006.png,0,102,102,131,"[0, 1]",right,1,70,21,m,n,y,2019_Jul_17_1020,2AFC_task,59.938347413905575,
stimuli/rgb_scene000150_render000002.png,stimuli/rgb_scene000150_render000004.png,0,103,103,117,"[1, 0]",left,1,70,21,m,n,y,2019_Jul_17_1020,2AFC_task,59.938347413905575,
stimuli/rgb_scene000160_render000003.png,stimuli/rgb_scene000160_render000006.png,0,104,104,143,"[0, 1]",right,1,70,21,m,n,y,2019_Jul_17_1020,2AFC_task,59.938347413905575,
stimuli/rgb_scene000160_render000004.png,stimuli/rgb_scene000160_render000005.png,0,105,105,144,"[0, 1]",left,0,70,21,m,n,y,2019_Jul_17_1020,2AFC_task,59.938347413905575,
stimuli/rgb_scene000196_render000000.png,stimuli/rgb_scene000196_render000002.png,0,106,106,190,"[0, 1]",right,1,70,21,m,n,y,2019_Jul_17_1020,2AFC_task,59.938347413905575,
stimuli/rgb_scene000047_render000003.png,stimuli/rgb_scene000047_render000005.png,0,107,107,37,"[1, 0]",left,1,70,21,m,n,y,2019_Jul_17_1020,2AFC_task,59.938347413905575,
stimuli/rgb_scene000047_render000001.png,stimuli/rgb_scene000047_render000005.png,0,108,108,30,"[0, 1]",right,1,70,21,m,n,y,2019_Jul_17_1020,2AFC_task,59.938347413905575,
stimuli/rgb_scene000066_render000000.png,stimuli/rgb_scene000066_render000005.png,0,109,109,67,"[1, 0]",left,1,70,21,m,n,y,2019_Jul_17_1020,2AFC_task,59.938347413905575,
stimuli/rgb_scene000150_render000001.png,stimuli/rgb_scene000150_render000002.png,0,110,110,111,"[0, 1]",right,1,70,21,m,n,y,2019_Jul_17_1020,2AFC_task,59.938347413905575,
stimuli/rgb_scene000169_render000002.png,stimuli/rgb_scene000169_render000004.png,0,111,111,180,"[0, 1]",right,1,70,21,m,n,y,2019_Jul_17_1020,2AFC_task,59.938347413905575,
stimuli/rgb_scene000047_render000000.png,stimuli/rgb_scene000047_render000001.png,0,112,112,21,"[0, 1]",right,1,70,21,m,n,y,2019_Jul_17_1020,2AFC_task,59.938347413905575,
stimuli/rgb_scene000165_render000003.png,stimuli/rgb_scene000165_render000004.png,0,113,113,162,"[1, 0]",left,1,70,21,m,n,y,2019_Jul_17_1020,2AFC_task,59.938347413905575,
stimuli/rgb_scene000160_render000001.png,stimuli/rgb_scene000160_render000005.png,0,114,114,135,"[1, 0]",left,1,70,21,m,n,y,2019_Jul_17_1020,2AFC_task,59.938347413905575,
stimuli/rgb_scene000160_render000000.png,stimuli/rgb_scene000160_render000003.png,0,115,115,128,"[1, 0]",left,1,70,21,m,n,y,2019_Jul_17_1020,2AFC_task,59.938347413905575,
stimuli/rgb_scene000042_render000003.png,stimuli/rgb_scene000042_render000005.png,0,116,116,16,"[1, 0]",left,1,70,21,m,n,y,2019_Jul_17_1020,2AFC_task,59.938347413905575,
stimuli/rgb_scene000066_render000001.png,stimuli/rgb_scene000066_render000004.png,0,117,117,71,"[0, 1]",right,1,70,21,m,n,y,2019_Jul_17_1020,2AFC_task,59.938347413905575,
stimuli/rgb_scene000047_render000001.png,stimuli/rgb_scene000047_render000004.png,0,118,118,29,"[1, 0]",left,1,70,21,m,n,y,2019_Jul_17_1020,2AFC_task,59.938347413905575,
stimuli/rgb_scene000165_render000001.png,stimuli/rgb_scene000165_render000006.png,0,119,119,157,"[0, 1]",right,1,70,21,m,n,y,2019_Jul_17_1020,2AFC_task,59.938347413905575,
stimuli/rgb_scene000160_render000001.png,stimuli/rgb_scene000160_render000006.png,0,120,120,136,"[1, 0]",left,1,70,21,m,n,y,2019_Jul_17_1020,2AFC_task,59.938347413905575,
stimuli/rgb_scene000056_render000000.png,stimuli/rgb_scene000056_render000002.png,0,121,121,43,"[0, 1]",right,1,70,21,m,n,y,2019_Jul_17_1020,2AFC_task,59.938347413905575,
stimuli/rgb_scene000047_render000000.png,stimuli/rgb_scene000047_render000003.png,0,122,122,23,"[0, 1]",right,1,70,21,m,n,y,2019_Jul_17_1020,2AFC_task,59.938347413905575,
stimuli/rgb_scene000047_render000002.png,stimuli/rgb_scene000047_render000006.png,0,123,123,35,"[1, 0]",left,1,70,21,m,n,y,2019_Jul_17_1020,2AFC_task,59.938347413905575,
stimuli/rgb_scene000047_render000000.png,stimuli/rgb_scene000047_render000002.png,0,124,124,22,"[0, 1]",right,1,70,21,m,n,y,2019_Jul_17_1020,2AFC_task,59.938347413905575,
stimuli/rgb_scene000150_render000003.png,stimuli/rgb_scene000150_render000005.png,0,125,125,121,"[1, 0]",left,1,70,21,m,n,y,2019_Jul_17_1020,2AFC_task,59.938347413905575,
stimuli/rgb_scene000047_render000000.png,stimuli/rgb_scene000047_render000006.png,0,126,126,26,"[1, 0]",left,1,70,21,m,n,y,2019_Jul_17_1020,2AFC_task,59.938347413905575,
stimuli/rgb_scene000196_render000003.png,stimuli/rgb_scene000196_render000005.png,0,127,127,205,"[1, 0]",left,1,70,21,m,n,y,2019_Jul_17_1020,2AFC_task,59.938347413905575,
stimuli/rgb_scene000165_render000001.png,stimuli/rgb_scene000165_render000003.png,0,128,128,154,"[1, 0]",left,1,70,21,m,n,y,2019_Jul_17_1020,2AFC_task,59.938347413905575,
stimuli/rgb_scene000169_render000002.png,stimuli/rgb_scene000169_render000003.png,0,129,129,179,"[0, 1]",right,1,70,21,m,n,y,2019_Jul_17_1020,2AFC_task,59.938347413905575,
stimuli/rgb_scene000169_render000002.png,stimuli/rgb_scene000169_render000006.png,0,130,130,182,"[0, 1]",right,1,70,21,m,n,y,2019_Jul_17_1020,2AFC_task,59.938347413905575,
stimuli/rgb_scene000056_render000005.png,stimuli/rgb_scene000056_render000006.png,0,131,131,62,"[1, 0]",left,1,70,21,m,n,y,2019_Jul_17_1020,2AFC_task,59.938347413905575,
stimuli/rgb_scene000056_render000000.png,stimuli/rgb_scene000056_render000006.png,0,132,132,47,"[1, 0]",left,1,70,21,m,n,y,2019_Jul_17_1020,2AFC_task,59.938347413905575,
stimuli/rgb_scene000047_render000000.png,stimuli/rgb_scene000047_render000004.png,0,133,133,24,"[1, 0]",left,1,70,21,m,n,y,2019_Jul_17_1020,2AFC_task,59.938347413905575,
stimuli/rgb_scene000165_render000004.png,stimuli/rgb_scene000165_render000006.png,0,134,134,166,"[0, 1]",right,1,70,21,m,n,y,2019_Jul_17_1020,2AFC_task,59.938347413905575,
stimuli/rgb_scene000147_render000001.png,stimuli/rgb_scene000147_render000005.png,0,135,135,93,"[0, 1]",right,1,70,21,m,n,y,2019_Jul_17_1020,2AFC_task,59.938347413905575,
stimuli/rgb_scene000056_render000003.png,stimuli/rgb_scene000056_render000004.png,0,136,136,57,"[0, 1]",right,1,70,21,m,n,y,2019_Jul_17_1020,2AFC_task,59.938347413905575,
stimuli/rgb_scene000042_render000003.png,stimuli/rgb_scene000042_render000006.png,0,137,137,17,"[1, 0]",left,1,70,21,m,n,y,2019_Jul_17_1020,2AFC_task,59.938347413905575,
stimuli/rgb_scene000047_render000002.png,stimuli/rgb_scene000047_render000003.png,0,138,138,32,"[1, 0]",left,1,70,21,m,n,y,2019_Jul_17_1020,2AFC_task,59.938347413905575,
stimuli/rgb_scene000056_render000001.png,stimuli/rgb_scene000056_render000002.png,0,139,139,48,"[1, 0]",left,1,70,21,m,n,y,2019_Jul_17_1020,2AFC_task,59.938347413905575,
stimuli/rgb_scene000165_render000004.png,stimuli/rgb_scene000165_render000005.png,0,140,140,165,"[0, 1]",left,0,70,21,m,n,y,2019_Jul_17_1020,2AFC_task,59.938347413905575,
stimuli/rgb_scene000066_render000004.png,stimuli/rgb_scene000066_render000006.png,0,141,141,82,"[0, 1]",right,1,70,21,m,n,y,2019_Jul_17_1020,2AFC_task,59.938347413905575,
stimuli/rgb_scene000165_render000000.png,stimuli/rgb_scene000165_render000002.png,0,142,142,148,"[1, 0]",left,1,70,21,m,n,y,2019_Jul_17_1020,2AFC_task,59.938347413905575,
stimuli/rgb_scene000056_render000002.png,stimuli/rgb_scene000056_render000006.png,0,143,143,56,"[0, 1]",right,1,70,21,m,n,y,2019_Jul_17_1020,2AFC_task,59.938347413905575,
stimuli/rgb_scene000196_render000000.png,stimuli/rgb_scene000196_render000003.png,0,144,144,191,"[0, 1]",right,1,70,21,m,n,y,2019_Jul_17_1020,2AFC_task,59.938347413905575,
stimuli/rgb_scene000147_render000001.png,stimuli/rgb_scene000147_render000002.png,0,145,145,90,"[0, 1]",right,1,70,21,m,n,y,2019_Jul_17_1020,2AFC_task,59.938347413905575,
stimuli/rgb_scene000150_render000000.png,stimuli/rgb_scene000150_render000003.png,0,146,146,107,"[1, 0]",left,1,70,21,m,n,y,2019_Jul_17_1020,2AFC_task,59.938347413905575,
stimuli/rgb_scene000165_render000002.png,stimuli/rgb_scene000165_render000005.png,0,147,147,160,"[1, 0]",left,1,70,21,m,n,y,2019_Jul_17_1020,2AFC_task,59.938347413905575,
stimuli/rgb_scene000147_render000002.png,stimuli/rgb_scene000147_render000006.png,0,148,148,98,"[1, 0]",left,1,70,21,m,n,y,2019_Jul_17_1020,2AFC_task,59.938347413905575,
stimuli/rgb_scene000047_render000001.png,stimuli/rgb_scene000047_render000006.png,0,149,149,31,"[1, 0]",left,1,70,21,m,n,y,2019_Jul_17_1020,2AFC_task,59.938347413905575,
stimuli/rgb_scene000150_render000000.png,stimuli/rgb_scene000150_render000005.png,0,150,150,109,"[1, 0]",left,1,70,21,m,n,y,2019_Jul_17_1020,2AFC_task,59.938347413905575,
stimuli/rgb_scene000196_render000001.png,stimuli/rgb_scene000196_render000005.png,0,151,151,198,"[1, 0]",left,1,70,21,m,n,y,2019_Jul_17_1020,2AFC_task,59.938347413905575,
stimuli/rgb_scene000196_render000000.png,stimuli/rgb_scene000196_render000001.png,0,152,152,189,"[1, 0]",left,1,70,21,m,n,y,2019_Jul_17_1020,2AFC_task,59.938347413905575,
stimuli/rgb_scene000147_render000002.png,stimuli/rgb_scene000147_render000005.png,0,153,153,97,"[1, 0]",left,1,70,21,m,n,y,2019_Jul_17_1020,2AFC_task,59.938347413905575,
stimuli/rgb_scene000160_render000002.png,stimuli/rgb_scene000160_render000003.png,0,154,154,137,"[0, 1]",right,1,70,21,m,n,y,2019_Jul_17_1020,2AFC_task,59.938347413905575,
stimuli/rgb_scene000169_render000003.png,stimuli/rgb_scene000169_render000004.png,0,155,155,183,"[1, 0]",left,1,70,21,m,n,y,2019_Jul_17_1020,2AFC_task,59.938347413905575,
stimuli/rgb_scene000056_render000003.png,stimuli/rgb_scene000056_render000005.png,0,156,156,58,"[0, 1]",right,1,70,21,m,n,y,2019_Jul_17_1020,2AFC_task,59.938347413905575,
stimuli/rgb_scene000042_render000000.png,stimuli/rgb_scene000042_render000002.png,0,157,157,1,"[1, 0]",left,1,70,21,m,n,y,2019_Jul_17_1020,2AFC_task,59.938347413905575,
stimuli/rgb_scene000042_render000002.png,stimuli/rgb_scene000042_render000003.png,0,158,158,11,"[0, 1]",right,1,70,21,m,n,y,2019_Jul_17_1020,2AFC_task,59.938347413905575,
stimuli/rgb_scene000147_render000002.png,stimuli/rgb_scene000147_render000003.png,0,159,159,95,"[0, 1]",right,1,70,21,m,n,y,2019_Jul_17_1020,2AFC_task,59.938347413905575,
stimuli/rgb_scene000147_render000000.png,stimuli/rgb_scene000147_render000005.png,0,160,160,88,"[1, 0]",left,1,70,21,m,n,y,2019_Jul_17_1020,2AFC_task,59.938347413905575,
stimuli/rgb_scene000042_render000000.png,stimuli/rgb_scene000042_render000005.png,0,161,161,4,"[1, 0]",left,1,70,21,m,n,y,2019_Jul_17_1020,2AFC_task,59.938347413905575,
stimuli/rgb_scene000196_render000004.png,stimuli/rgb_scene000196_render000006.png,0,162,162,208,"[1, 0]",right,0,70,21,m,n,y,2019_Jul_17_1020,2AFC_task,59.938347413905575,
stimuli/rgb_scene000165_render000005.png,stimuli/rgb_scene000165_render000006.png,0,163,163,167,"[1, 0]",left,1,70,21,m,n,y,2019_Jul_17_1020,2AFC_task,59.938347413905575,
stimuli/rgb_scene000169_render000002.png,stimuli/rgb_scene000169_render000005.png,0,164,164,181,"[1, 0]",left,1,70,21,m,n,y,2019_Jul_17_1020,2AFC_task,59.938347413905575,
stimuli/rgb_scene000165_render000003.png,stimuli/rgb_scene000165_render000006.png,0,165,165,164,"[1, 0]",left,1,70,21,m,n,y,2019_Jul_17_1020,2AFC_task,59.938347413905575,
stimuli/rgb_scene000042_render000002.png,stimuli/rgb_scene000042_render000006.png,0,166,166,14,"[1, 0]",left,1,70,21,m,n,y,2019_Jul_17_1020,2AFC_task,59.938347413905575,
stimuli/rgb_scene000056_render000001.png,stimuli/rgb_scene000056_render000005.png,0,167,167,51,"[1, 0]",left,1,70,21,m,n,y,2019_Jul_17_1020,2AFC_task,59.938347413905575,
stimuli/rgb_scene000066_render000000.png,stimuli/rgb_scene000066_render000002.png,0,168,168,64,"[1, 0]",left,1,70,21,m,n,y,2019_Jul_17_1020,2AFC_task,59.938347413905575,
stimuli/rgb_scene000150_render000004.png,stimuli/rgb_scene000150_render000006.png,0,169,169,124,"[0, 1]",right,1,70,21,m,n,y,2019_Jul_17_1020,2AFC_task,59.938347413905575,
stimuli/rgb_scene000160_render000003.png,stimuli/rgb_scene000160_render000005.png,0,170,170,142,"[1, 0]",left,1,70,21,m,n,y,2019_Jul_17_1020,2AFC_task,59.938347413905575,
stimuli/rgb_scene000150_render000002.png,stimuli/rgb_scene000150_render000003.png,0,171,171,116,"[0, 1]",right,1,70,21,m,n,y,2019_Jul_17_1020,2AFC_task,59.938347413905575,
stimuli/rgb_scene000047_render000001.png,stimuli/rgb_scene000047_render000002.png,0,172,172,27,"[0, 1]",right,1,70,21,m,n,y,2019_Jul_17_1020,2AFC_task,59.938347413905575,
stimuli/rgb_scene000160_render000001.png,stimuli/rgb_scene000160_render000004.png,0,173,173,134,"[0, 1]",right,1,70,21,m,n,y,2019_Jul_17_1020,2AFC_task,59.938347413905575,
stimuli/rgb_scene000147_render000000.png,stimuli/rgb_scene000147_render000003.png,0,174,174,86,"[1, 0]",left,1,70,21,m,n,y,2019_Jul_17_1020,2AFC_task,59.938347413905575,
stimuli/rgb_scene000150_render000002.png,stimuli/rgb_scene000150_render000005.png,0,175,175,118,"[0, 1]",right,1,70,21,m,n,y,2019_Jul_17_1020,2AFC_task,59.938347413905575,
stimuli/rgb_scene000066_render000004.png,stimuli/rgb_scene000066_render000005.png,0,176,176,81,"[0, 1]",right,1,70,21,m,n,y,2019_Jul_17_1020,2AFC_task,59.938347413905575,
stimuli/rgb_scene000150_render000000.png,stimuli/rgb_scene000150_render000006.png,0,177,177,110,"[0, 1]",right,1,70,21,m,n,y,2019_Jul_17_1020,2AFC_task,59.938347413905575,
stimuli/rgb_scene000047_render000002.png,stimuli/rgb_scene000047_render000004.png,0,178,178,33,"[0, 1]",right,1,70,21,m,n,y,2019_Jul_17_1020,2AFC_task,59.938347413905575,
stimuli/rgb_scene000056_render000004.png,stimuli/rgb_scene000056_render000005.png,0,179,179,60,"[1, 0]",left,1,70,21,m,n,y,2019_Jul_17_1020,2AFC_task,59.938347413905575,
stimuli/rgb_scene000042_render000000.png,stimuli/rgb_scene000042_render000004.png,0,180,180,3,"[0, 1]",right,1,70,21,m,n,y,2019_Jul_17_1020,2AFC_task,59.938347413905575,
stimuli/rgb_scene000169_render000000.png,stimuli/rgb_scene000169_render000004.png,0,181,181,171,"[1, 0]",left,1,70,21,m,n,y,2019_Jul_17_1020,2AFC_task,59.938347413905575,
stimuli/rgb_scene000147_render000002.png,stimuli/rgb_scene000147_render000004.png,0,182,182,96,"[0, 1]",right,1,70,21,m,n,y,2019_Jul_17_1020,2AFC_task,59.938347413905575,
stimuli/rgb_scene000160_render000001.png,stimuli/rgb_scene000160_render000002.png,0,183,183,132,"[1, 0]",left,1,70,21,m,n,y,2019_Jul_17_1020,2AFC_task,59.938347413905575,
stimuli/rgb_scene000196_render000002.png,stimuli/rgb_scene000196_render000005.png,0,184,184,202,"[1, 0]",left,1,70,21,m,n,y,2019_Jul_17_1020,2AFC_task,59.938347413905575,
stimuli/rgb_scene000047_render000002.png,stimuli/rgb_scene000047_render000005.png,0,185,185,34,"[1, 0]",left,1,70,21,m,n,y,2019_Jul_17_1020,2AFC_task,59.938347413905575,
stimuli/rgb_scene000165_render000000.png,stimuli/rgb_scene000165_render000006.png,0,186,186,152,"[0, 1]",right,1,70,21,m,n,y,2019_Jul_17_1020,2AFC_task,59.938347413905575,
stimuli/rgb_scene000066_render000000.png,stimuli/rgb_scene000066_render000003.png,0,187,187,65,"[1, 0]",left,1,70,21,m,n,y,2019_Jul_17_1020,2AFC_task,59.938347413905575,
stimuli/rgb_scene000042_render000005.png,stimuli/rgb_scene000042_render000006.png,0,188,188,20,"[0, 1]",left,0,70,21,m,n,y,2019_Jul_17_1020,2AFC_task,59.938347413905575,
stimuli/rgb_scene000165_render000002.png,stimuli/rgb_scene000165_render000003.png,0,189,189,158,"[0, 1]",right,1,70,21,m,n,y,2019_Jul_17_1020,2AFC_task,59.938347413905575,
stimuli/rgb_scene000165_render000001.png,stimuli/rgb_scene000165_render000002.png,0,190,190,153,"[0, 1]",right,1,70,21,m,n,y,2019_Jul_17_1020,2AFC_task,59.938347413905575,
stimuli/rgb_scene000169_render000001.png,stimuli/rgb_scene000169_render000005.png,0,191,191,177,"[0, 1]",right,1,70,21,m,n,y,2019_Jul_17_1020,2AFC_task,59.938347413905575,
stimuli/rgb_scene000196_render000002.png,stimuli/rgb_scene000196_render000004.png,0,192,192,201,"[1, 0]",left,1,70,21,m,n,y,2019_Jul_17_1020,2AFC_task,59.938347413905575,
stimuli/rgb_scene000160_render000000.png,stimuli/rgb_scene000160_render000005.png,0,193,193,130,"[0, 1]",right,1,70,21,m,n,y,2019_Jul_17_1020,2AFC_task,59.938347413905575,
stimuli/rgb_scene000066_render000003.png,stimuli/rgb_scene000066_render000006.png,0,194,194,80,"[1, 0]",left,1,70,21,m,n,y,2019_Jul_17_1020,2AFC_task,59.938347413905575,
stimuli/rgb_scene000196_render000004.png,stimuli/rgb_scene000196_render000005.png,0,195,195,207,"[1, 0]",left,1,70,21,m,n,y,2019_Jul_17_1020,2AFC_task,59.938347413905575,
stimuli/rgb_scene000160_render000003.png,stimuli/rgb_scene000160_render000004.png,0,196,196,141,"[1, 0]",left,1,70,21,m,n,y,2019_Jul_17_1020,2AFC_task,59.938347413905575,
stimuli/rgb_scene000160_render000005.png,stimuli/rgb_scene000160_render000006.png,0,197,197,146,"[0, 1]",right,1,70,21,m,n,y,2019_Jul_17_1020,2AFC_task,59.938347413905575,
stimuli/rgb_scene000066_render000002.png,stimuli/rgb_scene000066_render000004.png,0,198,198,75,"[0, 1]",right,1,70,21,m,n,y,2019_Jul_17_1020,2AFC_task,59.938347413905575,
stimuli/rgb_scene000147_render000003.png,stimuli/rgb_scene000147_render000005.png,0,199,199,100,"[0, 1]",right,1,70,21,m,n,y,2019_Jul_17_1020,2AFC_task,59.938347413905575,
stimuli/rgb_scene000165_render000001.png,stimuli/rgb_scene000165_render000005.png,0,200,200,156,"[0, 1]",right,1,70,21,m,n,y,2019_Jul_17_1020,2AFC_task,59.938347413905575,
stimuli/rgb_scene000165_render000002.png,stimuli/rgb_scene000165_render000004.png,0,201,201,159,"[0, 1]",right,1,70,21,m,n,y,2019_Jul_17_1020,2AFC_task,59.938347413905575,
stimuli/rgb_scene000066_render000002.png,stimuli/rgb_scene000066_render000006.png,0,202,202,77,"[1, 0]",left,1,70,21,m,n,y,2019_Jul_17_1020,2AFC_task,59.938347413905575,
stimuli/rgb_scene000196_render000000.png,stimuli/rgb_scene000196_render000004.png,0,203,203,192,"[0, 1]",right,1,70,21,m,n,y,2019_Jul_17_1020,2AFC_task,59.938347413905575,
stimuli/rgb_scene000066_render000000.png,stimuli/rgb_scene000066_render000006.png,0,204,204,68,"[0, 1]",right,1,70,21,m,n,y,2019_Jul_17_1020,2AFC_task,59.938347413905575,
stimuli/rgb_scene000056_render000003.png,stimuli/rgb_scene000056_render000006.png,0,205,205,59,"[0, 1]",right,1,70,21,m,n,y,2019_Jul_17_1020,2AFC_task,59.938347413905575,
stimuli/rgb_scene000047_render000004.png,stimuli/rgb_scene000047_render000006.png,0,206,206,40,"[0, 1]",right,1,70,21,m,n,y,2019_Jul_17_1020,2AFC_task,59.938347413905575,
stimuli/rgb_scene000042_render000001.png,stimuli/rgb_scene000042_render000003.png,0,207,207,7,"[0, 1]",right,1,70,21,m,n,y,2019_Jul_17_1020,2AFC_task,59.938347413905575,
stimuli/rgb_scene000042_render000002.png,stimuli/rgb_scene000042_render000004.png,0,208,208,12,"[0, 1]",right,1,70,21,m,n,y,2019_Jul_17_1020,2AFC_task,59.938347413905575,
stimuli/rgb_scene000056_render000002.png,stimuli/rgb_scene000056_render000003.png,0,209,209,53,"[0, 1]",right,1,70,21,m,n,y,2019_Jul_17_1020,2AFC_task,59.938347413905575,
stimuli/rgb_scene000160_render000000.png,stimuli/rgb_scene000160_render000001.png,1,0,210,126,"[0, 1]",right,1,70,21,m,n,y,2019_Jul_17_1020,2AFC_task,59.938347413905575,
stimuli/rgb_scene000165_render000002.png,stimuli/rgb_scene000165_render000005.png,1,1,211,160,"[1, 0]",left,1,70,21,m,n,y,2019_Jul_17_1020,2AFC_task,59.938347413905575,
stimuli/rgb_scene000047_render000000.png,stimuli/rgb_scene000047_render000001.png,1,2,212,21,"[1, 0]",left,1,70,21,m,n,y,2019_Jul_17_1020,2AFC_task,59.938347413905575,
stimuli/rgb_scene000165_render000000.png,stimuli/rgb_scene000165_render000005.png,1,3,213,151,"[0, 1]",right,1,70,21,m,n,y,2019_Jul_17_1020,2AFC_task,59.938347413905575,
stimuli/rgb_scene000042_render000004.png,stimuli/rgb_scene000042_render000005.png,1,4,214,18,"[0, 1]",right,1,70,21,m,n,y,2019_Jul_17_1020,2AFC_task,59.938347413905575,
stimuli/rgb_scene000047_render000000.png,stimuli/rgb_scene000047_render000004.png,1,5,215,24,"[1, 0]",left,1,70,21,m,n,y,2019_Jul_17_1020,2AFC_task,59.938347413905575,
stimuli/rgb_scene000169_render000000.png,stimuli/rgb_scene000169_render000005.png,1,6,216,172,"[1, 0]",left,1,70,21,m,n,y,2019_Jul_17_1020,2AFC_task,59.938347413905575,
stimuli/rgb_scene000042_render000004.png,stimuli/rgb_scene000042_render000006.png,1,7,217,19,"[0, 1]",right,1,70,21,m,n,y,2019_Jul_17_1020,2AFC_task,59.938347413905575,
stimuli/rgb_scene000056_render000003.png,stimuli/rgb_scene000056_render000006.png,1,8,218,59,"[1, 0]",left,1,70,21,m,n,y,2019_Jul_17_1020,2AFC_task,59.938347413905575,
stimuli/rgb_scene000165_render000002.png,stimuli/rgb_scene000165_render000004.png,1,9,219,159,"[0, 1]",right,1,70,21,m,n,y,2019_Jul_17_1020,2AFC_task,59.938347413905575,
stimuli/rgb_scene000165_render000003.png,stimuli/rgb_scene000165_render000006.png,1,10,220,164,"[0, 1]",right,1,70,21,m,n,y,2019_Jul_17_1020,2AFC_task,59.938347413905575,
stimuli/rgb_scene000147_render000001.png,stimuli/rgb_scene000147_render000005.png,1,11,221,93,"[1, 0]",left,1,70,21,m,n,y,2019_Jul_17_1020,2AFC_task,59.938347413905575,
stimuli/rgb_scene000056_render000004.png,stimuli/rgb_scene000056_render000006.png,1,12,222,61,"[0, 1]",right,1,70,21,m,n,y,2019_Jul_17_1020,2AFC_task,59.938347413905575,
stimuli/rgb_scene000056_render000001.png,stimuli/rgb_scene000056_render000004.png,1,13,223,50,"[0, 1]",right,1,70,21,m,n,y,2019_Jul_17_1020,2AFC_task,59.938347413905575,
stimuli/rgb_scene000147_render000000.png,stimuli/rgb_scene000147_render000004.png,1,14,224,87,"[1, 0]",left,1,70,21,m,n,y,2019_Jul_17_1020,2AFC_task,59.938347413905575,
stimuli/rgb_scene000042_render000005.png,stimuli/rgb_scene000042_render000006.png,1,15,225,20,"[0, 1]",right,1,70,21,m,n,y,2019_Jul_17_1020,2AFC_task,59.938347413905575,
stimuli/rgb_scene000160_render000003.png,stimuli/rgb_scene000160_render000004.png,1,16,226,141,"[1, 0]",left,1,70,21,m,n,y,2019_Jul_17_1020,2AFC_task,59.938347413905575,
stimuli/rgb_scene000165_render000002.png,stimuli/rgb_scene000165_render000003.png,1,17,227,158,"[0, 1]",right,1,70,21,m,n,y,2019_Jul_17_1020,2AFC_task,59.938347413905575,
stimuli/rgb_scene000150_render000001.png,stimuli/rgb_scene000150_render000002.png,1,18,228,111,"[1, 0]",left,1,70,21,m,n,y,2019_Jul_17_1020,2AFC_task,59.938347413905575,
stimuli/rgb_scene000047_render000004.png,stimuli/rgb_scene000047_render000005.png,1,19,229,39,"[1, 0]",left,1,70,21,m,n,y,2019_Jul_17_1020,2AFC_task,59.938347413905575,
stimuli/rgb_scene000147_render000005.png,stimuli/rgb_scene000147_render000006.png,1,20,230,104,"[1, 0]",left,1,70,21,m,n,y,2019_Jul_17_1020,2AFC_task,59.938347413905575,
stimuli/rgb_scene000150_render000000.png,stimuli/rgb_scene000150_render000005.png,1,21,231,109,"[0, 1]",right,1,70,21,m,n,y,2019_Jul_17_1020,2AFC_task,59.938347413905575,
stimuli/rgb_scene000169_render000001.png,stimuli/rgb_scene000169_render000003.png,1,22,232,175,"[1, 0]",left,1,70,21,m,n,y,2019_Jul_17_1020,2AFC_task,59.938347413905575,
stimuli/rgb_scene000169_render000003.png,stimuli/rgb_scene000169_render000004.png,1,23,233,183,"[1, 0]",left,1,70,21,m,n,y,2019_Jul_17_1020,2AFC_task,59.938347413905575,
stimuli/rgb_scene000042_render000002.png,stimuli/rgb_scene000042_render000005.png,1,24,234,13,"[1, 0]",left,1,70,21,m,n,y,2019_Jul_17_1020,2AFC_task,59.938347413905575,
stimuli/rgb_scene000147_render000004.png,stimuli/rgb_scene000147_render000006.png,1,25,235,103,"[0, 1]",right,1,70,21,m,n,y,2019_Jul_17_1020,2AFC_task,59.938347413905575,
stimuli/rgb_scene000160_render000000.png,stimuli/rgb_scene000160_render000002.png,1,26,236,127,"[1, 0]",left,1,70,21,m,n,y,2019_Jul_17_1020,2AFC_task,59.938347413905575,
stimuli/rgb_scene000147_render000003.png,stimuli/rgb_scene000147_render000005.png,1,27,237,100,"[1, 0]",left,1,70,21,m,n,y,2019_Jul_17_1020,2AFC_task,59.938347413905575,
stimuli/rgb_scene000147_render000000.png,stimuli/rgb_scene000147_render000006.png,1,28,238,89,"[0, 1]",right,1,70,21,m,n,y,2019_Jul_17_1020,2AFC_task,59.938347413905575,
stimuli/rgb_scene000169_render000005.png,stimuli/rgb_scene000169_render000006.png,1,29,239,188,"[0, 1]",right,1,70,21,m,n,y,2019_Jul_17_1020,2AFC_task,59.938347413905575,
stimuli/rgb_scene000056_render000005.png,stimuli/rgb_scene000056_render000006.png,1,30,240,62,"[0, 1]",right,1,70,21,m,n,y,2019_Jul_17_1020,2AFC_task,59.938347413905575,
stimuli/rgb_scene000047_render000000.png,stimuli/rgb_scene000047_render000002.png,1,31,241,22,"[0, 1]",right,1,70,21,m,n,y,2019_Jul_17_1020,2AFC_task,59.938347413905575,
stimuli/rgb_scene000056_render000003.png,stimuli/rgb_scene000056_render000004.png,1,32,242,57,"[0, 1]",right,1,70,21,m,n,y,2019_Jul_17_1020,2AFC_task,59.938347413905575,
stimuli/rgb_scene000150_render000004.png,stimuli/rgb_scene000150_render000005.png,1,33,243,123,"[0, 1]",right,1,70,21,m,n,y,2019_Jul_17_1020,2AFC_task,59.938347413905575,
stimuli/rgb_scene000196_render000000.png,stimuli/rgb_scene000196_render000006.png,1,34,244,194,"[0, 1]",right,1,70,21,m,n,y,2019_Jul_17_1020,2AFC_task,59.938347413905575,
stimuli/rgb_scene000165_render000000.png,stimuli/rgb_scene000165_render000004.png,1,35,245,150,"[1, 0]",left,1,70,21,m,n,y,2019_Jul_17_1020,2AFC_task,59.938347413905575,
stimuli/rgb_scene000056_render000000.png,stimuli/rgb_scene000056_render000006.png,1,36,246,47,"[1, 0]",left,1,70,21,m,n,y,2019_Jul_17_1020,2AFC_task,59.938347413905575,
stimuli/rgb_scene000066_render000005.png,stimuli/rgb_scene000066_render000006.png,1,37,247,83,"[1, 0]",left,1,70,21,m,n,y,2019_Jul_17_1020,2AFC_task,59.938347413905575,
stimuli/rgb_scene000047_render000000.png,stimuli/rgb_scene000047_render000003.png,1,38,248,23,"[0, 1]",right,1,70,21,m,n,y,2019_Jul_17_1020,2AFC_task,59.938347413905575,
stimuli/rgb_scene000196_render000005.png,stimuli/rgb_scene000196_render000006.png,1,39,249,209,"[0, 1]",left,0,70,21,m,n,y,2019_Jul_17_1020,2AFC_task,59.938347413905575,
stimuli/rgb_scene000047_render000004.png,stimuli/rgb_scene000047_render000006.png,1,40,250,40,"[0, 1]",right,1,70,21,m,n,y,2019_Jul_17_1020,2AFC_task,59.938347413905575,
stimuli/rgb_scene000169_render000000.png,stimuli/rgb_scene000169_render000004.png,1,41,251,171,"[0, 1]",right,1,70,21,m,n,y,2019_Jul_17_1020,2AFC_task,59.938347413905575,
stimuli/rgb_scene000056_render000002.png,stimuli/rgb_scene000056_render000006.png,1,42,252,56,"[1, 0]",left,1,70,21,m,n,y,2019_Jul_17_1020,2AFC_task,59.938347413905575,
stimuli/rgb_scene000042_render000001.png,stimuli/rgb_scene000042_render000004.png,1,43,253,8,"[0, 1]",right,1,70,21,m,n,y,2019_Jul_17_1020,2AFC_task,59.938347413905575,
stimuli/rgb_scene000165_render000000.png,stimuli/rgb_scene000165_render000002.png,1,44,254,148,"[1, 0]",left,1,70,21,m,n,y,2019_Jul_17_1020,2AFC_task,59.938347413905575,
stimuli/rgb_scene000150_render000001.png,stimuli/rgb_scene000150_render000006.png,1,45,255,115,"[0, 1]",right,1,70,21,m,n,y,2019_Jul_17_1020,2AFC_task,59.938347413905575,
stimuli/rgb_scene000160_render000003.png,stimuli/rgb_scene000160_render000006.png,1,46,256,143,"[1, 0]",left,1,70,21,m,n,y,2019_Jul_17_1020,2AFC_task,59.938347413905575,
stimuli/rgb_scene000160_render000001.png,stimuli/rgb_scene000160_render000006.png,1,47,257,136,"[0, 1]",right,1,70,21,m,n,y,2019_Jul_17_1020,2AFC_task,59.938347413905575,
stimuli/rgb_scene000066_render000003.png,stimuli/rgb_scene000066_render000005.png,1,48,258,79,"[1, 0]",left,1,70,21,m,n,y,2019_Jul_17_1020,2AFC_task,59.938347413905575,
stimuli/rgb_scene000066_render000002.png,stimuli/rgb_scene000066_render000004.png,1,49,259,75,"[0, 1]",right,1,70,21,m,n,y,2019_Jul_17_1020,2AFC_task,59.938347413905575,
stimuli/rgb_scene000066_render000001.png,stimuli/rgb_scene000066_render000006.png,1,50,260,73,"[1, 0]",left,1,70,21,m,n,y,2019_Jul_17_1020,2AFC_task,59.938347413905575,
stimuli/rgb_scene000196_render000004.png,stimuli/rgb_scene000196_render000005.png,1,51,261,207,"[1, 0]",left,1,70,21,m,n,y,2019_Jul_17_1020,2AFC_task,59.938347413905575,
stimuli/rgb_scene000196_render000004.png,stimuli/rgb_scene000196_render000006.png,1,52,262,208,"[1, 0]",right,0,70,21,m,n,y,2019_Jul_17_1020,2AFC_task,59.938347413905575,
stimuli/rgb_scene000066_render000001.png,stimuli/rgb_scene000066_render000004.png,1,53,263,71,"[0, 1]",right,1,70,21,m,n,y,2019_Jul_17_1020,2AFC_task,59.938347413905575,
stimuli/rgb_scene000169_render000002.png,stimuli/rgb_scene000169_render000006.png,1,54,264,182,"[0, 1]",right,1,70,21,m,n,y,2019_Jul_17_1020,2AFC_task,59.938347413905575,
stimuli/rgb_scene000056_render000001.png,stimuli/rgb_scene000056_render000003.png,1,55,265,49,"[0, 1]",right,1,70,21,m,n,y,2019_Jul_17_1020,2AFC_task,59.938347413905575,
stimuli/rgb_scene000047_render000001.png,stimuli/rgb_scene000047_render000005.png,1,56,266,30,"[0, 1]",right,1,70,21,m,n,y,2019_Jul_17_1020,2AFC_task,59.938347413905575,
stimuli/rgb_scene000056_render000004.png,stimuli/rgb_scene000056_render000005.png,1,57,267,60,"[1, 0]",left,1,70,21,m,n,y,2019_Jul_17_1020,2AFC_task,59.938347413905575,
stimuli/rgb_scene000165_render000003.png,stimuli/rgb_scene000165_render000005.png,1,58,268,163,"[0, 1]",right,1,70,21,m,n,y,2019_Jul_17_1020,2AFC_task,59.938347413905575,
stimuli/rgb_scene000160_render000004.png,stimuli/rgb_scene000160_render000005.png,1,59,269,144,"[0, 1]",right,1,70,21,m,n,y,2019_Jul_17_1020,2AFC_task,59.938347413905575,
stimuli/rgb_scene000160_render000004.png,stimuli/rgb_scene000160_render000006.png,1,60,270,145,"[1, 0]",left,1,70,21,m,n,y,2019_Jul_17_1020,2AFC_task,59.938347413905575,
stimuli/rgb_scene000066_render000000.png,stimuli/rgb_scene000066_render000001.png,1,61,271,63,"[1, 0]",left,1,70,21,m,n,y,2019_Jul_17_1020,2AFC_task,59.938347413905575,
stimuli/rgb_scene000147_render000004.png,stimuli/rgb_scene000147_render000005.png,1,62,272,102,"[0, 1]",right,1,70,21,m,n,y,2019_Jul_17_1020,2AFC_task,59.938347413905575,
stimuli/rgb_scene000147_render000002.png,stimuli/rgb_scene000147_render000005.png,1,63,273,97,"[1, 0]",left,1,70,21,m,n,y,2019_Jul_17_1020,2AFC_task,59.938347413905575,
stimuli/rgb_scene000169_render000002.png,stimuli/rgb_scene000169_render000003.png,1,64,274,179,"[1, 0]",left,1,70,21,m,n,y,2019_Jul_17_1020,2AFC_task,59.938347413905575,
stimuli/rgb_scene000047_render000000.png,stimuli/rgb_scene000047_render000006.png,1,65,275,26,"[0, 1]",right,1,70,21,m,n,y,2019_Jul_17_1020,2AFC_task,59.938347413905575,
stimuli/rgb_scene000150_render000000.png,stimuli/rgb_scene000150_render000004.png,1,66,276,108,"[1, 0]",left,1,70,21,m,n,y,2019_Jul_17_1020,2AFC_task,59.938347413905575,
stimuli/rgb_scene000196_render000003.png,stimuli/rgb_scene000196_render000006.png,1,67,277,206,"[0, 1]",left,0,70,21,m,n,y,2019_Jul_17_1020,2AFC_task,59.938347413905575,
stimuli/rgb_scene000047_render000003.png,stimuli/rgb_scene000047_render000006.png,1,68,278,38,"[0, 1]",right,1,70,21,m,n,y,2019_Jul_17_1020,2AFC_task,59.938347413905575,
stimuli/rgb_scene000160_render000002.png,stimuli/rgb_scene000160_render000004.png,1,69,279,138,"[1, 0]",left,1,70,21,m,n,y,2019_Jul_17_1020,2AFC_task,59.938347413905575,
stimuli/rgb_scene000169_render000001.png,stimuli/rgb_scene000169_render000002.png,1,70,280,174,"[0, 1]",right,1,70,21,m,n,y,2019_Jul_17_1020,2AFC_task,59.938347413905575,
stimuli/rgb_scene000160_render000001.png,stimuli/rgb_scene000160_render000002.png,1,71,281,132,"[0, 1]",right,1,70,21,m,n,y,2019_Jul_17_1020,2AFC_task,59.938347413905575,
stimuli/rgb_scene000196_render000000.png,stimuli/rgb_scene000196_render000001.png,1,72,282,189,"[1, 0]",left,1,70,21,m,n,y,2019_Jul_17_1020,2AFC_task,59.938347413905575,
stimuli/rgb_scene000196_render000000.png,stimuli/rgb_scene000196_render000003.png,1,73,283,191,"[1, 0]",left,1,70,21,m,n,y,2019_Jul_17_1020,2AFC_task,59.938347413905575,
stimuli/rgb_scene000150_render000002.png,stimuli/rgb_scene000150_render000005.png,1,74,284,118,"[1, 0]",left,1,70,21,m,n,y,2019_Jul_17_1020,2AFC_task,59.938347413905575,
stimuli/rgb_scene000047_render000001.png,stimuli/rgb_scene000047_render000003.png,1,75,285,28,"[0, 1]",right,1,70,21,m,n,y,2019_Jul_17_1020,2AFC_task,59.938347413905575,
stimuli/rgb_scene000169_render000002.png,stimuli/rgb_scene000169_render000005.png,1,76,286,181,"[0, 1]",right,1,70,21,m,n,y,2019_Jul_17_1020,2AFC_task,59.938347413905575,
stimuli/rgb_scene000150_render000001.png,stimuli/rgb_scene000150_render000005.png,1,77,287,114,"[1, 0]",left,1,70,21,m,n,y,2019_Jul_17_1020,2AFC_task,59.938347413905575,
stimuli/rgb_scene000056_render000000.png,stimuli/rgb_scene000056_render000004.png,1,78,288,45,"[0, 1]",right,1,70,21,m,n,y,2019_Jul_17_1020,2AFC_task,59.938347413905575,
stimuli/rgb_scene000047_render000000.png,stimuli/rgb_scene000047_render000005.png,1,79,289,25,"[0, 1]",right,1,70,21,m,n,y,2019_Jul_17_1020,2AFC_task,59.938347413905575,
stimuli/rgb_scene000150_render000002.png,stimuli/rgb_scene000150_render000003.png,1,80,290,116,"[0, 1]",right,1,70,21,m,n,y,2019_Jul_17_1020,2AFC_task,59.938347413905575,
stimuli/rgb_scene000169_render000000.png,stimuli/rgb_scene000169_render000003.png,1,81,291,170,"[1, 0]",left,1,70,21,m,n,y,2019_Jul_17_1020,2AFC_task,59.938347413905575,
stimuli/rgb_scene000169_render000003.png,stimuli/rgb_scene000169_render000005.png,1,82,292,184,"[1, 0]",left,1,70,21,m,n,y,2019_Jul_17_1020,2AFC_task,59.938347413905575,
stimuli/rgb_scene000160_render000001.png,stimuli/rgb_scene000160_render000004.png,1,83,293,134,"[0, 1]",right,1,70,21,m,n,y,2019_Jul_17_1020,2AFC_task,59.938347413905575,
stimuli/rgb_scene000160_render000000.png,stimuli/rgb_scene000160_render000006.png,1,84,294,131,"[0, 1]",right,1,70,21,m,n,y,2019_Jul_17_1020,2AFC_task,59.938347413905575,
stimuli/rgb_scene000066_render000004.png,stimuli/rgb_scene000066_render000006.png,1,85,295,82,"[1, 0]",left,1,70,21,m,n,y,2019_Jul_17_1020,2AFC_task,59.938347413905575,
stimuli/rgb_scene000056_render000003.png,stimuli/rgb_scene000056_render000005.png,1,86,296,58,"[1, 0]",left,1,70,21,m,n,y,2019_Jul_17_1020,2AFC_task,59.938347413905575,
stimuli/rgb_scene000160_render000000.png,stimuli/rgb_scene000160_render000003.png,1,87,297,128,"[1, 0]",left,1,70,21,m,n,y,2019_Jul_17_1020,2AFC_task,59.938347413905575,
stimuli/rgb_scene000196_render000002.png,stimuli/rgb_scene000196_render000005.png,1,88,298,202,"[0, 1]",right,1,70,21,m,n,y,2019_Jul_17_1020,2AFC_task,59.938347413905575,
stimuli/rgb_scene000042_render000002.png,stimuli/rgb_scene000042_render000006.png,1,89,299,14,"[1, 0]",left,1,70,21,m,n,y,2019_Jul_17_1020,2AFC_task,59.938347413905575,
stimuli/rgb_scene000042_render000001.png,stimuli/rgb_scene000042_render000005.png,1,90,300,9,"[0, 1]",right,1,70,21,m,n,y,2019_Jul_17_1020,2AFC_task,59.938347413905575,
stimuli/rgb_scene000042_render000000.png,stimuli/rgb_scene000042_render000002.png,1,91,301,1,"[1, 0]",left,1,70,21,m,n,y,2019_Jul_17_1020,2AFC_task,59.938347413905575,
stimuli/rgb_scene000066_render000001.png,stimuli/rgb_scene000066_render000005.png,1,92,302,72,"[1, 0]",left,1,70,21,m,n,y,2019_Jul_17_1020,2AFC_task,59.938347413905575,
stimuli/rgb_scene000066_render000001.png,stimuli/rgb_scene000066_render000003.png,1,93,303,70,"[0, 1]",right,1,70,21,m,n,y,2019_Jul_17_1020,2AFC_task,59.938347413905575,
stimuli/rgb_scene000169_render000001.png,stimuli/rgb_scene000169_render000004.png,1,94,304,176,"[0, 1]",right,1,70,21,m,n,y,2019_Jul_17_1020,2AFC_task,59.938347413905575,
stimuli/rgb_scene000165_render000001.png,stimuli/rgb_scene000165_render000004.png,1,95,305,155,"[0, 1]",right,1,70,21,m,n,y,2019_Jul_17_1020,2AFC_task,59.938347413905575,
stimuli/rgb_scene000042_render000000.png,stimuli/rgb_scene000042_render000003.png,1,96,306,2,"[0, 1]",right,1,70,21,m,n,y,2019_Jul_17_1020,2AFC_task,59.938347413905575,
stimuli/rgb_scene000056_render000000.png,stimuli/rgb_scene000056_render000001.png,1,97,307,42,"[0, 1]",right,1,70,21,m,n,y,2019_Jul_17_1020,2AFC_task,59.938347413905575,
stimuli/rgb_scene000047_render000002.png,stimuli/rgb_scene000047_render000003.png,1,98,308,32,"[1, 0]",left,1,70,21,m,n,y,2019_Jul_17_1020,2AFC_task,59.938347413905575,
stimuli/rgb_scene000169_render000000.png,stimuli/rgb_scene000169_render000006.png,1,99,309,173,"[0, 1]",right,1,70,21,m,n,y,2019_Jul_17_1020,2AFC_task,59.938347413905575,
stimuli/rgb_scene000165_render000003.png,stimuli/rgb_scene000165_render000004.png,1,100,310,162,"[1, 0]",left,1,70,21,m,n,y,2019_Jul_17_1020,2AFC_task,59.938347413905575,
stimuli/rgb_scene000196_render000001.png,stimuli/rgb_scene000196_render000005.png,1,101,311,198,"[1, 0]",left,1,70,21,m,n,y,2019_Jul_17_1020,2AFC_task,59.938347413905575,
stimuli/rgb_scene000066_render000000.png,stimuli/rgb_scene000066_render000004.png,1,102,312,66,"[1, 0]",left,1,70,21,m,n,y,2019_Jul_17_1020,2AFC_task,59.938347413905575,
stimuli/rgb_scene000196_render000001.png,stimuli/rgb_scene000196_render000003.png,1,103,313,196,"[1, 0]",left,1,70,21,m,n,y,2019_Jul_17_1020,2AFC_task,59.938347413905575,
stimuli/rgb_scene000147_render000000.png,stimuli/rgb_scene000147_render000001.png,1,104,314,84,"[0, 1]",right,1,70,21,m,n,y,2019_Jul_17_1020,2AFC_task,59.938347413905575,
stimuli/rgb_scene000042_render000000.png,stimuli/rgb_scene000042_render000006.png,1,105,315,5,"[0, 1]",right,1,70,21,m,n,y,2019_Jul_17_1020,2AFC_task,59.938347413905575,
stimuli/rgb_scene000047_render000003.png,stimuli/rgb_scene000047_render000004.png,1,106,316,36,"[1, 0]",left,1,70,21,m,n,y,2019_Jul_17_1020,2AFC_task,59.938347413905575,
stimuli/rgb_scene000169_render000003.png,stimuli/rgb_scene000169_render000006.png,1,107,317,185,"[0, 1]",right,1,70,21,m,n,y,2019_Jul_17_1020,2AFC_task,59.938347413905575,
stimuli/rgb_scene000056_render000000.png,stimuli/rgb_scene000056_render000005.png,1,108,318,46,"[1, 0]",left,1,70,21,m,n,y,2019_Jul_17_1020,2AFC_task,59.938347413905575,
stimuli/rgb_scene000165_render000001.png,stimuli/rgb_scene000165_render000002.png,1,109,319,153,"[0, 1]",right,1,70,21,m,n,y,2019_Jul_17_1020,2AFC_task,59.938347413905575,
stimuli/rgb_scene000169_render000004.png,stimuli/rgb_scene000169_render000005.png,1,110,320,186,"[1, 0]",left,1,70,21,m,n,y,2019_Jul_17_1020,2AFC_task,59.938347413905575,
stimuli/rgb_scene000147_render000000.png,stimuli/rgb_scene000147_render000002.png,1,111,321,85,"[1, 0]",left,1,70,21,m,n,y,2019_Jul_17_1020,2AFC_task,59.938347413905575,
stimuli/rgb_scene000160_render000001.png,stimuli/rgb_scene000160_render000005.png,1,112,322,135,"[0, 1]",right,1,70,21,m,n,y,2019_Jul_17_1020,2AFC_task,59.938347413905575,
stimuli/rgb_scene000056_render000001.png,stimuli/rgb_scene000056_render000005.png,1,113,323,51,"[1, 0]",left,1,70,21,m,n,y,2019_Jul_17_1020,2AFC_task,59.938347413905575,
stimuli/rgb_scene000042_render000001.png,stimuli/rgb_scene000042_render000006.png,1,114,324,10,"[0, 1]",right,1,70,21,m,n,y,2019_Jul_17_1020,2AFC_task,59.938347413905575,
stimuli/rgb_scene000042_render000001.png,stimuli/rgb_scene000042_render000002.png,1,115,325,6,"[1, 0]",left,1,70,21,m,n,y,2019_Jul_17_1020,2AFC_task,59.938347413905575,
stimuli/rgb_scene000150_render000002.png,stimuli/rgb_scene000150_render000004.png,1,116,326,117,"[0, 1]",right,1,70,21,m,n,y,2019_Jul_17_1020,2AFC_task,59.938347413905575,
stimuli/rgb_scene000160_render000000.png,stimuli/rgb_scene000160_render000005.png,1,117,327,130,"[1, 0]",left,1,70,21,m,n,y,2019_Jul_17_1020,2AFC_task,59.938347413905575,
stimuli/rgb_scene000150_render000000.png,stimuli/rgb_scene000150_render000001.png,1,118,328,105,"[1, 0]",left,1,70,21,m,n,y,2019_Jul_17_1020,2AFC_task,59.938347413905575,
stimuli/rgb_scene000066_render000000.png,stimuli/rgb_scene000066_render000006.png,1,119,329,68,"[1, 0]",left,1,70,21,m,n,y,2019_Jul_17_1020,2AFC_task,59.938347413905575,
stimuli/rgb_scene000042_render000001.png,stimuli/rgb_scene000042_render000003.png,1,120,330,7,"[1, 0]",left,1,70,21,m,n,y,2019_Jul_17_1020,2AFC_task,59.938347413905575,
stimuli/rgb_scene000196_render000000.png,stimuli/rgb_scene000196_render000005.png,1,121,331,193,"[0, 1]",right,1,70,21,m,n,y,2019_Jul_17_1020,2AFC_task,59.938347413905575,
stimuli/rgb_scene000150_render000003.png,stimuli/rgb_scene000150_render000005.png,1,122,332,121,"[0, 1]",right,1,70,21,m,n,y,2019_Jul_17_1020,2AFC_task,59.938347413905575,
stimuli/rgb_scene000056_render000002.png,stimuli/rgb_scene000056_render000004.png,1,123,333,54,"[0, 1]",right,1,70,21,m,n,y,2019_Jul_17_1020,2AFC_task,59.938347413905575,
stimuli/rgb_scene000150_render000000.png,stimuli/rgb_scene000150_render000002.png,1,124,334,106,"[0, 1]",right,1,70,21,m,n,y,2019_Jul_17_1020,2AFC_task,59.938347413905575,
stimuli/rgb_scene000042_render000000.png,stimuli/rgb_scene000042_render000005.png,1,125,335,4,"[1, 0]",left,1,70,21,m,n,y,2019_Jul_17_1020,2AFC_task,59.938347413905575,
stimuli/rgb_scene000066_render000002.png,stimuli/rgb_scene000066_render000003.png,1,126,336,74,"[1, 0]",left,1,70,21,m,n,y,2019_Jul_17_1020,2AFC_task,59.938347413905575,
stimuli/rgb_scene000147_render000003.png,stimuli/rgb_scene000147_render000004.png,1,127,337,99,"[0, 1]",right,1,70,21,m,n,y,2019_Jul_17_1020,2AFC_task,59.938347413905575,
stimuli/rgb_scene000165_render000000.png,stimuli/rgb_scene000165_render000001.png,1,128,338,147,"[0, 1]",right,1,70,21,m,n,y,2019_Jul_17_1020,2AFC_task,59.938347413905575,
stimuli/rgb_scene000047_render000001.png,stimuli/rgb_scene000047_render000006.png,1,129,339,31,"[1, 0]",left,1,70,21,m,n,y,2019_Jul_17_1020,2AFC_task,59.938347413905575,
stimuli/rgb_scene000196_render000003.png,stimuli/rgb_scene000196_render000004.png,1,130,340,204,"[0, 1]",right,1,70,21,m,n,y,2019_Jul_17_1020,2AFC_task,59.938347413905575,
stimuli/rgb_scene000066_render000000.png,stimuli/rgb_scene000066_render000005.png,1,131,341,67,"[0, 1]",right,1,70,21,m,n,y,2019_Jul_17_1020,2AFC_task,59.938347413905575,
stimuli/rgb_scene000150_render000003.png,stimuli/rgb_scene000150_render000006.png,1,132,342,122,"[1, 0]",left,1,70,21,m,n,y,2019_Jul_17_1020,2AFC_task,59.938347413905575,
stimuli/rgb_scene000147_render000000.png,stimuli/rgb_scene000147_render000003.png,1,133,343,86,"[1, 0]",left,1,70,21,m,n,y,2019_Jul_17_1020,2AFC_task,59.938347413905575,
stimuli/rgb_scene000147_render000002.png,stimuli/rgb_scene000147_render000006.png,1,134,344,98,"[0, 1]",right,1,70,21,m,n,y,2019_Jul_17_1020,2AFC_task,59.938347413905575,
stimuli/rgb_scene000196_render000002.png,stimuli/rgb_scene000196_render000006.png,1,135,345,203,"[0, 1]",left,0,70,21,m,n,y,2019_Jul_17_1020,2AFC_task,59.938347413905575,
stimuli/rgb_scene000066_render000002.png,stimuli/rgb_scene000066_render000005.png,1,136,346,76,"[0, 1]",right,1,70,21,m,n,y,2019_Jul_17_1020,2AFC_task,59.938347413905575,
stimuli/rgb_scene000056_render000000.png,stimuli/rgb_scene000056_render000002.png,1,137,347,43,"[1, 0]",left,1,70,21,m,n,y,2019_Jul_17_1020,2AFC_task,59.938347413905575,
stimuli/rgb_scene000165_render000005.png,stimuli/rgb_scene000165_render000006.png,1,138,348,167,"[0, 1]",right,1,70,21,m,n,y,2019_Jul_17_1020,2AFC_task,59.938347413905575,
stimuli/rgb_scene000150_render000001.png,stimuli/rgb_scene000150_render000004.png,1,139,349,113,"[0, 1]",right,1,70,21,m,n,y,2019_Jul_17_1020,2AFC_task,59.938347413905575,
stimuli/rgb_scene000147_render000000.png,stimuli/rgb_scene000147_render000005.png,1,140,350,88,"[1, 0]",left,1,70,21,m,n,y,2019_Jul_17_1020,2AFC_task,59.938347413905575,
stimuli/rgb_scene000066_render000003.png,stimuli/rgb_scene000066_render000006.png,1,141,351,80,"[0, 1]",right,1,70,21,m,n,y,2019_Jul_17_1020,2AFC_task,59.938347413905575,
stimuli/rgb_scene000169_render000000.png,stimuli/rgb_scene000169_render000002.png,1,142,352,169,"[0, 1]",right,1,70,21,m,n,y,2019_Jul_17_1020,2AFC_task,59.938347413905575,
stimuli/rgb_scene000042_render000003.png,stimuli/rgb_scene000042_render000006.png,1,143,353,17,"[1, 0]",left,1,70,21,m,n,y,2019_Jul_17_1020,2AFC_task,59.938347413905575,
stimuli/rgb_scene000165_render000004.png,stimuli/rgb_scene000165_render000005.png,1,144,354,165,"[0, 1]",right,1,70,21,m,n,y,2019_Jul_17_1020,2AFC_task,59.938347413905575,
stimuli/rgb_scene000196_render000002.png,stimuli/rgb_scene000196_render000003.png,1,145,355,200,"[0, 1]",right,1,70,21,m,n,y,2019_Jul_17_1020,2AFC_task,59.938347413905575,
stimuli/rgb_scene000056_render000001.png,stimuli/rgb_scene000056_render000006.png,1,146,356,52,"[0, 1]",right,1,70,21,m,n,y,2019_Jul_17_1020,2AFC_task,59.938347413905575,
stimuli/rgb_scene000150_render000004.png,stimuli/rgb_scene000150_render000006.png,1,147,357,124,"[0, 1]",right,1,70,21,m,n,y,2019_Jul_17_1020,2AFC_task,59.938347413905575,
stimuli/rgb_scene000169_render000004.png,stimuli/rgb_scene000169_render000006.png,1,148,358,187,"[0, 1]",right,1,70,21,m,n,y,2019_Jul_17_1020,2AFC_task,59.938347413905575,
stimuli/rgb_scene000169_render000000.png,stimuli/rgb_scene000169_render000001.png,1,149,359,168,"[0, 1]",right,1,70,21,m,n,y,2019_Jul_17_1020,2AFC_task,59.938347413905575,
stimuli/rgb_scene000196_render000000.png,stimuli/rgb_scene000196_render000002.png,1,150,360,190,"[1, 0]",left,1,70,21,m,n,y,2019_Jul_17_1020,2AFC_task,59.938347413905575,
stimuli/rgb_scene000169_render000001.png,stimuli/rgb_scene000169_render000006.png,1,151,361,178,"[0, 1]",right,1,70,21,m,n,y,2019_Jul_17_1020,2AFC_task,59.938347413905575,
stimuli/rgb_scene000056_render000000.png,stimuli/rgb_scene000056_render000003.png,1,152,362,44,"[1, 0]",left,1,70,21,m,n,y,2019_Jul_17_1020,2AFC_task,59.938347413905575,
stimuli/rgb_scene000150_render000003.png,stimuli/rgb_scene000150_render000004.png,1,153,363,120,"[1, 0]",left,1,70,21,m,n,y,2019_Jul_17_1020,2AFC_task,59.938347413905575,
stimuli/rgb_scene000196_render000001.png,stimuli/rgb_scene000196_render000006.png,1,154,364,199,"[0, 1]",right,1,70,21,m,n,y,2019_Jul_17_1020,2AFC_task,59.938347413905575,
stimuli/rgb_scene000147_render000001.png,stimuli/rgb_scene000147_render000004.png,1,155,365,92,"[1, 0]",left,1,70,21,m,n,y,2019_Jul_17_1020,2AFC_task,59.938347413905575,
stimuli/rgb_scene000056_render000002.png,stimuli/rgb_scene000056_render000003.png,1,156,366,53,"[1, 0]",left,1,70,21,m,n,y,2019_Jul_17_1020,2AFC_task,59.938347413905575,
stimuli/rgb_scene000165_render000002.png,stimuli/rgb_scene000165_render000006.png,1,157,367,161,"[1, 0]",left,1,70,21,m,n,y,2019_Jul_17_1020,2AFC_task,59.938347413905575,
stimuli/rgb_scene000047_render000001.png,stimuli/rgb_scene000047_render000004.png,1,158,368,29,"[0, 1]",left,0,70,21,m,n,y,2019_Jul_17_1020,2AFC_task,59.938347413905575,
stimuli/rgb_scene000196_render000001.png,stimuli/rgb_scene000196_render000004.png,1,159,369,197,"[1, 0]",left,1,70,21,m,n,y,2019_Jul_17_1020,2AFC_task,59.938347413905575,
stimuli/rgb_scene000165_render000000.png,stimuli/rgb_scene000165_render000003.png,1,160,370,149,"[1, 0]",left,1,70,21,m,n,y,2019_Jul_17_1020,2AFC_task,59.938347413905575,
stimuli/rgb_scene000160_render000001.png,stimuli/rgb_scene000160_render000003.png,1,161,371,133,"[1, 0]",left,1,70,21,m,n,y,2019_Jul_17_1020,2AFC_task,59.938347413905575,
stimuli/rgb_scene000165_render000000.png,stimuli/rgb_scene000165_render000006.png,1,162,372,152,"[1, 0]",left,1,70,21,m,n,y,2019_Jul_17_1020,2AFC_task,59.938347413905575,
stimuli/rgb_scene000196_render000000.png,stimuli/rgb_scene000196_render000004.png,1,163,373,192,"[1, 0]",left,1,70,21,m,n,y,2019_Jul_17_1020,2AFC_task,59.938347413905575,
stimuli/rgb_scene000147_render000001.png,stimuli/rgb_scene000147_render000006.png,1,164,374,94,"[0, 1]",right,1,70,21,m,n,y,2019_Jul_17_1020,2AFC_task,59.938347413905575,
stimuli/rgb_scene000165_render000004.png,stimuli/rgb_scene000165_render000006.png,1,165,375,166,"[0, 1]",right,1,70,21,m,n,y,2019_Jul_17_1020,2AFC_task,59.938347413905575,
stimuli/rgb_scene000147_render000002.png,stimuli/rgb_scene000147_render000003.png,1,166,376,95,"[0, 1]",right,1,70,21,m,n,y,2019_Jul_17_1020,2AFC_task,59.938347413905575,
stimuli/rgb_scene000047_render000002.png,stimuli/rgb_scene000047_render000005.png,1,167,377,34,"[0, 1]",right,1,70,21,m,n,y,2019_Jul_17_1020,2AFC_task,59.938347413905575,
stimuli/rgb_scene000066_render000004.png,stimuli/rgb_scene000066_render000005.png,1,168,378,81,"[1, 0]",left,1,70,21,m,n,y,2019_Jul_17_1020,2AFC_task,59.938347413905575,
stimuli/rgb_scene000160_render000002.png,stimuli/rgb_scene000160_render000005.png,1,169,379,139,"[0, 1]",right,1,70,21,m,n,y,2019_Jul_17_1020,2AFC_task,59.938347413905575,
stimuli/rgb_scene000165_render000001.png,stimuli/rgb_scene000165_render000006.png,1,170,380,157,"[1, 0]",left,1,70,21,m,n,y,2019_Jul_17_1020,2AFC_task,59.938347413905575,
stimuli/rgb_scene000042_render000000.png,stimuli/rgb_scene000042_render000004.png,1,171,381,3,"[1, 0]",left,1,70,21,m,n,y,2019_Jul_17_1020,2AFC_task,59.938347413905575,
stimuli/rgb_scene000150_render000002.png,stimuli/rgb_scene000150_render000006.png,1,172,382,119,"[1, 0]",left,1,70,21,m,n,y,2019_Jul_17_1020,2AFC_task,59.938347413905575,
stimuli/rgb_scene000196_render000001.png,stimuli/rgb_scene000196_render000002.png,1,173,383,195,"[1, 0]",left,1,70,21,m,n,y,2019_Jul_17_1020,2AFC_task,59.938347413905575,
stimuli/rgb_scene000150_render000000.png,stimuli/rgb_scene000150_render000003.png,1,174,384,107,"[0, 1]",right,1,70,21,m,n,y,2019_Jul_17_1020,2AFC_task,59.938347413905575,
stimuli/rgb_scene000042_render000003.png,stimuli/rgb_scene000042_render000004.png,1,175,385,15,"[0, 1]",right,1,70,21,m,n,y,2019_Jul_17_1020,2AFC_task,59.938347413905575,
stimuli/rgb_scene000160_render000003.png,stimuli/rgb_scene000160_render000005.png,1,176,386,142,"[0, 1]",right,1,70,21,m,n,y,2019_Jul_17_1020,2AFC_task,59.938347413905575,
stimuli/rgb_scene000066_render000001.png,stimuli/rgb_scene000066_render000002.png,1,177,387,69,"[0, 1]",right,1,70,21,m,n,y,2019_Jul_17_1020,2AFC_task,59.938347413905575,
stimuli/rgb_scene000047_render000002.png,stimuli/rgb_scene000047_render000006.png,1,178,388,35,"[0, 1]",right,1,70,21,m,n,y,2019_Jul_17_1020,2AFC_task,59.938347413905575,
stimuli/rgb_scene000056_render000002.png,stimuli/rgb_scene000056_render000005.png,1,179,389,55,"[0, 1]",right,1,70,21,m,n,y,2019_Jul_17_1020,2AFC_task,59.938347413905575,
stimuli/rgb_scene000047_render000005.png,stimuli/rgb_scene000047_render000006.png,1,180,390,41,"[0, 1]",right,1,70,21,m,n,y,2019_Jul_17_1020,2AFC_task,59.938347413905575,
stimuli/rgb_scene000042_render000002.png,stimuli/rgb_scene000042_render000004.png,1,181,391,12,"[1, 0]",left,1,70,21,m,n,y,2019_Jul_17_1020,2AFC_task,59.938347413905575,
stimuli/rgb_scene000042_render000003.png,stimuli/rgb_scene000042_render000005.png,1,182,392,16,"[1, 0]",left,1,70,21,m,n,y,2019_Jul_17_1020,2AFC_task,59.938347413905575,
stimuli/rgb_scene000160_render000005.png,stimuli/rgb_scene000160_render000006.png,1,183,393,146,"[1, 0]",left,1,70,21,m,n,y,2019_Jul_17_1020,2AFC_task,59.938347413905575,
stimuli/rgb_scene000147_render000001.png,stimuli/rgb_scene000147_render000003.png,1,184,394,91,"[0, 1]",right,1,70,21,m,n,y,2019_Jul_17_1020,2AFC_task,59.938347413905575,
stimuli/rgb_scene000147_render000001.png,stimuli/rgb_scene000147_render000002.png,1,185,395,90,"[0, 1]",right,1,70,21,m,n,y,2019_Jul_17_1020,2AFC_task,59.938347413905575,
stimuli/rgb_scene000147_render000002.png,stimuli/rgb_scene000147_render000004.png,1,186,396,96,"[0, 1]",right,1,70,21,m,n,y,2019_Jul_17_1020,2AFC_task,59.938347413905575,
stimuli/rgb_scene000047_render000003.png,stimuli/rgb_scene000047_render000005.png,1,187,397,37,"[0, 1]",right,1,70,21,m,n,y,2019_Jul_17_1020,2AFC_task,59.938347413905575,
stimuli/rgb_scene000150_render000001.png,stimuli/rgb_scene000150_render000003.png,1,188,398,112,"[1, 0]",left,1,70,21,m,n,y,2019_Jul_17_1020,2AFC_task,59.938347413905575,
stimuli/rgb_scene000160_render000000.png,stimuli/rgb_scene000160_render000004.png,1,189,399,129,"[1, 0]",left,1,70,21,m,n,y,2019_Jul_17_1020,2AFC_task,59.938347413905575,
stimuli/rgb_scene000150_render000005.png,stimuli/rgb_scene000150_render000006.png,1,190,400,125,"[1, 0]",left,1,70,21,m,n,y,2019_Jul_17_1020,2AFC_task,59.938347413905575,
stimuli/rgb_scene000196_render000002.png,stimuli/rgb_scene000196_render000004.png,1,191,401,201,"[0, 1]",right,1,70,21,m,n,y,2019_Jul_17_1020,2AFC_task,59.938347413905575,
stimuli/rgb_scene000066_render000000.png,stimuli/rgb_scene000066_render000003.png,1,192,402,65,"[0, 1]",right,1,70,21,m,n,y,2019_Jul_17_1020,2AFC_task,59.938347413905575,
stimuli/rgb_scene000169_render000002.png,stimuli/rgb_scene000169_render000004.png,1,193,403,180,"[0, 1]",right,1,70,21,m,n,y,2019_Jul_17_1020,2AFC_task,59.938347413905575,
stimuli/rgb_scene000047_render000001.png,stimuli/rgb_scene000047_render000002.png,1,194,404,27,"[0, 1]",right,1,70,21,m,n,y,2019_Jul_17_1020,2AFC_task,59.938347413905575,
stimuli/rgb_scene000165_render000001.png,stimuli/rgb_scene000165_render000005.png,1,195,405,156,"[1, 0]",left,1,70,21,m,n,y,2019_Jul_17_1020,2AFC_task,59.938347413905575,
stimuli/rgb_scene000042_render000000.png,stimuli/rgb_scene000042_render000001.png,1,196,406,0,"[0, 1]",right,1,70,21,m,n,y,2019_Jul_17_1020,2AFC_task,59.938347413905575,
stimuli/rgb_scene000066_render000000.png,stimuli/rgb_scene000066_render000002.png,1,197,407,64,"[0, 1]",right,1,70,21,m,n,y,2019_Jul_17_1020,2AFC_task,59.938347413905575,
stimuli/rgb_scene000066_render000002.png,stimuli/rgb_scene000066_render000006.png,1,198,408,77,"[0, 1]",right,1,70,21,m,n,y,2019_Jul_17_1020,2AFC_task,59.938347413905575,
stimuli/rgb_scene000056_render000001.png,stimuli/rgb_scene000056_render000002.png,1,199,409,48,"[0, 1]",right,1,70,21,m,n,y,2019_Jul_17_1020,2AFC_task,59.938347413905575,
stimuli/rgb_scene000066_render000003.png,stimuli/rgb_scene000066_render000004.png,1,200,410,78,"[0, 1]",right,1,70,21,m,n,y,2019_Jul_17_1020,2AFC_task,59.938347413905575,
stimuli/rgb_scene000169_render000001.png,stimuli/rgb_scene000169_render000005.png,1,201,411,177,"[0, 1]",right,1,70,21,m,n,y,2019_Jul_17_1020,2AFC_task,59.938347413905575,
stimuli/rgb_scene000150_render000000.png,stimuli/rgb_scene000150_render000006.png,1,202,412,110,"[1, 0]",left,1,70,21,m,n,y,2019_Jul_17_1020,2AFC_task,59.938347413905575,
stimuli/rgb_scene000165_render000001.png,stimuli/rgb_scene000165_render000003.png,1,203,413,154,"[1, 0]",left,1,70,21,m,n,y,2019_Jul_17_1020,2AFC_task,59.938347413905575,
stimuli/rgb_scene000160_render000002.png,stimuli/rgb_scene000160_render000006.png,1,204,414,140,"[1, 0]",left,1,70,21,m,n,y,2019_Jul_17_1020,2AFC_task,59.938347413905575,
stimuli/rgb_scene000147_render000003.png,stimuli/rgb_scene000147_render000006.png,1,205,415,101,"[1, 0]",left,1,70,21,m,n,y,2019_Jul_17_1020,2AFC_task,59.938347413905575,
stimuli/rgb_scene000196_render000003.png,stimuli/rgb_scene000196_render000005.png,1,206,416,205,"[0, 1]",left,0,70,21,m,n,y,2019_Jul_17_1020,2AFC_task,59.938347413905575,
stimuli/rgb_scene000160_render000002.png,stimuli/rgb_scene000160_render000003.png,1,207,417,137,"[1, 0]",left,1,70,21,m,n,y,2019_Jul_17_1020,2AFC_task,59.938347413905575,
stimuli/rgb_scene000042_render000002.png,stimuli/rgb_scene000042_render000003.png,1,208,418,11,"[0, 1]",right,1,70,21,m,n,y,2019_Jul_17_1020,2AFC_task,59.938347413905575,
stimuli/rgb_scene000047_render000002.png,stimuli/rgb_scene000047_render000004.png,1,209,419,33,"[1, 0]",left,1,70,21,m,n,y,2019_Jul_17_1020,2AFC_task,59.938347413905575,
