stimOne,stimTwo,trials_1.thisRepN,trials_1.thisTrialN,trials_1.thisN,trials_1.thisIndex,presentation_positions,resp_key,corresponding_image,participant ID (two digits, e.g. 01),age,gender (m/f/-),normal or corrected-to-normal vision (y/n),normal colour vision (y/n),date,expName,frameRate,
stimuli/rgb_scene000147_render000002.png,stimuli/rgb_scene000147_render000005.png,0,0,0,97,"[1, 0]",left,1,77,25,f,y,y,2019_Jul_15_1442,2AFC_task,59.91460968279924,
stimuli/rgb_scene000169_render000001.png,stimuli/rgb_scene000169_render000004.png,0,1,1,176,"[1, 0]",right,0,77,25,f,y,y,2019_Jul_15_1442,2AFC_task,59.91460968279924,
stimuli/rgb_scene000147_render000000.png,stimuli/rgb_scene000147_render000002.png,0,2,2,85,"[0, 1]",right,1,77,25,f,y,y,2019_Jul_15_1442,2AFC_task,59.91460968279924,
stimuli/rgb_scene000160_render000000.png,stimuli/rgb_scene000160_render000004.png,0,3,3,129,"[0, 1]",right,1,77,25,f,y,y,2019_Jul_15_1442,2AFC_task,59.91460968279924,
stimuli/rgb_scene000056_render000001.png,stimuli/rgb_scene000056_render000005.png,0,4,4,51,"[0, 1]",right,1,77,25,f,y,y,2019_Jul_15_1442,2AFC_task,59.91460968279924,
stimuli/rgb_scene000169_render000000.png,stimuli/rgb_scene000169_render000004.png,0,5,5,171,"[1, 0]",left,1,77,25,f,y,y,2019_Jul_15_1442,2AFC_task,59.91460968279924,
stimuli/rgb_scene000056_render000004.png,stimuli/rgb_scene000056_render000006.png,0,6,6,61,"[0, 1]",right,1,77,25,f,y,y,2019_Jul_15_1442,2AFC_task,59.91460968279924,
stimuli/rgb_scene000169_render000004.png,stimuli/rgb_scene000169_render000005.png,0,7,7,186,"[0, 1]",right,1,77,25,f,y,y,2019_Jul_15_1442,2AFC_task,59.91460968279924,
stimuli/rgb_scene000056_render000002.png,stimuli/rgb_scene000056_render000004.png,0,8,8,54,"[1, 0]",left,1,77,25,f,y,y,2019_Jul_15_1442,2AFC_task,59.91460968279924,
stimuli/rgb_scene000066_render000000.png,stimuli/rgb_scene000066_render000003.png,0,9,9,65,"[0, 1]",right,1,77,25,f,y,y,2019_Jul_15_1442,2AFC_task,59.91460968279924,
stimuli/rgb_scene000066_render000002.png,stimuli/rgb_scene000066_render000004.png,0,10,10,75,"[0, 1]",right,1,77,25,f,y,y,2019_Jul_15_1442,2AFC_task,59.91460968279924,
stimuli/rgb_scene000165_render000004.png,stimuli/rgb_scene000165_render000005.png,0,11,11,165,"[0, 1]",right,1,77,25,f,y,y,2019_Jul_15_1442,2AFC_task,59.91460968279924,
stimuli/rgb_scene000150_render000004.png,stimuli/rgb_scene000150_render000006.png,0,12,12,124,"[0, 1]",right,1,77,25,f,y,y,2019_Jul_15_1442,2AFC_task,59.91460968279924,
stimuli/rgb_scene000147_render000002.png,stimuli/rgb_scene000147_render000006.png,0,13,13,98,"[0, 1]",right,1,77,25,f,y,y,2019_Jul_15_1442,2AFC_task,59.91460968279924,
stimuli/rgb_scene000147_render000000.png,stimuli/rgb_scene000147_render000006.png,0,14,14,89,"[1, 0]",left,1,77,25,f,y,y,2019_Jul_15_1442,2AFC_task,59.91460968279924,
stimuli/rgb_scene000169_render000005.png,stimuli/rgb_scene000169_render000006.png,0,15,15,188,"[0, 1]",right,1,77,25,f,y,y,2019_Jul_15_1442,2AFC_task,59.91460968279924,
stimuli/rgb_scene000066_render000001.png,stimuli/rgb_scene000066_render000003.png,0,16,16,70,"[0, 1]",right,1,77,25,f,y,y,2019_Jul_15_1442,2AFC_task,59.91460968279924,
stimuli/rgb_scene000056_render000003.png,stimuli/rgb_scene000056_render000006.png,0,17,17,59,"[1, 0]",left,1,77,25,f,y,y,2019_Jul_15_1442,2AFC_task,59.91460968279924,
stimuli/rgb_scene000042_render000002.png,stimuli/rgb_scene000042_render000003.png,0,18,18,11,"[0, 1]",right,1,77,25,f,y,y,2019_Jul_15_1442,2AFC_task,59.91460968279924,
stimuli/rgb_scene000196_render000001.png,stimuli/rgb_scene000196_render000004.png,0,19,19,197,"[0, 1]",right,1,77,25,f,y,y,2019_Jul_15_1442,2AFC_task,59.91460968279924,
stimuli/rgb_scene000066_render000001.png,stimuli/rgb_scene000066_render000004.png,0,20,20,71,"[1, 0]",left,1,77,25,f,y,y,2019_Jul_15_1442,2AFC_task,59.91460968279924,
stimuli/rgb_scene000196_render000001.png,stimuli/rgb_scene000196_render000003.png,0,21,21,196,"[0, 1]",right,1,77,25,f,y,y,2019_Jul_15_1442,2AFC_task,59.91460968279924,
stimuli/rgb_scene000150_render000001.png,stimuli/rgb_scene000150_render000006.png,0,22,22,115,"[0, 1]",right,1,77,25,f,y,y,2019_Jul_15_1442,2AFC_task,59.91460968279924,
stimuli/rgb_scene000056_render000002.png,stimuli/rgb_scene000056_render000003.png,0,23,23,53,"[1, 0]",left,1,77,25,f,y,y,2019_Jul_15_1442,2AFC_task,59.91460968279924,
stimuli/rgb_scene000047_render000001.png,stimuli/rgb_scene000047_render000006.png,0,24,24,31,"[1, 0]",left,1,77,25,f,y,y,2019_Jul_15_1442,2AFC_task,59.91460968279924,
stimuli/rgb_scene000169_render000000.png,stimuli/rgb_scene000169_render000002.png,0,25,25,169,"[1, 0]",right,0,77,25,f,y,y,2019_Jul_15_1442,2AFC_task,59.91460968279924,
stimuli/rgb_scene000169_render000002.png,stimuli/rgb_scene000169_render000003.png,0,26,26,179,"[1, 0]",left,1,77,25,f,y,y,2019_Jul_15_1442,2AFC_task,59.91460968279924,
stimuli/rgb_scene000196_render000002.png,stimuli/rgb_scene000196_render000005.png,0,27,27,202,"[0, 1]",right,1,77,25,f,y,y,2019_Jul_15_1442,2AFC_task,59.91460968279924,
stimuli/rgb_scene000150_render000000.png,stimuli/rgb_scene000150_render000006.png,0,28,28,110,"[0, 1]",right,1,77,25,f,y,y,2019_Jul_15_1442,2AFC_task,59.91460968279924,
stimuli/rgb_scene000169_render000001.png,stimuli/rgb_scene000169_render000002.png,0,29,29,174,"[0, 1]",right,1,77,25,f,y,y,2019_Jul_15_1442,2AFC_task,59.91460968279924,
stimuli/rgb_scene000165_render000004.png,stimuli/rgb_scene000165_render000006.png,0,30,30,166,"[1, 0]",left,1,77,25,f,y,y,2019_Jul_15_1442,2AFC_task,59.91460968279924,
stimuli/rgb_scene000150_render000005.png,stimuli/rgb_scene000150_render000006.png,0,31,31,125,"[0, 1]",right,1,77,25,f,y,y,2019_Jul_15_1442,2AFC_task,59.91460968279924,
stimuli/rgb_scene000066_render000001.png,stimuli/rgb_scene000066_render000006.png,0,32,32,73,"[0, 1]",right,1,77,25,f,y,y,2019_Jul_15_1442,2AFC_task,59.91460968279924,
stimuli/rgb_scene000066_render000000.png,stimuli/rgb_scene000066_render000006.png,0,33,33,68,"[1, 0]",left,1,77,25,f,y,y,2019_Jul_15_1442,2AFC_task,59.91460968279924,
stimuli/rgb_scene000165_render000003.png,stimuli/rgb_scene000165_render000005.png,0,34,34,163,"[0, 1]",right,1,77,25,f,y,y,2019_Jul_15_1442,2AFC_task,59.91460968279924,
stimuli/rgb_scene000160_render000001.png,stimuli/rgb_scene000160_render000004.png,0,35,35,134,"[1, 0]",left,1,77,25,f,y,y,2019_Jul_15_1442,2AFC_task,59.91460968279924,
stimuli/rgb_scene000169_render000001.png,stimuli/rgb_scene000169_render000003.png,0,36,36,175,"[0, 1]",right,1,77,25,f,y,y,2019_Jul_15_1442,2AFC_task,59.91460968279924,
stimuli/rgb_scene000047_render000001.png,stimuli/rgb_scene000047_render000003.png,0,37,37,28,"[0, 1]",right,1,77,25,f,y,y,2019_Jul_15_1442,2AFC_task,59.91460968279924,
stimuli/rgb_scene000196_render000005.png,stimuli/rgb_scene000196_render000006.png,0,38,38,209,"[1, 0]",right,0,77,25,f,y,y,2019_Jul_15_1442,2AFC_task,59.91460968279924,
stimuli/rgb_scene000042_render000000.png,stimuli/rgb_scene000042_render000006.png,0,39,39,5,"[0, 1]",right,1,77,25,f,y,y,2019_Jul_15_1442,2AFC_task,59.91460968279924,
stimuli/rgb_scene000196_render000000.png,stimuli/rgb_scene000196_render000006.png,0,40,40,194,"[1, 0]",left,1,77,25,f,y,y,2019_Jul_15_1442,2AFC_task,59.91460968279924,
stimuli/rgb_scene000160_render000002.png,stimuli/rgb_scene000160_render000003.png,0,41,41,137,"[0, 1]",right,1,77,25,f,y,y,2019_Jul_15_1442,2AFC_task,59.91460968279924,
stimuli/rgb_scene000147_render000002.png,stimuli/rgb_scene000147_render000003.png,0,42,42,95,"[0, 1]",right,1,77,25,f,y,y,2019_Jul_15_1442,2AFC_task,59.91460968279924,
stimuli/rgb_scene000042_render000003.png,stimuli/rgb_scene000042_render000005.png,0,43,43,16,"[1, 0]",left,1,77,25,f,y,y,2019_Jul_15_1442,2AFC_task,59.91460968279924,
stimuli/rgb_scene000147_render000000.png,stimuli/rgb_scene000147_render000004.png,0,44,44,87,"[1, 0]",left,1,77,25,f,y,y,2019_Jul_15_1442,2AFC_task,59.91460968279924,
stimuli/rgb_scene000160_render000000.png,stimuli/rgb_scene000160_render000002.png,0,45,45,127,"[0, 1]",right,1,77,25,f,y,y,2019_Jul_15_1442,2AFC_task,59.91460968279924,
stimuli/rgb_scene000056_render000002.png,stimuli/rgb_scene000056_render000005.png,0,46,46,55,"[1, 0]",left,1,77,25,f,y,y,2019_Jul_15_1442,2AFC_task,59.91460968279924,
stimuli/rgb_scene000047_render000004.png,stimuli/rgb_scene000047_render000005.png,0,47,47,39,"[0, 1]",right,1,77,25,f,y,y,2019_Jul_15_1442,2AFC_task,59.91460968279924,
stimuli/rgb_scene000165_render000003.png,stimuli/rgb_scene000165_render000004.png,0,48,48,162,"[1, 0]",left,1,77,25,f,y,y,2019_Jul_15_1442,2AFC_task,59.91460968279924,
stimuli/rgb_scene000160_render000000.png,stimuli/rgb_scene000160_render000006.png,0,49,49,131,"[1, 0]",left,1,77,25,f,y,y,2019_Jul_15_1442,2AFC_task,59.91460968279924,
stimuli/rgb_scene000165_render000001.png,stimuli/rgb_scene000165_render000004.png,0,50,50,155,"[1, 0]",left,1,77,25,f,y,y,2019_Jul_15_1442,2AFC_task,59.91460968279924,
stimuli/rgb_scene000150_render000002.png,stimuli/rgb_scene000150_render000003.png,0,51,51,116,"[1, 0]",left,1,77,25,f,y,y,2019_Jul_15_1442,2AFC_task,59.91460968279924,
stimuli/rgb_scene000160_render000003.png,stimuli/rgb_scene000160_render000004.png,0,52,52,141,"[0, 1]",right,1,77,25,f,y,y,2019_Jul_15_1442,2AFC_task,59.91460968279924,
stimuli/rgb_scene000047_render000002.png,stimuli/rgb_scene000047_render000003.png,0,53,53,32,"[1, 0]",left,1,77,25,f,y,y,2019_Jul_15_1442,2AFC_task,59.91460968279924,
stimuli/rgb_scene000047_render000000.png,stimuli/rgb_scene000047_render000004.png,0,54,54,24,"[0, 1]",right,1,77,25,f,y,y,2019_Jul_15_1442,2AFC_task,59.91460968279924,
stimuli/rgb_scene000066_render000004.png,stimuli/rgb_scene000066_render000006.png,0,55,55,82,"[0, 1]",right,1,77,25,f,y,y,2019_Jul_15_1442,2AFC_task,59.91460968279924,
stimuli/rgb_scene000042_render000000.png,stimuli/rgb_scene000042_render000001.png,0,56,56,0,"[1, 0]",left,1,77,25,f,y,y,2019_Jul_15_1442,2AFC_task,59.91460968279924,
stimuli/rgb_scene000047_render000002.png,stimuli/rgb_scene000047_render000006.png,0,57,57,35,"[0, 1]",right,1,77,25,f,y,y,2019_Jul_15_1442,2AFC_task,59.91460968279924,
stimuli/rgb_scene000150_render000001.png,stimuli/rgb_scene000150_render000005.png,0,58,58,114,"[1, 0]",left,1,77,25,f,y,y,2019_Jul_15_1442,2AFC_task,59.91460968279924,
stimuli/rgb_scene000196_render000000.png,stimuli/rgb_scene000196_render000005.png,0,59,59,193,"[1, 0]",left,1,77,25,f,y,y,2019_Jul_15_1442,2AFC_task,59.91460968279924,
stimuli/rgb_scene000042_render000001.png,stimuli/rgb_scene000042_render000005.png,0,60,60,9,"[0, 1]",right,1,77,25,f,y,y,2019_Jul_15_1442,2AFC_task,59.91460968279924,
stimuli/rgb_scene000042_render000003.png,stimuli/rgb_scene000042_render000006.png,0,61,61,17,"[0, 1]",right,1,77,25,f,y,y,2019_Jul_15_1442,2AFC_task,59.91460968279924,
stimuli/rgb_scene000160_render000005.png,stimuli/rgb_scene000160_render000006.png,0,62,62,146,"[1, 0]",left,1,77,25,f,y,y,2019_Jul_15_1442,2AFC_task,59.91460968279924,
stimuli/rgb_scene000047_render000000.png,stimuli/rgb_scene000047_render000002.png,0,63,63,22,"[1, 0]",left,1,77,25,f,y,y,2019_Jul_15_1442,2AFC_task,59.91460968279924,
stimuli/rgb_scene000160_render000000.png,stimuli/rgb_scene000160_render000005.png,0,64,64,130,"[1, 0]",left,1,77,25,f,y,y,2019_Jul_15_1442,2AFC_task,59.91460968279924,
stimuli/rgb_scene000169_render000003.png,stimuli/rgb_scene000169_render000004.png,0,65,65,183,"[0, 1]",left,0,77,25,f,y,y,2019_Jul_15_1442,2AFC_task,59.91460968279924,
stimuli/rgb_scene000147_render000003.png,stimuli/rgb_scene000147_render000004.png,0,66,66,99,"[0, 1]",right,1,77,25,f,y,y,2019_Jul_15_1442,2AFC_task,59.91460968279924,
stimuli/rgb_scene000196_render000002.png,stimuli/rgb_scene000196_render000006.png,0,67,67,203,"[1, 0]",right,0,77,25,f,y,y,2019_Jul_15_1442,2AFC_task,59.91460968279924,
stimuli/rgb_scene000165_render000001.png,stimuli/rgb_scene000165_render000002.png,0,68,68,153,"[1, 0]",left,1,77,25,f,y,y,2019_Jul_15_1442,2AFC_task,59.91460968279924,
stimuli/rgb_scene000056_render000000.png,stimuli/rgb_scene000056_render000003.png,0,69,69,44,"[0, 1]",right,1,77,25,f,y,y,2019_Jul_15_1442,2AFC_task,59.91460968279924,
stimuli/rgb_scene000066_render000002.png,stimuli/rgb_scene000066_render000006.png,0,70,70,77,"[1, 0]",left,1,77,25,f,y,y,2019_Jul_15_1442,2AFC_task,59.91460968279924,
stimuli/rgb_scene000047_render000005.png,stimuli/rgb_scene000047_render000006.png,0,71,71,41,"[1, 0]",left,1,77,25,f,y,y,2019_Jul_15_1442,2AFC_task,59.91460968279924,
stimuli/rgb_scene000056_render000001.png,stimuli/rgb_scene000056_render000006.png,0,72,72,52,"[0, 1]",right,1,77,25,f,y,y,2019_Jul_15_1442,2AFC_task,59.91460968279924,
stimuli/rgb_scene000047_render000000.png,stimuli/rgb_scene000047_render000003.png,0,73,73,23,"[0, 1]",right,1,77,25,f,y,y,2019_Jul_15_1442,2AFC_task,59.91460968279924,
stimuli/rgb_scene000047_render000004.png,stimuli/rgb_scene000047_render000006.png,0,74,74,40,"[0, 1]",right,1,77,25,f,y,y,2019_Jul_15_1442,2AFC_task,59.91460968279924,
stimuli/rgb_scene000056_render000000.png,stimuli/rgb_scene000056_render000004.png,0,75,75,45,"[1, 0]",left,1,77,25,f,y,y,2019_Jul_15_1442,2AFC_task,59.91460968279924,
stimuli/rgb_scene000165_render000002.png,stimuli/rgb_scene000165_render000006.png,0,76,76,161,"[1, 0]",left,1,77,25,f,y,y,2019_Jul_15_1442,2AFC_task,59.91460968279924,
stimuli/rgb_scene000165_render000002.png,stimuli/rgb_scene000165_render000003.png,0,77,77,158,"[0, 1]",right,1,77,25,f,y,y,2019_Jul_15_1442,2AFC_task,59.91460968279924,
stimuli/rgb_scene000047_render000001.png,stimuli/rgb_scene000047_render000005.png,0,78,78,30,"[0, 1]",right,1,77,25,f,y,y,2019_Jul_15_1442,2AFC_task,59.91460968279924,
stimuli/rgb_scene000042_render000001.png,stimuli/rgb_scene000042_render000003.png,0,79,79,7,"[0, 1]",right,1,77,25,f,y,y,2019_Jul_15_1442,2AFC_task,59.91460968279924,
stimuli/rgb_scene000169_render000002.png,stimuli/rgb_scene000169_render000006.png,0,80,80,182,"[0, 1]",right,1,77,25,f,y,y,2019_Jul_15_1442,2AFC_task,59.91460968279924,
stimuli/rgb_scene000150_render000001.png,stimuli/rgb_scene000150_render000004.png,0,81,81,113,"[1, 0]",left,1,77,25,f,y,y,2019_Jul_15_1442,2AFC_task,59.91460968279924,
stimuli/rgb_scene000150_render000003.png,stimuli/rgb_scene000150_render000004.png,0,82,82,120,"[0, 1]",right,1,77,25,f,y,y,2019_Jul_15_1442,2AFC_task,59.91460968279924,
stimuli/rgb_scene000165_render000002.png,stimuli/rgb_scene000165_render000004.png,0,83,83,159,"[1, 0]",left,1,77,25,f,y,y,2019_Jul_15_1442,2AFC_task,59.91460968279924,
stimuli/rgb_scene000169_render000004.png,stimuli/rgb_scene000169_render000006.png,0,84,84,187,"[0, 1]",right,1,77,25,f,y,y,2019_Jul_15_1442,2AFC_task,59.91460968279924,
stimuli/rgb_scene000147_render000002.png,stimuli/rgb_scene000147_render000004.png,0,85,85,96,"[0, 1]",right,1,77,25,f,y,y,2019_Jul_15_1442,2AFC_task,59.91460968279924,
stimuli/rgb_scene000147_render000000.png,stimuli/rgb_scene000147_render000001.png,0,86,86,84,"[1, 0]",left,1,77,25,f,y,y,2019_Jul_15_1442,2AFC_task,59.91460968279924,
stimuli/rgb_scene000169_render000002.png,stimuli/rgb_scene000169_render000004.png,0,87,87,180,"[0, 1]",right,1,77,25,f,y,y,2019_Jul_15_1442,2AFC_task,59.91460968279924,
stimuli/rgb_scene000165_render000001.png,stimuli/rgb_scene000165_render000003.png,0,88,88,154,"[0, 1]",right,1,77,25,f,y,y,2019_Jul_15_1442,2AFC_task,59.91460968279924,
stimuli/rgb_scene000147_render000001.png,stimuli/rgb_scene000147_render000005.png,0,89,89,93,"[0, 1]",right,1,77,25,f,y,y,2019_Jul_15_1442,2AFC_task,59.91460968279924,
stimuli/rgb_scene000169_render000002.png,stimuli/rgb_scene000169_render000005.png,0,90,90,181,"[1, 0]",right,0,77,25,f,y,y,2019_Jul_15_1442,2AFC_task,59.91460968279924,
stimuli/rgb_scene000165_render000005.png,stimuli/rgb_scene000165_render000006.png,0,91,91,167,"[0, 1]",right,1,77,25,f,y,y,2019_Jul_15_1442,2AFC_task,59.91460968279924,
stimuli/rgb_scene000056_render000001.png,stimuli/rgb_scene000056_render000004.png,0,92,92,50,"[1, 0]",left,1,77,25,f,y,y,2019_Jul_15_1442,2AFC_task,59.91460968279924,
stimuli/rgb_scene000160_render000002.png,stimuli/rgb_scene000160_render000004.png,0,93,93,138,"[0, 1]",right,1,77,25,f,y,y,2019_Jul_15_1442,2AFC_task,59.91460968279924,
stimuli/rgb_scene000160_render000001.png,stimuli/rgb_scene000160_render000003.png,0,94,94,133,"[0, 1]",right,1,77,25,f,y,y,2019_Jul_15_1442,2AFC_task,59.91460968279924,
stimuli/rgb_scene000150_render000003.png,stimuli/rgb_scene000150_render000005.png,0,95,95,121,"[1, 0]",left,1,77,25,f,y,y,2019_Jul_15_1442,2AFC_task,59.91460968279924,
stimuli/rgb_scene000042_render000001.png,stimuli/rgb_scene000042_render000004.png,0,96,96,8,"[0, 1]",right,1,77,25,f,y,y,2019_Jul_15_1442,2AFC_task,59.91460968279924,
stimuli/rgb_scene000160_render000003.png,stimuli/rgb_scene000160_render000006.png,0,97,97,143,"[1, 0]",left,1,77,25,f,y,y,2019_Jul_15_1442,2AFC_task,59.91460968279924,
stimuli/rgb_scene000169_render000000.png,stimuli/rgb_scene000169_render000006.png,0,98,98,173,"[1, 0]",right,0,77,25,f,y,y,2019_Jul_15_1442,2AFC_task,59.91460968279924,
stimuli/rgb_scene000147_render000000.png,stimuli/rgb_scene000147_render000005.png,0,99,99,88,"[1, 0]",left,1,77,25,f,y,y,2019_Jul_15_1442,2AFC_task,59.91460968279924,
stimuli/rgb_scene000165_render000002.png,stimuli/rgb_scene000165_render000005.png,0,100,100,160,"[1, 0]",left,1,77,25,f,y,y,2019_Jul_15_1442,2AFC_task,59.91460968279924,
stimuli/rgb_scene000196_render000004.png,stimuli/rgb_scene000196_render000005.png,0,101,101,207,"[1, 0]",left,1,77,25,f,y,y,2019_Jul_15_1442,2AFC_task,59.91460968279924,
stimuli/rgb_scene000056_render000005.png,stimuli/rgb_scene000056_render000006.png,0,102,102,62,"[0, 1]",right,1,77,25,f,y,y,2019_Jul_15_1442,2AFC_task,59.91460968279924,
stimuli/rgb_scene000196_render000000.png,stimuli/rgb_scene000196_render000004.png,0,103,103,192,"[0, 1]",right,1,77,25,f,y,y,2019_Jul_15_1442,2AFC_task,59.91460968279924,
stimuli/rgb_scene000160_render000004.png,stimuli/rgb_scene000160_render000005.png,0,104,104,144,"[0, 1]",right,1,77,25,f,y,y,2019_Jul_15_1442,2AFC_task,59.91460968279924,
stimuli/rgb_scene000047_render000003.png,stimuli/rgb_scene000047_render000005.png,0,105,105,37,"[1, 0]",left,1,77,25,f,y,y,2019_Jul_15_1442,2AFC_task,59.91460968279924,
stimuli/rgb_scene000042_render000002.png,stimuli/rgb_scene000042_render000006.png,0,106,106,14,"[0, 1]",right,1,77,25,f,y,y,2019_Jul_15_1442,2AFC_task,59.91460968279924,
stimuli/rgb_scene000147_render000005.png,stimuli/rgb_scene000147_render000006.png,0,107,107,104,"[1, 0]",left,1,77,25,f,y,y,2019_Jul_15_1442,2AFC_task,59.91460968279924,
stimuli/rgb_scene000196_render000000.png,stimuli/rgb_scene000196_render000003.png,0,108,108,191,"[0, 1]",right,1,77,25,f,y,y,2019_Jul_15_1442,2AFC_task,59.91460968279924,
stimuli/rgb_scene000066_render000000.png,stimuli/rgb_scene000066_render000001.png,0,109,109,63,"[1, 0]",left,1,77,25,f,y,y,2019_Jul_15_1442,2AFC_task,59.91460968279924,
stimuli/rgb_scene000150_render000000.png,stimuli/rgb_scene000150_render000003.png,0,110,110,107,"[0, 1]",right,1,77,25,f,y,y,2019_Jul_15_1442,2AFC_task,59.91460968279924,
stimuli/rgb_scene000169_render000000.png,stimuli/rgb_scene000169_render000001.png,0,111,111,168,"[1, 0]",right,0,77,25,f,y,y,2019_Jul_15_1442,2AFC_task,59.91460968279924,
stimuli/rgb_scene000056_render000003.png,stimuli/rgb_scene000056_render000004.png,0,112,112,57,"[1, 0]",left,1,77,25,f,y,y,2019_Jul_15_1442,2AFC_task,59.91460968279924,
stimuli/rgb_scene000160_render000002.png,stimuli/rgb_scene000160_render000005.png,0,113,113,139,"[0, 1]",right,1,77,25,f,y,y,2019_Jul_15_1442,2AFC_task,59.91460968279924,
stimuli/rgb_scene000160_render000003.png,stimuli/rgb_scene000160_render000005.png,0,114,114,142,"[1, 0]",left,1,77,25,f,y,y,2019_Jul_15_1442,2AFC_task,59.91460968279924,
stimuli/rgb_scene000150_render000002.png,stimuli/rgb_scene000150_render000005.png,0,115,115,118,"[1, 0]",left,1,77,25,f,y,y,2019_Jul_15_1442,2AFC_task,59.91460968279924,
stimuli/rgb_scene000066_render000004.png,stimuli/rgb_scene000066_render000005.png,0,116,116,81,"[1, 0]",left,1,77,25,f,y,y,2019_Jul_15_1442,2AFC_task,59.91460968279924,
stimuli/rgb_scene000066_render000003.png,stimuli/rgb_scene000066_render000004.png,0,117,117,78,"[0, 1]",right,1,77,25,f,y,y,2019_Jul_15_1442,2AFC_task,59.91460968279924,
stimuli/rgb_scene000056_render000003.png,stimuli/rgb_scene000056_render000005.png,0,118,118,58,"[1, 0]",left,1,77,25,f,y,y,2019_Jul_15_1442,2AFC_task,59.91460968279924,
stimuli/rgb_scene000196_render000001.png,stimuli/rgb_scene000196_render000006.png,0,119,119,199,"[1, 0]",left,1,77,25,f,y,y,2019_Jul_15_1442,2AFC_task,59.91460968279924,
stimuli/rgb_scene000047_render000003.png,stimuli/rgb_scene000047_render000004.png,0,120,120,36,"[1, 0]",left,1,77,25,f,y,y,2019_Jul_15_1442,2AFC_task,59.91460968279924,
stimuli/rgb_scene000056_render000000.png,stimuli/rgb_scene000056_render000006.png,0,121,121,47,"[1, 0]",left,1,77,25,f,y,y,2019_Jul_15_1442,2AFC_task,59.91460968279924,
stimuli/rgb_scene000047_render000001.png,stimuli/rgb_scene000047_render000002.png,0,122,122,27,"[1, 0]",left,1,77,25,f,y,y,2019_Jul_15_1442,2AFC_task,59.91460968279924,
stimuli/rgb_scene000042_render000000.png,stimuli/rgb_scene000042_render000003.png,0,123,123,2,"[1, 0]",left,1,77,25,f,y,y,2019_Jul_15_1442,2AFC_task,59.91460968279924,
stimuli/rgb_scene000066_render000003.png,stimuli/rgb_scene000066_render000005.png,0,124,124,79,"[1, 0]",left,1,77,25,f,y,y,2019_Jul_15_1442,2AFC_task,59.91460968279924,
stimuli/rgb_scene000165_render000000.png,stimuli/rgb_scene000165_render000006.png,0,125,125,152,"[1, 0]",left,1,77,25,f,y,y,2019_Jul_15_1442,2AFC_task,59.91460968279924,
stimuli/rgb_scene000169_render000003.png,stimuli/rgb_scene000169_render000006.png,0,126,126,185,"[1, 0]",right,0,77,25,f,y,y,2019_Jul_15_1442,2AFC_task,59.91460968279924,
stimuli/rgb_scene000147_render000003.png,stimuli/rgb_scene000147_render000006.png,0,127,127,101,"[0, 1]",right,1,77,25,f,y,y,2019_Jul_15_1442,2AFC_task,59.91460968279924,
stimuli/rgb_scene000056_render000001.png,stimuli/rgb_scene000056_render000002.png,0,128,128,48,"[1, 0]",left,1,77,25,f,y,y,2019_Jul_15_1442,2AFC_task,59.91460968279924,
stimuli/rgb_scene000165_render000003.png,stimuli/rgb_scene000165_render000006.png,0,129,129,164,"[1, 0]",left,1,77,25,f,y,y,2019_Jul_15_1442,2AFC_task,59.91460968279924,
stimuli/rgb_scene000042_render000004.png,stimuli/rgb_scene000042_render000005.png,0,130,130,18,"[0, 1]",right,1,77,25,f,y,y,2019_Jul_15_1442,2AFC_task,59.91460968279924,
stimuli/rgb_scene000160_render000000.png,stimuli/rgb_scene000160_render000003.png,0,131,131,128,"[0, 1]",right,1,77,25,f,y,y,2019_Jul_15_1442,2AFC_task,59.91460968279924,
stimuli/rgb_scene000047_render000002.png,stimuli/rgb_scene000047_render000004.png,0,132,132,33,"[1, 0]",left,1,77,25,f,y,y,2019_Jul_15_1442,2AFC_task,59.91460968279924,
stimuli/rgb_scene000165_render000000.png,stimuli/rgb_scene000165_render000004.png,0,133,133,150,"[0, 1]",right,1,77,25,f,y,y,2019_Jul_15_1442,2AFC_task,59.91460968279924,
stimuli/rgb_scene000160_render000004.png,stimuli/rgb_scene000160_render000006.png,0,134,134,145,"[0, 1]",right,1,77,25,f,y,y,2019_Jul_15_1442,2AFC_task,59.91460968279924,
stimuli/rgb_scene000066_render000000.png,stimuli/rgb_scene000066_render000002.png,0,135,135,64,"[0, 1]",right,1,77,25,f,y,y,2019_Jul_15_1442,2AFC_task,59.91460968279924,
stimuli/rgb_scene000150_render000000.png,stimuli/rgb_scene000150_render000004.png,0,136,136,108,"[0, 1]",right,1,77,25,f,y,y,2019_Jul_15_1442,2AFC_task,59.91460968279924,
stimuli/rgb_scene000165_render000001.png,stimuli/rgb_scene000165_render000005.png,0,137,137,156,"[0, 1]",right,1,77,25,f,y,y,2019_Jul_15_1442,2AFC_task,59.91460968279924,
stimuli/rgb_scene000165_render000001.png,stimuli/rgb_scene000165_render000006.png,0,138,138,157,"[1, 0]",left,1,77,25,f,y,y,2019_Jul_15_1442,2AFC_task,59.91460968279924,
stimuli/rgb_scene000147_render000001.png,stimuli/rgb_scene000147_render000003.png,0,139,139,91,"[0, 1]",right,1,77,25,f,y,y,2019_Jul_15_1442,2AFC_task,59.91460968279924,
stimuli/rgb_scene000047_render000003.png,stimuli/rgb_scene000047_render000006.png,0,140,140,38,"[1, 0]",left,1,77,25,f,y,y,2019_Jul_15_1442,2AFC_task,59.91460968279924,
stimuli/rgb_scene000147_render000001.png,stimuli/rgb_scene000147_render000002.png,0,141,141,90,"[1, 0]",right,0,77,25,f,y,y,2019_Jul_15_1442,2AFC_task,59.91460968279924,
stimuli/rgb_scene000196_render000000.png,stimuli/rgb_scene000196_render000001.png,0,142,142,189,"[0, 1]",right,1,77,25,f,y,y,2019_Jul_15_1442,2AFC_task,59.91460968279924,
stimuli/rgb_scene000196_render000002.png,stimuli/rgb_scene000196_render000004.png,0,143,143,201,"[1, 0]",left,1,77,25,f,y,y,2019_Jul_15_1442,2AFC_task,59.91460968279924,
stimuli/rgb_scene000160_render000000.png,stimuli/rgb_scene000160_render000001.png,0,144,144,126,"[1, 0]",left,1,77,25,f,y,y,2019_Jul_15_1442,2AFC_task,59.91460968279924,
stimuli/rgb_scene000042_render000005.png,stimuli/rgb_scene000042_render000006.png,0,145,145,20,"[0, 1]",right,1,77,25,f,y,y,2019_Jul_15_1442,2AFC_task,59.91460968279924,
stimuli/rgb_scene000066_render000001.png,stimuli/rgb_scene000066_render000002.png,0,146,146,69,"[0, 1]",right,1,77,25,f,y,y,2019_Jul_15_1442,2AFC_task,59.91460968279924,
stimuli/rgb_scene000042_render000000.png,stimuli/rgb_scene000042_render000004.png,0,147,147,3,"[1, 0]",left,1,77,25,f,y,y,2019_Jul_15_1442,2AFC_task,59.91460968279924,
stimuli/rgb_scene000047_render000001.png,stimuli/rgb_scene000047_render000004.png,0,148,148,29,"[0, 1]",right,1,77,25,f,y,y,2019_Jul_15_1442,2AFC_task,59.91460968279924,
stimuli/rgb_scene000196_render000003.png,stimuli/rgb_scene000196_render000005.png,0,149,149,205,"[0, 1]",right,1,77,25,f,y,y,2019_Jul_15_1442,2AFC_task,59.91460968279924,
stimuli/rgb_scene000165_render000000.png,stimuli/rgb_scene000165_render000005.png,0,150,150,151,"[1, 0]",left,1,77,25,f,y,y,2019_Jul_15_1442,2AFC_task,59.91460968279924,
stimuli/rgb_scene000147_render000000.png,stimuli/rgb_scene000147_render000003.png,0,151,151,86,"[0, 1]",right,1,77,25,f,y,y,2019_Jul_15_1442,2AFC_task,59.91460968279924,
stimuli/rgb_scene000196_render000003.png,stimuli/rgb_scene000196_render000006.png,0,152,152,206,"[1, 0]",left,1,77,25,f,y,y,2019_Jul_15_1442,2AFC_task,59.91460968279924,
stimuli/rgb_scene000169_render000001.png,stimuli/rgb_scene000169_render000006.png,0,153,153,178,"[1, 0]",right,0,77,25,f,y,y,2019_Jul_15_1442,2AFC_task,59.91460968279924,
stimuli/rgb_scene000169_render000003.png,stimuli/rgb_scene000169_render000005.png,0,154,154,184,"[0, 1]",left,0,77,25,f,y,y,2019_Jul_15_1442,2AFC_task,59.91460968279924,
stimuli/rgb_scene000066_render000000.png,stimuli/rgb_scene000066_render000005.png,0,155,155,67,"[0, 1]",right,1,77,25,f,y,y,2019_Jul_15_1442,2AFC_task,59.91460968279924,
stimuli/rgb_scene000047_render000002.png,stimuli/rgb_scene000047_render000005.png,0,156,156,34,"[1, 0]",left,1,77,25,f,y,y,2019_Jul_15_1442,2AFC_task,59.91460968279924,
stimuli/rgb_scene000147_render000004.png,stimuli/rgb_scene000147_render000006.png,0,157,157,103,"[1, 0]",left,1,77,25,f,y,y,2019_Jul_15_1442,2AFC_task,59.91460968279924,
stimuli/rgb_scene000150_render000003.png,stimuli/rgb_scene000150_render000006.png,0,158,158,122,"[1, 0]",left,1,77,25,f,y,y,2019_Jul_15_1442,2AFC_task,59.91460968279924,
stimuli/rgb_scene000160_render000001.png,stimuli/rgb_scene000160_render000005.png,0,159,159,135,"[1, 0]",left,1,77,25,f,y,y,2019_Jul_15_1442,2AFC_task,59.91460968279924,
stimuli/rgb_scene000042_render000000.png,stimuli/rgb_scene000042_render000002.png,0,160,160,1,"[1, 0]",left,1,77,25,f,y,y,2019_Jul_15_1442,2AFC_task,59.91460968279924,
stimuli/rgb_scene000150_render000002.png,stimuli/rgb_scene000150_render000006.png,0,161,161,119,"[1, 0]",left,1,77,25,f,y,y,2019_Jul_15_1442,2AFC_task,59.91460968279924,
stimuli/rgb_scene000160_render000001.png,stimuli/rgb_scene000160_render000002.png,0,162,162,132,"[0, 1]",right,1,77,25,f,y,y,2019_Jul_15_1442,2AFC_task,59.91460968279924,
stimuli/rgb_scene000196_render000003.png,stimuli/rgb_scene000196_render000004.png,0,163,163,204,"[1, 0]",left,1,77,25,f,y,y,2019_Jul_15_1442,2AFC_task,59.91460968279924,
stimuli/rgb_scene000042_render000003.png,stimuli/rgb_scene000042_render000004.png,0,164,164,15,"[1, 0]",left,1,77,25,f,y,y,2019_Jul_15_1442,2AFC_task,59.91460968279924,
stimuli/rgb_scene000169_render000001.png,stimuli/rgb_scene000169_render000005.png,0,165,165,177,"[1, 0]",right,0,77,25,f,y,y,2019_Jul_15_1442,2AFC_task,59.91460968279924,
stimuli/rgb_scene000066_render000001.png,stimuli/rgb_scene000066_render000005.png,0,166,166,72,"[1, 0]",left,1,77,25,f,y,y,2019_Jul_15_1442,2AFC_task,59.91460968279924,
stimuli/rgb_scene000160_render000001.png,stimuli/rgb_scene000160_render000006.png,0,167,167,136,"[0, 1]",right,1,77,25,f,y,y,2019_Jul_15_1442,2AFC_task,59.91460968279924,
stimuli/rgb_scene000066_render000003.png,stimuli/rgb_scene000066_render000006.png,0,168,168,80,"[1, 0]",left,1,77,25,f,y,y,2019_Jul_15_1442,2AFC_task,59.91460968279924,
stimuli/rgb_scene000056_render000000.png,stimuli/rgb_scene000056_render000001.png,0,169,169,42,"[0, 1]",right,1,77,25,f,y,y,2019_Jul_15_1442,2AFC_task,59.91460968279924,
stimuli/rgb_scene000196_render000001.png,stimuli/rgb_scene000196_render000002.png,0,170,170,195,"[1, 0]",left,1,77,25,f,y,y,2019_Jul_15_1442,2AFC_task,59.91460968279924,
stimuli/rgb_scene000042_render000002.png,stimuli/rgb_scene000042_render000005.png,0,171,171,13,"[0, 1]",right,1,77,25,f,y,y,2019_Jul_15_1442,2AFC_task,59.91460968279924,
stimuli/rgb_scene000150_render000002.png,stimuli/rgb_scene000150_render000004.png,0,172,172,117,"[1, 0]",left,1,77,25,f,y,y,2019_Jul_15_1442,2AFC_task,59.91460968279924,
stimuli/rgb_scene000150_render000001.png,stimuli/rgb_scene000150_render000003.png,0,173,173,112,"[0, 1]",right,1,77,25,f,y,y,2019_Jul_15_1442,2AFC_task,59.91460968279924,
stimuli/rgb_scene000160_render000002.png,stimuli/rgb_scene000160_render000006.png,0,174,174,140,"[0, 1]",right,1,77,25,f,y,y,2019_Jul_15_1442,2AFC_task,59.91460968279924,
stimuli/rgb_scene000056_render000000.png,stimuli/rgb_scene000056_render000002.png,0,175,175,43,"[1, 0]",left,1,77,25,f,y,y,2019_Jul_15_1442,2AFC_task,59.91460968279924,
stimuli/rgb_scene000150_render000000.png,stimuli/rgb_scene000150_render000001.png,0,176,176,105,"[0, 1]",right,1,77,25,f,y,y,2019_Jul_15_1442,2AFC_task,59.91460968279924,
stimuli/rgb_scene000196_render000000.png,stimuli/rgb_scene000196_render000002.png,0,177,177,190,"[1, 0]",left,1,77,25,f,y,y,2019_Jul_15_1442,2AFC_task,59.91460968279924,
stimuli/rgb_scene000056_render000004.png,stimuli/rgb_scene000056_render000005.png,0,178,178,60,"[0, 1]",right,1,77,25,f,y,y,2019_Jul_15_1442,2AFC_task,59.91460968279924,
stimuli/rgb_scene000147_render000001.png,stimuli/rgb_scene000147_render000006.png,0,179,179,94,"[0, 1]",right,1,77,25,f,y,y,2019_Jul_15_1442,2AFC_task,59.91460968279924,
stimuli/rgb_scene000042_render000004.png,stimuli/rgb_scene000042_render000006.png,0,180,180,19,"[1, 0]",left,1,77,25,f,y,y,2019_Jul_15_1442,2AFC_task,59.91460968279924,
stimuli/rgb_scene000150_render000004.png,stimuli/rgb_scene000150_render000005.png,0,181,181,123,"[0, 1]",right,1,77,25,f,y,y,2019_Jul_15_1442,2AFC_task,59.91460968279924,
stimuli/rgb_scene000147_render000004.png,stimuli/rgb_scene000147_render000005.png,0,182,182,102,"[1, 0]",left,1,77,25,f,y,y,2019_Jul_15_1442,2AFC_task,59.91460968279924,
stimuli/rgb_scene000196_render000002.png,stimuli/rgb_scene000196_render000003.png,0,183,183,200,"[1, 0]",right,0,77,25,f,y,y,2019_Jul_15_1442,2AFC_task,59.91460968279924,
stimuli/rgb_scene000150_render000000.png,stimuli/rgb_scene000150_render000005.png,0,184,184,109,"[0, 1]",right,1,77,25,f,y,y,2019_Jul_15_1442,2AFC_task,59.91460968279924,
stimuli/rgb_scene000047_render000000.png,stimuli/rgb_scene000047_render000005.png,0,185,185,25,"[1, 0]",left,1,77,25,f,y,y,2019_Jul_15_1442,2AFC_task,59.91460968279924,
stimuli/rgb_scene000047_render000000.png,stimuli/rgb_scene000047_render000006.png,0,186,186,26,"[1, 0]",left,1,77,25,f,y,y,2019_Jul_15_1442,2AFC_task,59.91460968279924,
stimuli/rgb_scene000165_render000000.png,stimuli/rgb_scene000165_render000001.png,0,187,187,147,"[1, 0]",left,1,77,25,f,y,y,2019_Jul_15_1442,2AFC_task,59.91460968279924,
stimuli/rgb_scene000147_render000001.png,stimuli/rgb_scene000147_render000004.png,0,188,188,92,"[0, 1]",right,1,77,25,f,y,y,2019_Jul_15_1442,2AFC_task,59.91460968279924,
stimuli/rgb_scene000150_render000000.png,stimuli/rgb_scene000150_render000002.png,0,189,189,106,"[1, 0]",left,1,77,25,f,y,y,2019_Jul_15_1442,2AFC_task,59.91460968279924,
stimuli/rgb_scene000047_render000000.png,stimuli/rgb_scene000047_render000001.png,0,190,190,21,"[0, 1]",right,1,77,25,f,y,y,2019_Jul_15_1442,2AFC_task,59.91460968279924,
stimuli/rgb_scene000150_render000001.png,stimuli/rgb_scene000150_render000002.png,0,191,191,111,"[0, 1]",right,1,77,25,f,y,y,2019_Jul_15_1442,2AFC_task,59.91460968279924,
stimuli/rgb_scene000147_render000003.png,stimuli/rgb_scene000147_render000005.png,0,192,192,100,"[0, 1]",right,1,77,25,f,y,y,2019_Jul_15_1442,2AFC_task,59.91460968279924,
stimuli/rgb_scene000042_render000000.png,stimuli/rgb_scene000042_render000005.png,0,193,193,4,"[1, 0]",left,1,77,25,f,y,y,2019_Jul_15_1442,2AFC_task,59.91460968279924,
stimuli/rgb_scene000066_render000005.png,stimuli/rgb_scene000066_render000006.png,0,194,194,83,"[0, 1]",right,1,77,25,f,y,y,2019_Jul_15_1442,2AFC_task,59.91460968279924,
stimuli/rgb_scene000196_render000001.png,stimuli/rgb_scene000196_render000005.png,0,195,195,198,"[0, 1]",right,1,77,25,f,y,y,2019_Jul_15_1442,2AFC_task,59.91460968279924,
stimuli/rgb_scene000169_render000000.png,stimuli/rgb_scene000169_render000003.png,0,196,196,170,"[0, 1]",right,1,77,25,f,y,y,2019_Jul_15_1442,2AFC_task,59.91460968279924,
stimuli/rgb_scene000066_render000002.png,stimuli/rgb_scene000066_render000003.png,0,197,197,74,"[0, 1]",right,1,77,25,f,y,y,2019_Jul_15_1442,2AFC_task,59.91460968279924,
stimuli/rgb_scene000066_render000000.png,stimuli/rgb_scene000066_render000004.png,0,198,198,66,"[1, 0]",left,1,77,25,f,y,y,2019_Jul_15_1442,2AFC_task,59.91460968279924,
stimuli/rgb_scene000169_render000000.png,stimuli/rgb_scene000169_render000005.png,0,199,199,172,"[0, 1]",right,1,77,25,f,y,y,2019_Jul_15_1442,2AFC_task,59.91460968279924,
stimuli/rgb_scene000165_render000000.png,stimuli/rgb_scene000165_render000002.png,0,200,200,148,"[0, 1]",right,1,77,25,f,y,y,2019_Jul_15_1442,2AFC_task,59.91460968279924,
stimuli/rgb_scene000056_render000000.png,stimuli/rgb_scene000056_render000005.png,0,201,201,46,"[0, 1]",right,1,77,25,f,y,y,2019_Jul_15_1442,2AFC_task,59.91460968279924,
stimuli/rgb_scene000196_render000004.png,stimuli/rgb_scene000196_render000006.png,0,202,202,208,"[0, 1]",right,1,77,25,f,y,y,2019_Jul_15_1442,2AFC_task,59.91460968279924,
stimuli/rgb_scene000056_render000001.png,stimuli/rgb_scene000056_render000003.png,0,203,203,49,"[1, 0]",left,1,77,25,f,y,y,2019_Jul_15_1442,2AFC_task,59.91460968279924,
stimuli/rgb_scene000042_render000001.png,stimuli/rgb_scene000042_render000002.png,0,204,204,6,"[0, 1]",right,1,77,25,f,y,y,2019_Jul_15_1442,2AFC_task,59.91460968279924,
stimuli/rgb_scene000042_render000001.png,stimuli/rgb_scene000042_render000006.png,0,205,205,10,"[1, 0]",left,1,77,25,f,y,y,2019_Jul_15_1442,2AFC_task,59.91460968279924,
stimuli/rgb_scene000042_render000002.png,stimuli/rgb_scene000042_render000004.png,0,206,206,12,"[1, 0]",left,1,77,25,f,y,y,2019_Jul_15_1442,2AFC_task,59.91460968279924,
stimuli/rgb_scene000165_render000000.png,stimuli/rgb_scene000165_render000003.png,0,207,207,149,"[0, 1]",right,1,77,25,f,y,y,2019_Jul_15_1442,2AFC_task,59.91460968279924,
stimuli/rgb_scene000066_render000002.png,stimuli/rgb_scene000066_render000005.png,0,208,208,76,"[0, 1]",right,1,77,25,f,y,y,2019_Jul_15_1442,2AFC_task,59.91460968279924,
stimuli/rgb_scene000056_render000002.png,stimuli/rgb_scene000056_render000006.png,0,209,209,56,"[0, 1]",right,1,77,25,f,y,y,2019_Jul_15_1442,2AFC_task,59.91460968279924,
stimuli/rgb_scene000066_render000000.png,stimuli/rgb_scene000066_render000006.png,1,0,210,68,"[1, 0]",left,1,77,25,f,y,y,2019_Jul_15_1442,2AFC_task,59.91460968279924,
stimuli/rgb_scene000150_render000003.png,stimuli/rgb_scene000150_render000006.png,1,1,211,122,"[0, 1]",right,1,77,25,f,y,y,2019_Jul_15_1442,2AFC_task,59.91460968279924,
stimuli/rgb_scene000056_render000003.png,stimuli/rgb_scene000056_render000006.png,1,2,212,59,"[0, 1]",right,1,77,25,f,y,y,2019_Jul_15_1442,2AFC_task,59.91460968279924,
stimuli/rgb_scene000056_render000004.png,stimuli/rgb_scene000056_render000005.png,1,3,213,60,"[0, 1]",right,1,77,25,f,y,y,2019_Jul_15_1442,2AFC_task,59.91460968279924,
stimuli/rgb_scene000169_render000000.png,stimuli/rgb_scene000169_render000005.png,1,4,214,172,"[1, 0]",right,0,77,25,f,y,y,2019_Jul_15_1442,2AFC_task,59.91460968279924,
stimuli/rgb_scene000042_render000004.png,stimuli/rgb_scene000042_render000006.png,1,5,215,19,"[1, 0]",left,1,77,25,f,y,y,2019_Jul_15_1442,2AFC_task,59.91460968279924,
stimuli/rgb_scene000160_render000000.png,stimuli/rgb_scene000160_render000002.png,1,6,216,127,"[0, 1]",right,1,77,25,f,y,y,2019_Jul_15_1442,2AFC_task,59.91460968279924,
stimuli/rgb_scene000196_render000004.png,stimuli/rgb_scene000196_render000005.png,1,7,217,207,"[1, 0]",right,0,77,25,f,y,y,2019_Jul_15_1442,2AFC_task,59.91460968279924,
stimuli/rgb_scene000150_render000000.png,stimuli/rgb_scene000150_render000005.png,1,8,218,109,"[1, 0]",left,1,77,25,f,y,y,2019_Jul_15_1442,2AFC_task,59.91460968279924,
stimuli/rgb_scene000160_render000000.png,stimuli/rgb_scene000160_render000001.png,1,9,219,126,"[1, 0]",left,1,77,25,f,y,y,2019_Jul_15_1442,2AFC_task,59.91460968279924,
stimuli/rgb_scene000150_render000004.png,stimuli/rgb_scene000150_render000006.png,1,10,220,124,"[0, 1]",right,1,77,25,f,y,y,2019_Jul_15_1442,2AFC_task,59.91460968279924,
stimuli/rgb_scene000196_render000000.png,stimuli/rgb_scene000196_render000003.png,1,11,221,191,"[0, 1]",right,1,77,25,f,y,y,2019_Jul_15_1442,2AFC_task,59.91460968279924,
stimuli/rgb_scene000150_render000000.png,stimuli/rgb_scene000150_render000006.png,1,12,222,110,"[1, 0]",left,1,77,25,f,y,y,2019_Jul_15_1442,2AFC_task,59.91460968279924,
stimuli/rgb_scene000150_render000005.png,stimuli/rgb_scene000150_render000006.png,1,13,223,125,"[0, 1]",right,1,77,25,f,y,y,2019_Jul_15_1442,2AFC_task,59.91460968279924,
stimuli/rgb_scene000160_render000000.png,stimuli/rgb_scene000160_render000003.png,1,14,224,128,"[0, 1]",right,1,77,25,f,y,y,2019_Jul_15_1442,2AFC_task,59.91460968279924,
stimuli/rgb_scene000066_render000004.png,stimuli/rgb_scene000066_render000006.png,1,15,225,82,"[1, 0]",left,1,77,25,f,y,y,2019_Jul_15_1442,2AFC_task,59.91460968279924,
stimuli/rgb_scene000196_render000001.png,stimuli/rgb_scene000196_render000005.png,1,16,226,198,"[0, 1]",right,1,77,25,f,y,y,2019_Jul_15_1442,2AFC_task,59.91460968279924,
stimuli/rgb_scene000042_render000002.png,stimuli/rgb_scene000042_render000006.png,1,17,227,14,"[1, 0]",left,1,77,25,f,y,y,2019_Jul_15_1442,2AFC_task,59.91460968279924,
stimuli/rgb_scene000165_render000001.png,stimuli/rgb_scene000165_render000002.png,1,18,228,153,"[1, 0]",right,0,77,25,f,y,y,2019_Jul_15_1442,2AFC_task,59.91460968279924,
stimuli/rgb_scene000160_render000003.png,stimuli/rgb_scene000160_render000005.png,1,19,229,142,"[0, 1]",right,1,77,25,f,y,y,2019_Jul_15_1442,2AFC_task,59.91460968279924,
stimuli/rgb_scene000150_render000000.png,stimuli/rgb_scene000150_render000003.png,1,20,230,107,"[1, 0]",left,1,77,25,f,y,y,2019_Jul_15_1442,2AFC_task,59.91460968279924,
stimuli/rgb_scene000150_render000002.png,stimuli/rgb_scene000150_render000005.png,1,21,231,118,"[0, 1]",right,1,77,25,f,y,y,2019_Jul_15_1442,2AFC_task,59.91460968279924,
stimuli/rgb_scene000169_render000002.png,stimuli/rgb_scene000169_render000006.png,1,22,232,182,"[0, 1]",right,1,77,25,f,y,y,2019_Jul_15_1442,2AFC_task,59.91460968279924,
stimuli/rgb_scene000047_render000002.png,stimuli/rgb_scene000047_render000003.png,1,23,233,32,"[1, 0]",left,1,77,25,f,y,y,2019_Jul_15_1442,2AFC_task,59.91460968279924,
stimuli/rgb_scene000150_render000004.png,stimuli/rgb_scene000150_render000005.png,1,24,234,123,"[1, 0]",left,1,77,25,f,y,y,2019_Jul_15_1442,2AFC_task,59.91460968279924,
stimuli/rgb_scene000066_render000000.png,stimuli/rgb_scene000066_render000001.png,1,25,235,63,"[0, 1]",right,1,77,25,f,y,y,2019_Jul_15_1442,2AFC_task,59.91460968279924,
stimuli/rgb_scene000147_render000002.png,stimuli/rgb_scene000147_render000006.png,1,26,236,98,"[1, 0]",left,1,77,25,f,y,y,2019_Jul_15_1442,2AFC_task,59.91460968279924,
stimuli/rgb_scene000165_render000000.png,stimuli/rgb_scene000165_render000005.png,1,27,237,151,"[1, 0]",left,1,77,25,f,y,y,2019_Jul_15_1442,2AFC_task,59.91460968279924,
stimuli/rgb_scene000042_render000000.png,stimuli/rgb_scene000042_render000001.png,1,28,238,0,"[0, 1]",right,1,77,25,f,y,y,2019_Jul_15_1442,2AFC_task,59.91460968279924,
stimuli/rgb_scene000196_render000003.png,stimuli/rgb_scene000196_render000006.png,1,29,239,206,"[0, 1]",right,1,77,25,f,y,y,2019_Jul_15_1442,2AFC_task,59.91460968279924,
stimuli/rgb_scene000042_render000001.png,stimuli/rgb_scene000042_render000002.png,1,30,240,6,"[1, 0]",left,1,77,25,f,y,y,2019_Jul_15_1442,2AFC_task,59.91460968279924,
stimuli/rgb_scene000196_render000002.png,stimuli/rgb_scene000196_render000004.png,1,31,241,201,"[0, 1]",right,1,77,25,f,y,y,2019_Jul_15_1442,2AFC_task,59.91460968279924,
stimuli/rgb_scene000147_render000005.png,stimuli/rgb_scene000147_render000006.png,1,32,242,104,"[0, 1]",right,1,77,25,f,y,y,2019_Jul_15_1442,2AFC_task,59.91460968279924,
stimuli/rgb_scene000042_render000001.png,stimuli/rgb_scene000042_render000003.png,1,33,243,7,"[0, 1]",right,1,77,25,f,y,y,2019_Jul_15_1442,2AFC_task,59.91460968279924,
stimuli/rgb_scene000165_render000003.png,stimuli/rgb_scene000165_render000006.png,1,34,244,164,"[0, 1]",right,1,77,25,f,y,y,2019_Jul_15_1442,2AFC_task,59.91460968279924,
stimuli/rgb_scene000165_render000005.png,stimuli/rgb_scene000165_render000006.png,1,35,245,167,"[0, 1]",left,0,77,25,f,y,y,2019_Jul_15_1442,2AFC_task,59.91460968279924,
stimuli/rgb_scene000160_render000005.png,stimuli/rgb_scene000160_render000006.png,1,36,246,146,"[1, 0]",left,1,77,25,f,y,y,2019_Jul_15_1442,2AFC_task,59.91460968279924,
stimuli/rgb_scene000196_render000001.png,stimuli/rgb_scene000196_render000006.png,1,37,247,199,"[1, 0]",left,1,77,25,f,y,y,2019_Jul_15_1442,2AFC_task,59.91460968279924,
stimuli/rgb_scene000160_render000002.png,stimuli/rgb_scene000160_render000003.png,1,38,248,137,"[1, 0]",left,1,77,25,f,y,y,2019_Jul_15_1442,2AFC_task,59.91460968279924,
stimuli/rgb_scene000042_render000001.png,stimuli/rgb_scene000042_render000005.png,1,39,249,9,"[1, 0]",left,1,77,25,f,y,y,2019_Jul_15_1442,2AFC_task,59.91460968279924,
stimuli/rgb_scene000042_render000001.png,stimuli/rgb_scene000042_render000006.png,1,40,250,10,"[1, 0]",left,1,77,25,f,y,y,2019_Jul_15_1442,2AFC_task,59.91460968279924,
stimuli/rgb_scene000056_render000000.png,stimuli/rgb_scene000056_render000002.png,1,41,251,43,"[1, 0]",left,1,77,25,f,y,y,2019_Jul_15_1442,2AFC_task,59.91460968279924,
stimuli/rgb_scene000066_render000000.png,stimuli/rgb_scene000066_render000004.png,1,42,252,66,"[0, 1]",right,1,77,25,f,y,y,2019_Jul_15_1442,2AFC_task,59.91460968279924,
stimuli/rgb_scene000165_render000001.png,stimuli/rgb_scene000165_render000004.png,1,43,253,155,"[1, 0]",left,1,77,25,f,y,y,2019_Jul_15_1442,2AFC_task,59.91460968279924,
stimuli/rgb_scene000056_render000002.png,stimuli/rgb_scene000056_render000004.png,1,44,254,54,"[1, 0]",left,1,77,25,f,y,y,2019_Jul_15_1442,2AFC_task,59.91460968279924,
stimuli/rgb_scene000196_render000002.png,stimuli/rgb_scene000196_render000003.png,1,45,255,200,"[1, 0]",left,1,77,25,f,y,y,2019_Jul_15_1442,2AFC_task,59.91460968279924,
stimuli/rgb_scene000196_render000001.png,stimuli/rgb_scene000196_render000002.png,1,46,256,195,"[0, 1]",right,1,77,25,f,y,y,2019_Jul_15_1442,2AFC_task,59.91460968279924,
stimuli/rgb_scene000165_render000002.png,stimuli/rgb_scene000165_render000005.png,1,47,257,160,"[0, 1]",right,1,77,25,f,y,y,2019_Jul_15_1442,2AFC_task,59.91460968279924,
stimuli/rgb_scene000047_render000002.png,stimuli/rgb_scene000047_render000004.png,1,48,258,33,"[0, 1]",right,1,77,25,f,y,y,2019_Jul_15_1442,2AFC_task,59.91460968279924,
stimuli/rgb_scene000047_render000003.png,stimuli/rgb_scene000047_render000005.png,1,49,259,37,"[1, 0]",left,1,77,25,f,y,y,2019_Jul_15_1442,2AFC_task,59.91460968279924,
stimuli/rgb_scene000056_render000000.png,stimuli/rgb_scene000056_render000004.png,1,50,260,45,"[1, 0]",left,1,77,25,f,y,y,2019_Jul_15_1442,2AFC_task,59.91460968279924,
stimuli/rgb_scene000042_render000001.png,stimuli/rgb_scene000042_render000004.png,1,51,261,8,"[0, 1]",right,1,77,25,f,y,y,2019_Jul_15_1442,2AFC_task,59.91460968279924,
stimuli/rgb_scene000147_render000003.png,stimuli/rgb_scene000147_render000005.png,1,52,262,100,"[0, 1]",right,1,77,25,f,y,y,2019_Jul_15_1442,2AFC_task,59.91460968279924,
stimuli/rgb_scene000066_render000002.png,stimuli/rgb_scene000066_render000004.png,1,53,263,75,"[0, 1]",right,1,77,25,f,y,y,2019_Jul_15_1442,2AFC_task,59.91460968279924,
stimuli/rgb_scene000056_render000004.png,stimuli/rgb_scene000056_render000006.png,1,54,264,61,"[1, 0]",left,1,77,25,f,y,y,2019_Jul_15_1442,2AFC_task,59.91460968279924,
stimuli/rgb_scene000196_render000003.png,stimuli/rgb_scene000196_render000005.png,1,55,265,205,"[1, 0]",left,1,77,25,f,y,y,2019_Jul_15_1442,2AFC_task,59.91460968279924,
stimuli/rgb_scene000196_render000002.png,stimuli/rgb_scene000196_render000006.png,1,56,266,203,"[1, 0]",left,1,77,25,f,y,y,2019_Jul_15_1442,2AFC_task,59.91460968279924,
stimuli/rgb_scene000160_render000002.png,stimuli/rgb_scene000160_render000006.png,1,57,267,140,"[0, 1]",right,1,77,25,f,y,y,2019_Jul_15_1442,2AFC_task,59.91460968279924,
stimuli/rgb_scene000196_render000000.png,stimuli/rgb_scene000196_render000005.png,1,58,268,193,"[0, 1]",right,1,77,25,f,y,y,2019_Jul_15_1442,2AFC_task,59.91460968279924,
stimuli/rgb_scene000160_render000002.png,stimuli/rgb_scene000160_render000005.png,1,59,269,139,"[1, 0]",left,1,77,25,f,y,y,2019_Jul_15_1442,2AFC_task,59.91460968279924,
stimuli/rgb_scene000066_render000004.png,stimuli/rgb_scene000066_render000005.png,1,60,270,81,"[0, 1]",right,1,77,25,f,y,y,2019_Jul_15_1442,2AFC_task,59.91460968279924,
stimuli/rgb_scene000042_render000003.png,stimuli/rgb_scene000042_render000006.png,1,61,271,17,"[1, 0]",left,1,77,25,f,y,y,2019_Jul_15_1442,2AFC_task,59.91460968279924,
stimuli/rgb_scene000056_render000000.png,stimuli/rgb_scene000056_render000003.png,1,62,272,44,"[1, 0]",left,1,77,25,f,y,y,2019_Jul_15_1442,2AFC_task,59.91460968279924,
stimuli/rgb_scene000169_render000003.png,stimuli/rgb_scene000169_render000004.png,1,63,273,183,"[0, 1]",right,1,77,25,f,y,y,2019_Jul_15_1442,2AFC_task,59.91460968279924,
stimuli/rgb_scene000196_render000003.png,stimuli/rgb_scene000196_render000004.png,1,64,274,204,"[0, 1]",right,1,77,25,f,y,y,2019_Jul_15_1442,2AFC_task,59.91460968279924,
stimuli/rgb_scene000042_render000003.png,stimuli/rgb_scene000042_render000005.png,1,65,275,16,"[1, 0]",left,1,77,25,f,y,y,2019_Jul_15_1442,2AFC_task,59.91460968279924,
stimuli/rgb_scene000042_render000003.png,stimuli/rgb_scene000042_render000004.png,1,66,276,15,"[0, 1]",right,1,77,25,f,y,y,2019_Jul_15_1442,2AFC_task,59.91460968279924,
stimuli/rgb_scene000147_render000001.png,stimuli/rgb_scene000147_render000003.png,1,67,277,91,"[0, 1]",right,1,77,25,f,y,y,2019_Jul_15_1442,2AFC_task,59.91460968279924,
stimuli/rgb_scene000150_render000001.png,stimuli/rgb_scene000150_render000002.png,1,68,278,111,"[0, 1]",right,1,77,25,f,y,y,2019_Jul_15_1442,2AFC_task,59.91460968279924,
stimuli/rgb_scene000196_render000000.png,stimuli/rgb_scene000196_render000002.png,1,69,279,190,"[0, 1]",right,1,77,25,f,y,y,2019_Jul_15_1442,2AFC_task,59.91460968279924,
stimuli/rgb_scene000160_render000001.png,stimuli/rgb_scene000160_render000006.png,1,70,280,136,"[1, 0]",left,1,77,25,f,y,y,2019_Jul_15_1442,2AFC_task,59.91460968279924,
stimuli/rgb_scene000150_render000001.png,stimuli/rgb_scene000150_render000003.png,1,71,281,112,"[1, 0]",left,1,77,25,f,y,y,2019_Jul_15_1442,2AFC_task,59.91460968279924,
stimuli/rgb_scene000047_render000002.png,stimuli/rgb_scene000047_render000005.png,1,72,282,34,"[1, 0]",left,1,77,25,f,y,y,2019_Jul_15_1442,2AFC_task,59.91460968279924,
stimuli/rgb_scene000147_render000002.png,stimuli/rgb_scene000147_render000005.png,1,73,283,97,"[0, 1]",right,1,77,25,f,y,y,2019_Jul_15_1442,2AFC_task,59.91460968279924,
stimuli/rgb_scene000169_render000002.png,stimuli/rgb_scene000169_render000004.png,1,74,284,180,"[1, 0]",right,0,77,25,f,y,y,2019_Jul_15_1442,2AFC_task,59.91460968279924,
stimuli/rgb_scene000147_render000000.png,stimuli/rgb_scene000147_render000004.png,1,75,285,87,"[0, 1]",right,1,77,25,f,y,y,2019_Jul_15_1442,2AFC_task,59.91460968279924,
stimuli/rgb_scene000147_render000004.png,stimuli/rgb_scene000147_render000006.png,1,76,286,103,"[0, 1]",right,1,77,25,f,y,y,2019_Jul_15_1442,2AFC_task,59.91460968279924,
stimuli/rgb_scene000165_render000004.png,stimuli/rgb_scene000165_render000005.png,1,77,287,165,"[0, 1]",right,1,77,25,f,y,y,2019_Jul_15_1442,2AFC_task,59.91460968279924,
stimuli/rgb_scene000066_render000001.png,stimuli/rgb_scene000066_render000003.png,1,78,288,70,"[1, 0]",left,1,77,25,f,y,y,2019_Jul_15_1442,2AFC_task,59.91460968279924,
stimuli/rgb_scene000160_render000000.png,stimuli/rgb_scene000160_render000005.png,1,79,289,130,"[0, 1]",right,1,77,25,f,y,y,2019_Jul_15_1442,2AFC_task,59.91460968279924,
stimuli/rgb_scene000165_render000000.png,stimuli/rgb_scene000165_render000001.png,1,80,290,147,"[0, 1]",right,1,77,25,f,y,y,2019_Jul_15_1442,2AFC_task,59.91460968279924,
stimuli/rgb_scene000150_render000000.png,stimuli/rgb_scene000150_render000001.png,1,81,291,105,"[0, 1]",right,1,77,25,f,y,y,2019_Jul_15_1442,2AFC_task,59.91460968279924,
stimuli/rgb_scene000066_render000003.png,stimuli/rgb_scene000066_render000005.png,1,82,292,79,"[0, 1]",right,1,77,25,f,y,y,2019_Jul_15_1442,2AFC_task,59.91460968279924,
stimuli/rgb_scene000196_render000004.png,stimuli/rgb_scene000196_render000006.png,1,83,293,208,"[1, 0]",right,0,77,25,f,y,y,2019_Jul_15_1442,2AFC_task,59.91460968279924,
stimuli/rgb_scene000150_render000003.png,stimuli/rgb_scene000150_render000004.png,1,84,294,120,"[1, 0]",left,1,77,25,f,y,y,2019_Jul_15_1442,2AFC_task,59.91460968279924,
stimuli/rgb_scene000042_render000000.png,stimuli/rgb_scene000042_render000006.png,1,85,295,5,"[0, 1]",right,1,77,25,f,y,y,2019_Jul_15_1442,2AFC_task,59.91460968279924,
stimuli/rgb_scene000147_render000001.png,stimuli/rgb_scene000147_render000004.png,1,86,296,92,"[0, 1]",right,1,77,25,f,y,y,2019_Jul_15_1442,2AFC_task,59.91460968279924,
stimuli/rgb_scene000042_render000000.png,stimuli/rgb_scene000042_render000002.png,1,87,297,1,"[1, 0]",left,1,77,25,f,y,y,2019_Jul_15_1442,2AFC_task,59.91460968279924,
stimuli/rgb_scene000150_render000000.png,stimuli/rgb_scene000150_render000002.png,1,88,298,106,"[0, 1]",right,1,77,25,f,y,y,2019_Jul_15_1442,2AFC_task,59.91460968279924,
stimuli/rgb_scene000147_render000004.png,stimuli/rgb_scene000147_render000005.png,1,89,299,102,"[0, 1]",right,1,77,25,f,y,y,2019_Jul_15_1442,2AFC_task,59.91460968279924,
stimuli/rgb_scene000042_render000002.png,stimuli/rgb_scene000042_render000004.png,1,90,300,12,"[1, 0]",left,1,77,25,f,y,y,2019_Jul_15_1442,2AFC_task,59.91460968279924,
stimuli/rgb_scene000066_render000002.png,stimuli/rgb_scene000066_render000006.png,1,91,301,77,"[0, 1]",right,1,77,25,f,y,y,2019_Jul_15_1442,2AFC_task,59.91460968279924,
stimuli/rgb_scene000066_render000000.png,stimuli/rgb_scene000066_render000002.png,1,92,302,64,"[0, 1]",right,1,77,25,f,y,y,2019_Jul_15_1442,2AFC_task,59.91460968279924,
stimuli/rgb_scene000196_render000000.png,stimuli/rgb_scene000196_render000006.png,1,93,303,194,"[1, 0]",left,1,77,25,f,y,y,2019_Jul_15_1442,2AFC_task,59.91460968279924,
stimuli/rgb_scene000042_render000000.png,stimuli/rgb_scene000042_render000003.png,1,94,304,2,"[0, 1]",right,1,77,25,f,y,y,2019_Jul_15_1442,2AFC_task,59.91460968279924,
stimuli/rgb_scene000160_render000003.png,stimuli/rgb_scene000160_render000006.png,1,95,305,143,"[1, 0]",left,1,77,25,f,y,y,2019_Jul_15_1442,2AFC_task,59.91460968279924,
stimuli/rgb_scene000150_render000001.png,stimuli/rgb_scene000150_render000005.png,1,96,306,114,"[0, 1]",right,1,77,25,f,y,y,2019_Jul_15_1442,2AFC_task,59.91460968279924,
stimuli/rgb_scene000165_render000000.png,stimuli/rgb_scene000165_render000004.png,1,97,307,150,"[0, 1]",right,1,77,25,f,y,y,2019_Jul_15_1442,2AFC_task,59.91460968279924,
stimuli/rgb_scene000042_render000000.png,stimuli/rgb_scene000042_render000005.png,1,98,308,4,"[0, 1]",right,1,77,25,f,y,y,2019_Jul_15_1442,2AFC_task,59.91460968279924,
stimuli/rgb_scene000042_render000002.png,stimuli/rgb_scene000042_render000005.png,1,99,309,13,"[1, 0]",left,1,77,25,f,y,y,2019_Jul_15_1442,2AFC_task,59.91460968279924,
stimuli/rgb_scene000196_render000002.png,stimuli/rgb_scene000196_render000005.png,1,100,310,202,"[0, 1]",right,1,77,25,f,y,y,2019_Jul_15_1442,2AFC_task,59.91460968279924,
stimuli/rgb_scene000147_render000000.png,stimuli/rgb_scene000147_render000002.png,1,101,311,85,"[0, 1]",right,1,77,25,f,y,y,2019_Jul_15_1442,2AFC_task,59.91460968279924,
stimuli/rgb_scene000160_render000001.png,stimuli/rgb_scene000160_render000002.png,1,102,312,132,"[0, 1]",right,1,77,25,f,y,y,2019_Jul_15_1442,2AFC_task,59.91460968279924,
stimuli/rgb_scene000160_render000002.png,stimuli/rgb_scene000160_render000004.png,1,103,313,138,"[0, 1]",right,1,77,25,f,y,y,2019_Jul_15_1442,2AFC_task,59.91460968279924,
stimuli/rgb_scene000066_render000003.png,stimuli/rgb_scene000066_render000006.png,1,104,314,80,"[1, 0]",left,1,77,25,f,y,y,2019_Jul_15_1442,2AFC_task,59.91460968279924,
stimuli/rgb_scene000056_render000001.png,stimuli/rgb_scene000056_render000005.png,1,105,315,51,"[0, 1]",right,1,77,25,f,y,y,2019_Jul_15_1442,2AFC_task,59.91460968279924,
stimuli/rgb_scene000169_render000001.png,stimuli/rgb_scene000169_render000003.png,1,106,316,175,"[0, 1]",right,1,77,25,f,y,y,2019_Jul_15_1442,2AFC_task,59.91460968279924,
stimuli/rgb_scene000169_render000004.png,stimuli/rgb_scene000169_render000005.png,1,107,317,186,"[0, 1]",right,1,77,25,f,y,y,2019_Jul_15_1442,2AFC_task,59.91460968279924,
stimuli/rgb_scene000066_render000001.png,stimuli/rgb_scene000066_render000004.png,1,108,318,71,"[0, 1]",right,1,77,25,f,y,y,2019_Jul_15_1442,2AFC_task,59.91460968279924,
stimuli/rgb_scene000169_render000003.png,stimuli/rgb_scene000169_render000006.png,1,109,319,185,"[1, 0]",left,1,77,25,f,y,y,2019_Jul_15_1442,2AFC_task,59.91460968279924,
stimuli/rgb_scene000169_render000003.png,stimuli/rgb_scene000169_render000005.png,1,110,320,184,"[0, 1]",right,1,77,25,f,y,y,2019_Jul_15_1442,2AFC_task,59.91460968279924,
stimuli/rgb_scene000147_render000003.png,stimuli/rgb_scene000147_render000006.png,1,111,321,101,"[0, 1]",right,1,77,25,f,y,y,2019_Jul_15_1442,2AFC_task,59.91460968279924,
stimuli/rgb_scene000150_render000003.png,stimuli/rgb_scene000150_render000005.png,1,112,322,121,"[0, 1]",right,1,77,25,f,y,y,2019_Jul_15_1442,2AFC_task,59.91460968279924,
stimuli/rgb_scene000165_render000000.png,stimuli/rgb_scene000165_render000003.png,1,113,323,149,"[0, 1]",right,1,77,25,f,y,y,2019_Jul_15_1442,2AFC_task,59.91460968279924,
stimuli/rgb_scene000169_render000002.png,stimuli/rgb_scene000169_render000005.png,1,114,324,181,"[1, 0]",left,1,77,25,f,y,y,2019_Jul_15_1442,2AFC_task,59.91460968279924,
stimuli/rgb_scene000066_render000001.png,stimuli/rgb_scene000066_render000006.png,1,115,325,73,"[0, 1]",right,1,77,25,f,y,y,2019_Jul_15_1442,2AFC_task,59.91460968279924,
stimuli/rgb_scene000056_render000005.png,stimuli/rgb_scene000056_render000006.png,1,116,326,62,"[0, 1]",right,1,77,25,f,y,y,2019_Jul_15_1442,2AFC_task,59.91460968279924,
stimuli/rgb_scene000165_render000001.png,stimuli/rgb_scene000165_render000005.png,1,117,327,156,"[1, 0]",left,1,77,25,f,y,y,2019_Jul_15_1442,2AFC_task,59.91460968279924,
stimuli/rgb_scene000160_render000004.png,stimuli/rgb_scene000160_render000005.png,1,118,328,144,"[0, 1]",right,1,77,25,f,y,y,2019_Jul_15_1442,2AFC_task,59.91460968279924,
stimuli/rgb_scene000165_render000003.png,stimuli/rgb_scene000165_render000005.png,1,119,329,163,"[0, 1]",right,1,77,25,f,y,y,2019_Jul_15_1442,2AFC_task,59.91460968279924,
stimuli/rgb_scene000165_render000000.png,stimuli/rgb_scene000165_render000002.png,1,120,330,148,"[1, 0]",left,1,77,25,f,y,y,2019_Jul_15_1442,2AFC_task,59.91460968279924,
stimuli/rgb_scene000147_render000001.png,stimuli/rgb_scene000147_render000005.png,1,121,331,93,"[1, 0]",left,1,77,25,f,y,y,2019_Jul_15_1442,2AFC_task,59.91460968279924,
stimuli/rgb_scene000169_render000005.png,stimuli/rgb_scene000169_render000006.png,1,122,332,188,"[0, 1]",right,1,77,25,f,y,y,2019_Jul_15_1442,2AFC_task,59.91460968279924,
stimuli/rgb_scene000056_render000001.png,stimuli/rgb_scene000056_render000002.png,1,123,333,48,"[0, 1]",right,1,77,25,f,y,y,2019_Jul_15_1442,2AFC_task,59.91460968279924,
stimuli/rgb_scene000056_render000002.png,stimuli/rgb_scene000056_render000005.png,1,124,334,55,"[1, 0]",left,1,77,25,f,y,y,2019_Jul_15_1442,2AFC_task,59.91460968279924,
stimuli/rgb_scene000147_render000001.png,stimuli/rgb_scene000147_render000006.png,1,125,335,94,"[0, 1]",right,1,77,25,f,y,y,2019_Jul_15_1442,2AFC_task,59.91460968279924,
stimuli/rgb_scene000047_render000000.png,stimuli/rgb_scene000047_render000003.png,1,126,336,23,"[1, 0]",left,1,77,25,f,y,y,2019_Jul_15_1442,2AFC_task,59.91460968279924,
stimuli/rgb_scene000150_render000000.png,stimuli/rgb_scene000150_render000004.png,1,127,337,108,"[0, 1]",right,1,77,25,f,y,y,2019_Jul_15_1442,2AFC_task,59.91460968279924,
stimuli/rgb_scene000150_render000001.png,stimuli/rgb_scene000150_render000004.png,1,128,338,113,"[1, 0]",left,1,77,25,f,y,y,2019_Jul_15_1442,2AFC_task,59.91460968279924,
stimuli/rgb_scene000047_render000001.png,stimuli/rgb_scene000047_render000002.png,1,129,339,27,"[0, 1]",right,1,77,25,f,y,y,2019_Jul_15_1442,2AFC_task,59.91460968279924,
stimuli/rgb_scene000150_render000001.png,stimuli/rgb_scene000150_render000006.png,1,130,340,115,"[1, 0]",left,1,77,25,f,y,y,2019_Jul_15_1442,2AFC_task,59.91460968279924,
stimuli/rgb_scene000160_render000000.png,stimuli/rgb_scene000160_render000006.png,1,131,341,131,"[1, 0]",left,1,77,25,f,y,y,2019_Jul_15_1442,2AFC_task,59.91460968279924,
stimuli/rgb_scene000056_render000003.png,stimuli/rgb_scene000056_render000004.png,1,132,342,57,"[1, 0]",left,1,77,25,f,y,y,2019_Jul_15_1442,2AFC_task,59.91460968279924,
stimuli/rgb_scene000160_render000000.png,stimuli/rgb_scene000160_render000004.png,1,133,343,129,"[1, 0]",left,1,77,25,f,y,y,2019_Jul_15_1442,2AFC_task,59.91460968279924,
stimuli/rgb_scene000047_render000000.png,stimuli/rgb_scene000047_render000005.png,1,134,344,25,"[1, 0]",left,1,77,25,f,y,y,2019_Jul_15_1442,2AFC_task,59.91460968279924,
stimuli/rgb_scene000066_render000000.png,stimuli/rgb_scene000066_render000005.png,1,135,345,67,"[0, 1]",right,1,77,25,f,y,y,2019_Jul_15_1442,2AFC_task,59.91460968279924,
stimuli/rgb_scene000169_render000001.png,stimuli/rgb_scene000169_render000004.png,1,136,346,176,"[1, 0]",left,1,77,25,f,y,y,2019_Jul_15_1442,2AFC_task,59.91460968279924,
stimuli/rgb_scene000160_render000001.png,stimuli/rgb_scene000160_render000005.png,1,137,347,135,"[1, 0]",left,1,77,25,f,y,y,2019_Jul_15_1442,2AFC_task,59.91460968279924,
stimuli/rgb_scene000169_render000004.png,stimuli/rgb_scene000169_render000006.png,1,138,348,187,"[0, 1]",right,1,77,25,f,y,y,2019_Jul_15_1442,2AFC_task,59.91460968279924,
stimuli/rgb_scene000165_render000004.png,stimuli/rgb_scene000165_render000006.png,1,139,349,166,"[1, 0]",left,1,77,25,f,y,y,2019_Jul_15_1442,2AFC_task,59.91460968279924,
stimuli/rgb_scene000169_render000001.png,stimuli/rgb_scene000169_render000002.png,1,140,350,174,"[0, 1]",right,1,77,25,f,y,y,2019_Jul_15_1442,2AFC_task,59.91460968279924,
stimuli/rgb_scene000066_render000001.png,stimuli/rgb_scene000066_render000005.png,1,141,351,72,"[0, 1]",right,1,77,25,f,y,y,2019_Jul_15_1442,2AFC_task,59.91460968279924,
stimuli/rgb_scene000196_render000001.png,stimuli/rgb_scene000196_render000003.png,1,142,352,196,"[1, 0]",left,1,77,25,f,y,y,2019_Jul_15_1442,2AFC_task,59.91460968279924,
stimuli/rgb_scene000169_render000000.png,stimuli/rgb_scene000169_render000006.png,1,143,353,173,"[1, 0]",right,0,77,25,f,y,y,2019_Jul_15_1442,2AFC_task,59.91460968279924,
stimuli/rgb_scene000047_render000000.png,stimuli/rgb_scene000047_render000004.png,1,144,354,24,"[1, 0]",left,1,77,25,f,y,y,2019_Jul_15_1442,2AFC_task,59.91460968279924,
stimuli/rgb_scene000147_render000000.png,stimuli/rgb_scene000147_render000003.png,1,145,355,86,"[1, 0]",left,1,77,25,f,y,y,2019_Jul_15_1442,2AFC_task,59.91460968279924,
stimuli/rgb_scene000169_render000000.png,stimuli/rgb_scene000169_render000002.png,1,146,356,169,"[0, 1]",right,1,77,25,f,y,y,2019_Jul_15_1442,2AFC_task,59.91460968279924,
stimuli/rgb_scene000047_render000004.png,stimuli/rgb_scene000047_render000005.png,1,147,357,39,"[1, 0]",left,1,77,25,f,y,y,2019_Jul_15_1442,2AFC_task,59.91460968279924,
stimuli/rgb_scene000147_render000002.png,stimuli/rgb_scene000147_render000003.png,1,148,358,95,"[1, 0]",left,1,77,25,f,y,y,2019_Jul_15_1442,2AFC_task,59.91460968279924,
stimuli/rgb_scene000066_render000001.png,stimuli/rgb_scene000066_render000002.png,1,149,359,69,"[1, 0]",left,1,77,25,f,y,y,2019_Jul_15_1442,2AFC_task,59.91460968279924,
stimuli/rgb_scene000056_render000002.png,stimuli/rgb_scene000056_render000006.png,1,150,360,56,"[1, 0]",left,1,77,25,f,y,y,2019_Jul_15_1442,2AFC_task,59.91460968279924,
stimuli/rgb_scene000042_render000000.png,stimuli/rgb_scene000042_render000004.png,1,151,361,3,"[1, 0]",left,1,77,25,f,y,y,2019_Jul_15_1442,2AFC_task,59.91460968279924,
stimuli/rgb_scene000169_render000000.png,stimuli/rgb_scene000169_render000004.png,1,152,362,171,"[1, 0]",left,1,77,25,f,y,y,2019_Jul_15_1442,2AFC_task,59.91460968279924,
stimuli/rgb_scene000165_render000000.png,stimuli/rgb_scene000165_render000006.png,1,153,363,152,"[1, 0]",left,1,77,25,f,y,y,2019_Jul_15_1442,2AFC_task,59.91460968279924,
stimuli/rgb_scene000169_render000002.png,stimuli/rgb_scene000169_render000003.png,1,154,364,179,"[1, 0]",right,0,77,25,f,y,y,2019_Jul_15_1442,2AFC_task,59.91460968279924,
stimuli/rgb_scene000160_render000003.png,stimuli/rgb_scene000160_render000004.png,1,155,365,141,"[1, 0]",left,1,77,25,f,y,y,2019_Jul_15_1442,2AFC_task,59.91460968279924,
stimuli/rgb_scene000066_render000005.png,stimuli/rgb_scene000066_render000006.png,1,156,366,83,"[0, 1]",right,1,77,25,f,y,y,2019_Jul_15_1442,2AFC_task,59.91460968279924,
stimuli/rgb_scene000047_render000001.png,stimuli/rgb_scene000047_render000003.png,1,157,367,28,"[0, 1]",right,1,77,25,f,y,y,2019_Jul_15_1442,2AFC_task,59.91460968279924,
stimuli/rgb_scene000056_render000002.png,stimuli/rgb_scene000056_render000003.png,1,158,368,53,"[1, 0]",left,1,77,25,f,y,y,2019_Jul_15_1442,2AFC_task,59.91460968279924,
stimuli/rgb_scene000196_render000000.png,stimuli/rgb_scene000196_render000004.png,1,159,369,192,"[1, 0]",left,1,77,25,f,y,y,2019_Jul_15_1442,2AFC_task,59.91460968279924,
stimuli/rgb_scene000196_render000005.png,stimuli/rgb_scene000196_render000006.png,1,160,370,209,"[1, 0]",right,0,77,25,f,y,y,2019_Jul_15_1442,2AFC_task,59.91460968279924,
stimuli/rgb_scene000056_render000000.png,stimuli/rgb_scene000056_render000001.png,1,161,371,42,"[0, 1]",right,1,77,25,f,y,y,2019_Jul_15_1442,2AFC_task,59.91460968279924,
stimuli/rgb_scene000165_render000002.png,stimuli/rgb_scene000165_render000003.png,1,162,372,158,"[1, 0]",left,1,77,25,f,y,y,2019_Jul_15_1442,2AFC_task,59.91460968279924,
stimuli/rgb_scene000165_render000001.png,stimuli/rgb_scene000165_render000003.png,1,163,373,154,"[1, 0]",left,1,77,25,f,y,y,2019_Jul_15_1442,2AFC_task,59.91460968279924,
stimuli/rgb_scene000160_render000001.png,stimuli/rgb_scene000160_render000003.png,1,164,374,133,"[1, 0]",left,1,77,25,f,y,y,2019_Jul_15_1442,2AFC_task,59.91460968279924,
stimuli/rgb_scene000147_render000001.png,stimuli/rgb_scene000147_render000002.png,1,165,375,90,"[0, 1]",right,1,77,25,f,y,y,2019_Jul_15_1442,2AFC_task,59.91460968279924,
stimuli/rgb_scene000047_render000000.png,stimuli/rgb_scene000047_render000006.png,1,166,376,26,"[1, 0]",left,1,77,25,f,y,y,2019_Jul_15_1442,2AFC_task,59.91460968279924,
stimuli/rgb_scene000047_render000000.png,stimuli/rgb_scene000047_render000002.png,1,167,377,22,"[1, 0]",left,1,77,25,f,y,y,2019_Jul_15_1442,2AFC_task,59.91460968279924,
stimuli/rgb_scene000160_render000004.png,stimuli/rgb_scene000160_render000006.png,1,168,378,145,"[0, 1]",right,1,77,25,f,y,y,2019_Jul_15_1442,2AFC_task,59.91460968279924,
stimuli/rgb_scene000056_render000000.png,stimuli/rgb_scene000056_render000006.png,1,169,379,47,"[1, 0]",left,1,77,25,f,y,y,2019_Jul_15_1442,2AFC_task,59.91460968279924,
stimuli/rgb_scene000047_render000001.png,stimuli/rgb_scene000047_render000005.png,1,170,380,30,"[1, 0]",left,1,77,25,f,y,y,2019_Jul_15_1442,2AFC_task,59.91460968279924,
stimuli/rgb_scene000169_render000000.png,stimuli/rgb_scene000169_render000001.png,1,171,381,168,"[1, 0]",left,1,77,25,f,y,y,2019_Jul_15_1442,2AFC_task,59.91460968279924,
stimuli/rgb_scene000047_render000000.png,stimuli/rgb_scene000047_render000001.png,1,172,382,21,"[0, 1]",right,1,77,25,f,y,y,2019_Jul_15_1442,2AFC_task,59.91460968279924,
stimuli/rgb_scene000196_render000001.png,stimuli/rgb_scene000196_render000004.png,1,173,383,197,"[1, 0]",left,1,77,25,f,y,y,2019_Jul_15_1442,2AFC_task,59.91460968279924,
stimuli/rgb_scene000147_render000000.png,stimuli/rgb_scene000147_render000006.png,1,174,384,89,"[0, 1]",right,1,77,25,f,y,y,2019_Jul_15_1442,2AFC_task,59.91460968279924,
stimuli/rgb_scene000147_render000000.png,stimuli/rgb_scene000147_render000001.png,1,175,385,84,"[0, 1]",right,1,77,25,f,y,y,2019_Jul_15_1442,2AFC_task,59.91460968279924,
stimuli/rgb_scene000165_render000002.png,stimuli/rgb_scene000165_render000006.png,1,176,386,161,"[0, 1]",right,1,77,25,f,y,y,2019_Jul_15_1442,2AFC_task,59.91460968279924,
stimuli/rgb_scene000160_render000001.png,stimuli/rgb_scene000160_render000004.png,1,177,387,134,"[1, 0]",right,0,77,25,f,y,y,2019_Jul_15_1442,2AFC_task,59.91460968279924,
stimuli/rgb_scene000066_render000000.png,stimuli/rgb_scene000066_render000003.png,1,178,388,65,"[1, 0]",left,1,77,25,f,y,y,2019_Jul_15_1442,2AFC_task,59.91460968279924,
stimuli/rgb_scene000056_render000000.png,stimuli/rgb_scene000056_render000005.png,1,179,389,46,"[0, 1]",right,1,77,25,f,y,y,2019_Jul_15_1442,2AFC_task,59.91460968279924,
stimuli/rgb_scene000047_render000005.png,stimuli/rgb_scene000047_render000006.png,1,180,390,41,"[1, 0]",left,1,77,25,f,y,y,2019_Jul_15_1442,2AFC_task,59.91460968279924,
stimuli/rgb_scene000042_render000004.png,stimuli/rgb_scene000042_render000005.png,1,181,391,18,"[1, 0]",left,1,77,25,f,y,y,2019_Jul_15_1442,2AFC_task,59.91460968279924,
stimuli/rgb_scene000196_render000000.png,stimuli/rgb_scene000196_render000001.png,1,182,392,189,"[1, 0]",left,1,77,25,f,y,y,2019_Jul_15_1442,2AFC_task,59.91460968279924,
stimuli/rgb_scene000150_render000002.png,stimuli/rgb_scene000150_render000006.png,1,183,393,119,"[1, 0]",left,1,77,25,f,y,y,2019_Jul_15_1442,2AFC_task,59.91460968279924,
stimuli/rgb_scene000165_render000003.png,stimuli/rgb_scene000165_render000004.png,1,184,394,162,"[1, 0]",left,1,77,25,f,y,y,2019_Jul_15_1442,2AFC_task,59.91460968279924,
stimuli/rgb_scene000147_render000002.png,stimuli/rgb_scene000147_render000004.png,1,185,395,96,"[1, 0]",left,1,77,25,f,y,y,2019_Jul_15_1442,2AFC_task,59.91460968279924,
stimuli/rgb_scene000056_render000003.png,stimuli/rgb_scene000056_render000005.png,1,186,396,58,"[1, 0]",left,1,77,25,f,y,y,2019_Jul_15_1442,2AFC_task,59.91460968279924,
stimuli/rgb_scene000042_render000005.png,stimuli/rgb_scene000042_render000006.png,1,187,397,20,"[1, 0]",left,1,77,25,f,y,y,2019_Jul_15_1442,2AFC_task,59.91460968279924,
stimuli/rgb_scene000150_render000002.png,stimuli/rgb_scene000150_render000003.png,1,188,398,116,"[0, 1]",right,1,77,25,f,y,y,2019_Jul_15_1442,2AFC_task,59.91460968279924,
stimuli/rgb_scene000169_render000001.png,stimuli/rgb_scene000169_render000005.png,1,189,399,177,"[1, 0]",left,1,77,25,f,y,y,2019_Jul_15_1442,2AFC_task,59.91460968279924,
stimuli/rgb_scene000047_render000001.png,stimuli/rgb_scene000047_render000004.png,1,190,400,29,"[0, 1]",right,1,77,25,f,y,y,2019_Jul_15_1442,2AFC_task,59.91460968279924,
stimuli/rgb_scene000056_render000001.png,stimuli/rgb_scene000056_render000004.png,1,191,401,50,"[0, 1]",right,1,77,25,f,y,y,2019_Jul_15_1442,2AFC_task,59.91460968279924,
stimuli/rgb_scene000165_render000001.png,stimuli/rgb_scene000165_render000006.png,1,192,402,157,"[0, 1]",right,1,77,25,f,y,y,2019_Jul_15_1442,2AFC_task,59.91460968279924,
stimuli/rgb_scene000056_render000001.png,stimuli/rgb_scene000056_render000003.png,1,193,403,49,"[0, 1]",right,1,77,25,f,y,y,2019_Jul_15_1442,2AFC_task,59.91460968279924,
stimuli/rgb_scene000169_render000000.png,stimuli/rgb_scene000169_render000003.png,1,194,404,170,"[0, 1]",right,1,77,25,f,y,y,2019_Jul_15_1442,2AFC_task,59.91460968279924,
stimuli/rgb_scene000066_render000002.png,stimuli/rgb_scene000066_render000003.png,1,195,405,74,"[0, 1]",right,1,77,25,f,y,y,2019_Jul_15_1442,2AFC_task,59.91460968279924,
stimuli/rgb_scene000150_render000002.png,stimuli/rgb_scene000150_render000004.png,1,196,406,117,"[0, 1]",right,1,77,25,f,y,y,2019_Jul_15_1442,2AFC_task,59.91460968279924,
stimuli/rgb_scene000047_render000003.png,stimuli/rgb_scene000047_render000006.png,1,197,407,38,"[0, 1]",right,1,77,25,f,y,y,2019_Jul_15_1442,2AFC_task,59.91460968279924,
stimuli/rgb_scene000047_render000002.png,stimuli/rgb_scene000047_render000006.png,1,198,408,35,"[0, 1]",right,1,77,25,f,y,y,2019_Jul_15_1442,2AFC_task,59.91460968279924,
stimuli/rgb_scene000047_render000001.png,stimuli/rgb_scene000047_render000006.png,1,199,409,31,"[1, 0]",left,1,77,25,f,y,y,2019_Jul_15_1442,2AFC_task,59.91460968279924,
stimuli/rgb_scene000047_render000004.png,stimuli/rgb_scene000047_render000006.png,1,200,410,40,"[0, 1]",right,1,77,25,f,y,y,2019_Jul_15_1442,2AFC_task,59.91460968279924,
stimuli/rgb_scene000056_render000001.png,stimuli/rgb_scene000056_render000006.png,1,201,411,52,"[0, 1]",right,1,77,25,f,y,y,2019_Jul_15_1442,2AFC_task,59.91460968279924,
stimuli/rgb_scene000066_render000002.png,stimuli/rgb_scene000066_render000005.png,1,202,412,76,"[1, 0]",left,1,77,25,f,y,y,2019_Jul_15_1442,2AFC_task,59.91460968279924,
stimuli/rgb_scene000042_render000002.png,stimuli/rgb_scene000042_render000003.png,1,203,413,11,"[1, 0]",left,1,77,25,f,y,y,2019_Jul_15_1442,2AFC_task,59.91460968279924,
stimuli/rgb_scene000169_render000001.png,stimuli/rgb_scene000169_render000006.png,1,204,414,178,"[1, 0]",left,1,77,25,f,y,y,2019_Jul_15_1442,2AFC_task,59.91460968279924,
stimuli/rgb_scene000147_render000000.png,stimuli/rgb_scene000147_render000005.png,1,205,415,88,"[0, 1]",right,1,77,25,f,y,y,2019_Jul_15_1442,2AFC_task,59.91460968279924,
stimuli/rgb_scene000165_render000002.png,stimuli/rgb_scene000165_render000004.png,1,206,416,159,"[1, 0]",left,1,77,25,f,y,y,2019_Jul_15_1442,2AFC_task,59.91460968279924,
stimuli/rgb_scene000066_render000003.png,stimuli/rgb_scene000066_render000004.png,1,207,417,78,"[1, 0]",left,1,77,25,f,y,y,2019_Jul_15_1442,2AFC_task,59.91460968279924,
stimuli/rgb_scene000047_render000003.png,stimuli/rgb_scene000047_render000004.png,1,208,418,36,"[0, 1]",right,1,77,25,f,y,y,2019_Jul_15_1442,2AFC_task,59.91460968279924,
stimuli/rgb_scene000147_render000003.png,stimuli/rgb_scene000147_render000004.png,1,209,419,99,"[1, 0]",left,1,77,25,f,y,y,2019_Jul_15_1442,2AFC_task,59.91460968279924,
