stimOne,stimTwo,trials_1.thisRepN,trials_1.thisTrialN,trials_1.thisN,trials_1.thisIndex,presentation_positions,resp_key,corresponding_image,participant ID (two digits, e.g. 01),age,gender (m/f/-),normal or corrected-to-normal vision (y/n),normal colour vision (y/n),date,expName,frameRate,
stimuli/rgb_scene000196_render000000.png,stimuli/rgb_scene000196_render000003.png,0,0,0,191,"[1, 0]",left,1,82,29,f,y,y,2019_Jul_16_1347,2AFC_task,60.00571253144645,
stimuli/rgb_scene000196_render000003.png,stimuli/rgb_scene000196_render000005.png,0,1,1,205,"[0, 1]",right,1,82,29,f,y,y,2019_Jul_16_1347,2AFC_task,60.00571253144645,
stimuli/rgb_scene000056_render000001.png,stimuli/rgb_scene000056_render000005.png,0,2,2,51,"[0, 1]",right,1,82,29,f,y,y,2019_Jul_16_1347,2AFC_task,60.00571253144645,
stimuli/rgb_scene000147_render000004.png,stimuli/rgb_scene000147_render000006.png,0,3,3,103,"[0, 1]",right,1,82,29,f,y,y,2019_Jul_16_1347,2AFC_task,60.00571253144645,
stimuli/rgb_scene000066_render000003.png,stimuli/rgb_scene000066_render000006.png,0,4,4,80,"[0, 1]",right,1,82,29,f,y,y,2019_Jul_16_1347,2AFC_task,60.00571253144645,
stimuli/rgb_scene000196_render000000.png,stimuli/rgb_scene000196_render000006.png,0,5,5,194,"[0, 1]",right,1,82,29,f,y,y,2019_Jul_16_1347,2AFC_task,60.00571253144645,
stimuli/rgb_scene000165_render000000.png,stimuli/rgb_scene000165_render000003.png,0,6,6,149,"[0, 1]",right,1,82,29,f,y,y,2019_Jul_16_1347,2AFC_task,60.00571253144645,
stimuli/rgb_scene000066_render000001.png,stimuli/rgb_scene000066_render000006.png,0,7,7,73,"[0, 1]",right,1,82,29,f,y,y,2019_Jul_16_1347,2AFC_task,60.00571253144645,
stimuli/rgb_scene000160_render000000.png,stimuli/rgb_scene000160_render000006.png,0,8,8,131,"[1, 0]",left,1,82,29,f,y,y,2019_Jul_16_1347,2AFC_task,60.00571253144645,
stimuli/rgb_scene000160_render000002.png,stimuli/rgb_scene000160_render000005.png,0,9,9,139,"[0, 1]",right,1,82,29,f,y,y,2019_Jul_16_1347,2AFC_task,60.00571253144645,
stimuli/rgb_scene000066_render000002.png,stimuli/rgb_scene000066_render000004.png,0,10,10,75,"[0, 1]",right,1,82,29,f,y,y,2019_Jul_16_1347,2AFC_task,60.00571253144645,
stimuli/rgb_scene000165_render000002.png,stimuli/rgb_scene000165_render000003.png,0,11,11,158,"[1, 0]",left,1,82,29,f,y,y,2019_Jul_16_1347,2AFC_task,60.00571253144645,
stimuli/rgb_scene000047_render000001.png,stimuli/rgb_scene000047_render000002.png,0,12,12,27,"[0, 1]",right,1,82,29,f,y,y,2019_Jul_16_1347,2AFC_task,60.00571253144645,
stimuli/rgb_scene000165_render000005.png,stimuli/rgb_scene000165_render000006.png,0,13,13,167,"[1, 0]",left,1,82,29,f,y,y,2019_Jul_16_1347,2AFC_task,60.00571253144645,
stimuli/rgb_scene000196_render000000.png,stimuli/rgb_scene000196_render000001.png,0,14,14,189,"[1, 0]",left,1,82,29,f,y,y,2019_Jul_16_1347,2AFC_task,60.00571253144645,
stimuli/rgb_scene000169_render000002.png,stimuli/rgb_scene000169_render000003.png,0,15,15,179,"[0, 1]",right,1,82,29,f,y,y,2019_Jul_16_1347,2AFC_task,60.00571253144645,
stimuli/rgb_scene000160_render000003.png,stimuli/rgb_scene000160_render000006.png,0,16,16,143,"[0, 1]",right,1,82,29,f,y,y,2019_Jul_16_1347,2AFC_task,60.00571253144645,
stimuli/rgb_scene000160_render000000.png,stimuli/rgb_scene000160_render000004.png,0,17,17,129,"[1, 0]",left,1,82,29,f,y,y,2019_Jul_16_1347,2AFC_task,60.00571253144645,
stimuli/rgb_scene000042_render000003.png,stimuli/rgb_scene000042_render000006.png,0,18,18,17,"[0, 1]",right,1,82,29,f,y,y,2019_Jul_16_1347,2AFC_task,60.00571253144645,
stimuli/rgb_scene000066_render000005.png,stimuli/rgb_scene000066_render000006.png,0,19,19,83,"[0, 1]",right,1,82,29,f,y,y,2019_Jul_16_1347,2AFC_task,60.00571253144645,
stimuli/rgb_scene000196_render000004.png,stimuli/rgb_scene000196_render000005.png,0,20,20,207,"[1, 0]",left,1,82,29,f,y,y,2019_Jul_16_1347,2AFC_task,60.00571253144645,
stimuli/rgb_scene000150_render000004.png,stimuli/rgb_scene000150_render000005.png,0,21,21,123,"[0, 1]",right,1,82,29,f,y,y,2019_Jul_16_1347,2AFC_task,60.00571253144645,
stimuli/rgb_scene000196_render000000.png,stimuli/rgb_scene000196_render000004.png,0,22,22,192,"[1, 0]",left,1,82,29,f,y,y,2019_Jul_16_1347,2AFC_task,60.00571253144645,
stimuli/rgb_scene000066_render000000.png,stimuli/rgb_scene000066_render000005.png,0,23,23,67,"[0, 1]",right,1,82,29,f,y,y,2019_Jul_16_1347,2AFC_task,60.00571253144645,
stimuli/rgb_scene000150_render000004.png,stimuli/rgb_scene000150_render000006.png,0,24,24,124,"[0, 1]",right,1,82,29,f,y,y,2019_Jul_16_1347,2AFC_task,60.00571253144645,
stimuli/rgb_scene000169_render000005.png,stimuli/rgb_scene000169_render000006.png,0,25,25,188,"[0, 1]",right,1,82,29,f,y,y,2019_Jul_16_1347,2AFC_task,60.00571253144645,
stimuli/rgb_scene000066_render000004.png,stimuli/rgb_scene000066_render000006.png,0,26,26,82,"[0, 1]",right,1,82,29,f,y,y,2019_Jul_16_1347,2AFC_task,60.00571253144645,
stimuli/rgb_scene000150_render000002.png,stimuli/rgb_scene000150_render000003.png,0,27,27,116,"[1, 0]",left,1,82,29,f,y,y,2019_Jul_16_1347,2AFC_task,60.00571253144645,
stimuli/rgb_scene000042_render000005.png,stimuli/rgb_scene000042_render000006.png,0,28,28,20,"[0, 1]",right,1,82,29,f,y,y,2019_Jul_16_1347,2AFC_task,60.00571253144645,
stimuli/rgb_scene000160_render000003.png,stimuli/rgb_scene000160_render000005.png,0,29,29,142,"[1, 0]",left,1,82,29,f,y,y,2019_Jul_16_1347,2AFC_task,60.00571253144645,
stimuli/rgb_scene000169_render000001.png,stimuli/rgb_scene000169_render000004.png,0,30,30,176,"[0, 1]",right,1,82,29,f,y,y,2019_Jul_16_1347,2AFC_task,60.00571253144645,
stimuli/rgb_scene000196_render000001.png,stimuli/rgb_scene000196_render000004.png,0,31,31,197,"[1, 0]",left,1,82,29,f,y,y,2019_Jul_16_1347,2AFC_task,60.00571253144645,
stimuli/rgb_scene000056_render000000.png,stimuli/rgb_scene000056_render000001.png,0,32,32,42,"[0, 1]",right,1,82,29,f,y,y,2019_Jul_16_1347,2AFC_task,60.00571253144645,
stimuli/rgb_scene000196_render000000.png,stimuli/rgb_scene000196_render000002.png,0,33,33,190,"[0, 1]",right,1,82,29,f,y,y,2019_Jul_16_1347,2AFC_task,60.00571253144645,
stimuli/rgb_scene000147_render000001.png,stimuli/rgb_scene000147_render000003.png,0,34,34,91,"[1, 0]",left,1,82,29,f,y,y,2019_Jul_16_1347,2AFC_task,60.00571253144645,
stimuli/rgb_scene000042_render000004.png,stimuli/rgb_scene000042_render000006.png,0,35,35,19,"[0, 1]",right,1,82,29,f,y,y,2019_Jul_16_1347,2AFC_task,60.00571253144645,
stimuli/rgb_scene000169_render000000.png,stimuli/rgb_scene000169_render000005.png,0,36,36,172,"[0, 1]",right,1,82,29,f,y,y,2019_Jul_16_1347,2AFC_task,60.00571253144645,
stimuli/rgb_scene000042_render000000.png,stimuli/rgb_scene000042_render000002.png,0,37,37,1,"[0, 1]",right,1,82,29,f,y,y,2019_Jul_16_1347,2AFC_task,60.00571253144645,
stimuli/rgb_scene000196_render000002.png,stimuli/rgb_scene000196_render000004.png,0,38,38,201,"[0, 1]",right,1,82,29,f,y,y,2019_Jul_16_1347,2AFC_task,60.00571253144645,
stimuli/rgb_scene000056_render000002.png,stimuli/rgb_scene000056_render000006.png,0,39,39,56,"[1, 0]",left,1,82,29,f,y,y,2019_Jul_16_1347,2AFC_task,60.00571253144645,
stimuli/rgb_scene000056_render000001.png,stimuli/rgb_scene000056_render000002.png,0,40,40,48,"[0, 1]",right,1,82,29,f,y,y,2019_Jul_16_1347,2AFC_task,60.00571253144645,
stimuli/rgb_scene000047_render000004.png,stimuli/rgb_scene000047_render000006.png,0,41,41,40,"[0, 1]",right,1,82,29,f,y,y,2019_Jul_16_1347,2AFC_task,60.00571253144645,
stimuli/rgb_scene000042_render000001.png,stimuli/rgb_scene000042_render000006.png,0,42,42,10,"[1, 0]",left,1,82,29,f,y,y,2019_Jul_16_1347,2AFC_task,60.00571253144645,
stimuli/rgb_scene000066_render000001.png,stimuli/rgb_scene000066_render000002.png,0,43,43,69,"[0, 1]",right,1,82,29,f,y,y,2019_Jul_16_1347,2AFC_task,60.00571253144645,
stimuli/rgb_scene000150_render000000.png,stimuli/rgb_scene000150_render000005.png,0,44,44,109,"[1, 0]",left,1,82,29,f,y,y,2019_Jul_16_1347,2AFC_task,60.00571253144645,
stimuli/rgb_scene000150_render000002.png,stimuli/rgb_scene000150_render000005.png,0,45,45,118,"[0, 1]",right,1,82,29,f,y,y,2019_Jul_16_1347,2AFC_task,60.00571253144645,
stimuli/rgb_scene000160_render000005.png,stimuli/rgb_scene000160_render000006.png,0,46,46,146,"[0, 1]",right,1,82,29,f,y,y,2019_Jul_16_1347,2AFC_task,60.00571253144645,
stimuli/rgb_scene000165_render000002.png,stimuli/rgb_scene000165_render000006.png,0,47,47,161,"[1, 0]",left,1,82,29,f,y,y,2019_Jul_16_1347,2AFC_task,60.00571253144645,
stimuli/rgb_scene000150_render000000.png,stimuli/rgb_scene000150_render000006.png,0,48,48,110,"[0, 1]",right,1,82,29,f,y,y,2019_Jul_16_1347,2AFC_task,60.00571253144645,
stimuli/rgb_scene000042_render000002.png,stimuli/rgb_scene000042_render000003.png,0,49,49,11,"[1, 0]",left,1,82,29,f,y,y,2019_Jul_16_1347,2AFC_task,60.00571253144645,
stimuli/rgb_scene000196_render000002.png,stimuli/rgb_scene000196_render000006.png,0,50,50,203,"[0, 1]",right,1,82,29,f,y,y,2019_Jul_16_1347,2AFC_task,60.00571253144645,
stimuli/rgb_scene000169_render000001.png,stimuli/rgb_scene000169_render000006.png,0,51,51,178,"[1, 0]",left,1,82,29,f,y,y,2019_Jul_16_1347,2AFC_task,60.00571253144645,
stimuli/rgb_scene000150_render000003.png,stimuli/rgb_scene000150_render000005.png,0,52,52,121,"[0, 1]",right,1,82,29,f,y,y,2019_Jul_16_1347,2AFC_task,60.00571253144645,
stimuli/rgb_scene000042_render000000.png,stimuli/rgb_scene000042_render000006.png,0,53,53,5,"[1, 0]",left,1,82,29,f,y,y,2019_Jul_16_1347,2AFC_task,60.00571253144645,
stimuli/rgb_scene000042_render000001.png,stimuli/rgb_scene000042_render000004.png,0,54,54,8,"[0, 1]",right,1,82,29,f,y,y,2019_Jul_16_1347,2AFC_task,60.00571253144645,
stimuli/rgb_scene000056_render000000.png,stimuli/rgb_scene000056_render000003.png,0,55,55,44,"[0, 1]",right,1,82,29,f,y,y,2019_Jul_16_1347,2AFC_task,60.00571253144645,
stimuli/rgb_scene000042_render000003.png,stimuli/rgb_scene000042_render000004.png,0,56,56,15,"[0, 1]",right,1,82,29,f,y,y,2019_Jul_16_1347,2AFC_task,60.00571253144645,
stimuli/rgb_scene000165_render000003.png,stimuli/rgb_scene000165_render000006.png,0,57,57,164,"[1, 0]",left,1,82,29,f,y,y,2019_Jul_16_1347,2AFC_task,60.00571253144645,
stimuli/rgb_scene000150_render000002.png,stimuli/rgb_scene000150_render000004.png,0,58,58,117,"[1, 0]",left,1,82,29,f,y,y,2019_Jul_16_1347,2AFC_task,60.00571253144645,
stimuli/rgb_scene000196_render000003.png,stimuli/rgb_scene000196_render000006.png,0,59,59,206,"[0, 1]",right,1,82,29,f,y,y,2019_Jul_16_1347,2AFC_task,60.00571253144645,
stimuli/rgb_scene000169_render000000.png,stimuli/rgb_scene000169_render000006.png,0,60,60,173,"[0, 1]",right,1,82,29,f,y,y,2019_Jul_16_1347,2AFC_task,60.00571253144645,
stimuli/rgb_scene000169_render000002.png,stimuli/rgb_scene000169_render000006.png,0,61,61,182,"[1, 0]",left,1,82,29,f,y,y,2019_Jul_16_1347,2AFC_task,60.00571253144645,
stimuli/rgb_scene000047_render000000.png,stimuli/rgb_scene000047_render000004.png,0,62,62,24,"[1, 0]",left,1,82,29,f,y,y,2019_Jul_16_1347,2AFC_task,60.00571253144645,
stimuli/rgb_scene000056_render000003.png,stimuli/rgb_scene000056_render000004.png,0,63,63,57,"[1, 0]",left,1,82,29,f,y,y,2019_Jul_16_1347,2AFC_task,60.00571253144645,
stimuli/rgb_scene000160_render000000.png,stimuli/rgb_scene000160_render000003.png,0,64,64,128,"[1, 0]",left,1,82,29,f,y,y,2019_Jul_16_1347,2AFC_task,60.00571253144645,
stimuli/rgb_scene000160_render000001.png,stimuli/rgb_scene000160_render000006.png,0,65,65,136,"[1, 0]",left,1,82,29,f,y,y,2019_Jul_16_1347,2AFC_task,60.00571253144645,
stimuli/rgb_scene000066_render000000.png,stimuli/rgb_scene000066_render000001.png,0,66,66,63,"[1, 0]",left,1,82,29,f,y,y,2019_Jul_16_1347,2AFC_task,60.00571253144645,
stimuli/rgb_scene000047_render000001.png,stimuli/rgb_scene000047_render000003.png,0,67,67,28,"[0, 1]",right,1,82,29,f,y,y,2019_Jul_16_1347,2AFC_task,60.00571253144645,
stimuli/rgb_scene000056_render000001.png,stimuli/rgb_scene000056_render000004.png,0,68,68,50,"[0, 1]",right,1,82,29,f,y,y,2019_Jul_16_1347,2AFC_task,60.00571253144645,
stimuli/rgb_scene000150_render000000.png,stimuli/rgb_scene000150_render000002.png,0,69,69,106,"[1, 0]",left,1,82,29,f,y,y,2019_Jul_16_1347,2AFC_task,60.00571253144645,
stimuli/rgb_scene000042_render000001.png,stimuli/rgb_scene000042_render000002.png,0,70,70,6,"[0, 1]",right,1,82,29,f,y,y,2019_Jul_16_1347,2AFC_task,60.00571253144645,
stimuli/rgb_scene000169_render000003.png,stimuli/rgb_scene000169_render000004.png,0,71,71,183,"[0, 1]",right,1,82,29,f,y,y,2019_Jul_16_1347,2AFC_task,60.00571253144645,
stimuli/rgb_scene000042_render000000.png,stimuli/rgb_scene000042_render000004.png,0,72,72,3,"[0, 1]",right,1,82,29,f,y,y,2019_Jul_16_1347,2AFC_task,60.00571253144645,
stimuli/rgb_scene000042_render000000.png,stimuli/rgb_scene000042_render000005.png,0,73,73,4,"[1, 0]",left,1,82,29,f,y,y,2019_Jul_16_1347,2AFC_task,60.00571253144645,
stimuli/rgb_scene000165_render000000.png,stimuli/rgb_scene000165_render000006.png,0,74,74,152,"[0, 1]",right,1,82,29,f,y,y,2019_Jul_16_1347,2AFC_task,60.00571253144645,
stimuli/rgb_scene000047_render000000.png,stimuli/rgb_scene000047_render000005.png,0,75,75,25,"[1, 0]",left,1,82,29,f,y,y,2019_Jul_16_1347,2AFC_task,60.00571253144645,
stimuli/rgb_scene000047_render000002.png,stimuli/rgb_scene000047_render000005.png,0,76,76,34,"[1, 0]",left,1,82,29,f,y,y,2019_Jul_16_1347,2AFC_task,60.00571253144645,
stimuli/rgb_scene000147_render000000.png,stimuli/rgb_scene000147_render000004.png,0,77,77,87,"[0, 1]",right,1,82,29,f,y,y,2019_Jul_16_1347,2AFC_task,60.00571253144645,
stimuli/rgb_scene000147_render000002.png,stimuli/rgb_scene000147_render000006.png,0,78,78,98,"[0, 1]",right,1,82,29,f,y,y,2019_Jul_16_1347,2AFC_task,60.00571253144645,
stimuli/rgb_scene000066_render000000.png,stimuli/rgb_scene000066_render000002.png,0,79,79,64,"[1, 0]",left,1,82,29,f,y,y,2019_Jul_16_1347,2AFC_task,60.00571253144645,
stimuli/rgb_scene000042_render000002.png,stimuli/rgb_scene000042_render000006.png,0,80,80,14,"[1, 0]",left,1,82,29,f,y,y,2019_Jul_16_1347,2AFC_task,60.00571253144645,
stimuli/rgb_scene000047_render000003.png,stimuli/rgb_scene000047_render000004.png,0,81,81,36,"[1, 0]",left,1,82,29,f,y,y,2019_Jul_16_1347,2AFC_task,60.00571253144645,
stimuli/rgb_scene000150_render000000.png,stimuli/rgb_scene000150_render000003.png,0,82,82,107,"[1, 0]",left,1,82,29,f,y,y,2019_Jul_16_1347,2AFC_task,60.00571253144645,
stimuli/rgb_scene000047_render000000.png,stimuli/rgb_scene000047_render000002.png,0,83,83,22,"[0, 1]",right,1,82,29,f,y,y,2019_Jul_16_1347,2AFC_task,60.00571253144645,
stimuli/rgb_scene000056_render000000.png,stimuli/rgb_scene000056_render000004.png,0,84,84,45,"[1, 0]",left,1,82,29,f,y,y,2019_Jul_16_1347,2AFC_task,60.00571253144645,
stimuli/rgb_scene000160_render000000.png,stimuli/rgb_scene000160_render000001.png,0,85,85,126,"[1, 0]",left,1,82,29,f,y,y,2019_Jul_16_1347,2AFC_task,60.00571253144645,
stimuli/rgb_scene000042_render000000.png,stimuli/rgb_scene000042_render000003.png,0,86,86,2,"[0, 1]",right,1,82,29,f,y,y,2019_Jul_16_1347,2AFC_task,60.00571253144645,
stimuli/rgb_scene000056_render000002.png,stimuli/rgb_scene000056_render000005.png,0,87,87,55,"[1, 0]",left,1,82,29,f,y,y,2019_Jul_16_1347,2AFC_task,60.00571253144645,
stimuli/rgb_scene000160_render000001.png,stimuli/rgb_scene000160_render000003.png,0,88,88,133,"[0, 1]",right,1,82,29,f,y,y,2019_Jul_16_1347,2AFC_task,60.00571253144645,
stimuli/rgb_scene000056_render000005.png,stimuli/rgb_scene000056_render000006.png,0,89,89,62,"[1, 0]",left,1,82,29,f,y,y,2019_Jul_16_1347,2AFC_task,60.00571253144645,
stimuli/rgb_scene000150_render000003.png,stimuli/rgb_scene000150_render000004.png,0,90,90,120,"[1, 0]",left,1,82,29,f,y,y,2019_Jul_16_1347,2AFC_task,60.00571253144645,
stimuli/rgb_scene000147_render000002.png,stimuli/rgb_scene000147_render000003.png,0,91,91,95,"[0, 1]",right,1,82,29,f,y,y,2019_Jul_16_1347,2AFC_task,60.00571253144645,
stimuli/rgb_scene000169_render000001.png,stimuli/rgb_scene000169_render000002.png,0,92,92,174,"[1, 0]",left,1,82,29,f,y,y,2019_Jul_16_1347,2AFC_task,60.00571253144645,
stimuli/rgb_scene000196_render000005.png,stimuli/rgb_scene000196_render000006.png,0,93,93,209,"[0, 1]",right,1,82,29,f,y,y,2019_Jul_16_1347,2AFC_task,60.00571253144645,
stimuli/rgb_scene000160_render000001.png,stimuli/rgb_scene000160_render000005.png,0,94,94,135,"[0, 1]",right,1,82,29,f,y,y,2019_Jul_16_1347,2AFC_task,60.00571253144645,
stimuli/rgb_scene000147_render000003.png,stimuli/rgb_scene000147_render000005.png,0,95,95,100,"[0, 1]",right,1,82,29,f,y,y,2019_Jul_16_1347,2AFC_task,60.00571253144645,
stimuli/rgb_scene000169_render000002.png,stimuli/rgb_scene000169_render000004.png,0,96,96,180,"[0, 1]",right,1,82,29,f,y,y,2019_Jul_16_1347,2AFC_task,60.00571253144645,
stimuli/rgb_scene000056_render000001.png,stimuli/rgb_scene000056_render000006.png,0,97,97,52,"[0, 1]",right,1,82,29,f,y,y,2019_Jul_16_1347,2AFC_task,60.00571253144645,
stimuli/rgb_scene000047_render000000.png,stimuli/rgb_scene000047_render000006.png,0,98,98,26,"[0, 1]",right,1,82,29,f,y,y,2019_Jul_16_1347,2AFC_task,60.00571253144645,
stimuli/rgb_scene000042_render000002.png,stimuli/rgb_scene000042_render000005.png,0,99,99,13,"[1, 0]",right,0,82,29,f,y,y,2019_Jul_16_1347,2AFC_task,60.00571253144645,
stimuli/rgb_scene000150_render000002.png,stimuli/rgb_scene000150_render000006.png,0,100,100,119,"[0, 1]",right,1,82,29,f,y,y,2019_Jul_16_1347,2AFC_task,60.00571253144645,
stimuli/rgb_scene000169_render000004.png,stimuli/rgb_scene000169_render000006.png,0,101,101,187,"[0, 1]",right,1,82,29,f,y,y,2019_Jul_16_1347,2AFC_task,60.00571253144645,
stimuli/rgb_scene000165_render000001.png,stimuli/rgb_scene000165_render000002.png,0,102,102,153,"[0, 1]",right,1,82,29,f,y,y,2019_Jul_16_1347,2AFC_task,60.00571253144645,
stimuli/rgb_scene000042_render000001.png,stimuli/rgb_scene000042_render000003.png,0,103,103,7,"[0, 1]",right,1,82,29,f,y,y,2019_Jul_16_1347,2AFC_task,60.00571253144645,
stimuli/rgb_scene000047_render000001.png,stimuli/rgb_scene000047_render000004.png,0,104,104,29,"[0, 1]",right,1,82,29,f,y,y,2019_Jul_16_1347,2AFC_task,60.00571253144645,
stimuli/rgb_scene000056_render000003.png,stimuli/rgb_scene000056_render000006.png,0,105,105,59,"[1, 0]",left,1,82,29,f,y,y,2019_Jul_16_1347,2AFC_task,60.00571253144645,
stimuli/rgb_scene000047_render000001.png,stimuli/rgb_scene000047_render000005.png,0,106,106,30,"[0, 1]",right,1,82,29,f,y,y,2019_Jul_16_1347,2AFC_task,60.00571253144645,
stimuli/rgb_scene000147_render000000.png,stimuli/rgb_scene000147_render000006.png,0,107,107,89,"[0, 1]",right,1,82,29,f,y,y,2019_Jul_16_1347,2AFC_task,60.00571253144645,
stimuli/rgb_scene000196_render000002.png,stimuli/rgb_scene000196_render000005.png,0,108,108,202,"[0, 1]",right,1,82,29,f,y,y,2019_Jul_16_1347,2AFC_task,60.00571253144645,
stimuli/rgb_scene000160_render000002.png,stimuli/rgb_scene000160_render000004.png,0,109,109,138,"[1, 0]",left,1,82,29,f,y,y,2019_Jul_16_1347,2AFC_task,60.00571253144645,
stimuli/rgb_scene000165_render000000.png,stimuli/rgb_scene000165_render000001.png,0,110,110,147,"[0, 1]",right,1,82,29,f,y,y,2019_Jul_16_1347,2AFC_task,60.00571253144645,
stimuli/rgb_scene000165_render000003.png,stimuli/rgb_scene000165_render000004.png,0,111,111,162,"[0, 1]",right,1,82,29,f,y,y,2019_Jul_16_1347,2AFC_task,60.00571253144645,
stimuli/rgb_scene000042_render000001.png,stimuli/rgb_scene000042_render000005.png,0,112,112,9,"[1, 0]",left,1,82,29,f,y,y,2019_Jul_16_1347,2AFC_task,60.00571253144645,
stimuli/rgb_scene000150_render000001.png,stimuli/rgb_scene000150_render000006.png,0,113,113,115,"[1, 0]",left,1,82,29,f,y,y,2019_Jul_16_1347,2AFC_task,60.00571253144645,
stimuli/rgb_scene000160_render000001.png,stimuli/rgb_scene000160_render000002.png,0,114,114,132,"[1, 0]",left,1,82,29,f,y,y,2019_Jul_16_1347,2AFC_task,60.00571253144645,
stimuli/rgb_scene000169_render000001.png,stimuli/rgb_scene000169_render000003.png,0,115,115,175,"[1, 0]",left,1,82,29,f,y,y,2019_Jul_16_1347,2AFC_task,60.00571253144645,
stimuli/rgb_scene000147_render000002.png,stimuli/rgb_scene000147_render000005.png,0,116,116,97,"[1, 0]",left,1,82,29,f,y,y,2019_Jul_16_1347,2AFC_task,60.00571253144645,
stimuli/rgb_scene000165_render000000.png,stimuli/rgb_scene000165_render000005.png,0,117,117,151,"[0, 1]",right,1,82,29,f,y,y,2019_Jul_16_1347,2AFC_task,60.00571253144645,
stimuli/rgb_scene000169_render000000.png,stimuli/rgb_scene000169_render000003.png,0,118,118,170,"[1, 0]",left,1,82,29,f,y,y,2019_Jul_16_1347,2AFC_task,60.00571253144645,
stimuli/rgb_scene000047_render000003.png,stimuli/rgb_scene000047_render000006.png,0,119,119,38,"[1, 0]",left,1,82,29,f,y,y,2019_Jul_16_1347,2AFC_task,60.00571253144645,
stimuli/rgb_scene000066_render000001.png,stimuli/rgb_scene000066_render000004.png,0,120,120,71,"[0, 1]",right,1,82,29,f,y,y,2019_Jul_16_1347,2AFC_task,60.00571253144645,
stimuli/rgb_scene000147_render000004.png,stimuli/rgb_scene000147_render000005.png,0,121,121,102,"[0, 1]",right,1,82,29,f,y,y,2019_Jul_16_1347,2AFC_task,60.00571253144645,
stimuli/rgb_scene000169_render000000.png,stimuli/rgb_scene000169_render000004.png,0,122,122,171,"[1, 0]",left,1,82,29,f,y,y,2019_Jul_16_1347,2AFC_task,60.00571253144645,
stimuli/rgb_scene000147_render000002.png,stimuli/rgb_scene000147_render000004.png,0,123,123,96,"[1, 0]",left,1,82,29,f,y,y,2019_Jul_16_1347,2AFC_task,60.00571253144645,
stimuli/rgb_scene000066_render000000.png,stimuli/rgb_scene000066_render000004.png,0,124,124,66,"[0, 1]",right,1,82,29,f,y,y,2019_Jul_16_1347,2AFC_task,60.00571253144645,
stimuli/rgb_scene000056_render000003.png,stimuli/rgb_scene000056_render000005.png,0,125,125,58,"[1, 0]",left,1,82,29,f,y,y,2019_Jul_16_1347,2AFC_task,60.00571253144645,
stimuli/rgb_scene000165_render000001.png,stimuli/rgb_scene000165_render000003.png,0,126,126,154,"[0, 1]",right,1,82,29,f,y,y,2019_Jul_16_1347,2AFC_task,60.00571253144645,
stimuli/rgb_scene000056_render000001.png,stimuli/rgb_scene000056_render000003.png,0,127,127,49,"[0, 1]",right,1,82,29,f,y,y,2019_Jul_16_1347,2AFC_task,60.00571253144645,
stimuli/rgb_scene000066_render000002.png,stimuli/rgb_scene000066_render000005.png,0,128,128,76,"[1, 0]",left,1,82,29,f,y,y,2019_Jul_16_1347,2AFC_task,60.00571253144645,
stimuli/rgb_scene000160_render000002.png,stimuli/rgb_scene000160_render000003.png,0,129,129,137,"[0, 1]",right,1,82,29,f,y,y,2019_Jul_16_1347,2AFC_task,60.00571253144645,
stimuli/rgb_scene000165_render000001.png,stimuli/rgb_scene000165_render000004.png,0,130,130,155,"[1, 0]",left,1,82,29,f,y,y,2019_Jul_16_1347,2AFC_task,60.00571253144645,
stimuli/rgb_scene000066_render000002.png,stimuli/rgb_scene000066_render000003.png,0,131,131,74,"[0, 1]",right,1,82,29,f,y,y,2019_Jul_16_1347,2AFC_task,60.00571253144645,
stimuli/rgb_scene000147_render000001.png,stimuli/rgb_scene000147_render000004.png,0,132,132,92,"[0, 1]",right,1,82,29,f,y,y,2019_Jul_16_1347,2AFC_task,60.00571253144645,
stimuli/rgb_scene000042_render000004.png,stimuli/rgb_scene000042_render000005.png,0,133,133,18,"[1, 0]",left,1,82,29,f,y,y,2019_Jul_16_1347,2AFC_task,60.00571253144645,
stimuli/rgb_scene000150_render000000.png,stimuli/rgb_scene000150_render000001.png,0,134,134,105,"[1, 0]",left,1,82,29,f,y,y,2019_Jul_16_1347,2AFC_task,60.00571253144645,
stimuli/rgb_scene000160_render000000.png,stimuli/rgb_scene000160_render000002.png,0,135,135,127,"[1, 0]",left,1,82,29,f,y,y,2019_Jul_16_1347,2AFC_task,60.00571253144645,
stimuli/rgb_scene000047_render000003.png,stimuli/rgb_scene000047_render000005.png,0,136,136,37,"[0, 1]",right,1,82,29,f,y,y,2019_Jul_16_1347,2AFC_task,60.00571253144645,
stimuli/rgb_scene000165_render000001.png,stimuli/rgb_scene000165_render000006.png,0,137,137,157,"[0, 1]",right,1,82,29,f,y,y,2019_Jul_16_1347,2AFC_task,60.00571253144645,
stimuli/rgb_scene000169_render000001.png,stimuli/rgb_scene000169_render000005.png,0,138,138,177,"[1, 0]",left,1,82,29,f,y,y,2019_Jul_16_1347,2AFC_task,60.00571253144645,
stimuli/rgb_scene000160_render000003.png,stimuli/rgb_scene000160_render000004.png,0,139,139,141,"[0, 1]",right,1,82,29,f,y,y,2019_Jul_16_1347,2AFC_task,60.00571253144645,
stimuli/rgb_scene000160_render000002.png,stimuli/rgb_scene000160_render000006.png,0,140,140,140,"[0, 1]",right,1,82,29,f,y,y,2019_Jul_16_1347,2AFC_task,60.00571253144645,
stimuli/rgb_scene000047_render000001.png,stimuli/rgb_scene000047_render000006.png,0,141,141,31,"[0, 1]",right,1,82,29,f,y,y,2019_Jul_16_1347,2AFC_task,60.00571253144645,
stimuli/rgb_scene000196_render000001.png,stimuli/rgb_scene000196_render000005.png,0,142,142,198,"[1, 0]",left,1,82,29,f,y,y,2019_Jul_16_1347,2AFC_task,60.00571253144645,
stimuli/rgb_scene000165_render000004.png,stimuli/rgb_scene000165_render000005.png,0,143,143,165,"[1, 0]",left,1,82,29,f,y,y,2019_Jul_16_1347,2AFC_task,60.00571253144645,
stimuli/rgb_scene000056_render000000.png,stimuli/rgb_scene000056_render000006.png,0,144,144,47,"[0, 1]",right,1,82,29,f,y,y,2019_Jul_16_1347,2AFC_task,60.00571253144645,
stimuli/rgb_scene000066_render000004.png,stimuli/rgb_scene000066_render000005.png,0,145,145,81,"[0, 1]",right,1,82,29,f,y,y,2019_Jul_16_1347,2AFC_task,60.00571253144645,
stimuli/rgb_scene000150_render000001.png,stimuli/rgb_scene000150_render000004.png,0,146,146,113,"[1, 0]",left,1,82,29,f,y,y,2019_Jul_16_1347,2AFC_task,60.00571253144645,
stimuli/rgb_scene000165_render000003.png,stimuli/rgb_scene000165_render000005.png,0,147,147,163,"[0, 1]",right,1,82,29,f,y,y,2019_Jul_16_1347,2AFC_task,60.00571253144645,
stimuli/rgb_scene000150_render000000.png,stimuli/rgb_scene000150_render000004.png,0,148,148,108,"[1, 0]",left,1,82,29,f,y,y,2019_Jul_16_1347,2AFC_task,60.00571253144645,
stimuli/rgb_scene000047_render000002.png,stimuli/rgb_scene000047_render000006.png,0,149,149,35,"[1, 0]",left,1,82,29,f,y,y,2019_Jul_16_1347,2AFC_task,60.00571253144645,
stimuli/rgb_scene000147_render000001.png,stimuli/rgb_scene000147_render000002.png,0,150,150,90,"[1, 0]",left,1,82,29,f,y,y,2019_Jul_16_1347,2AFC_task,60.00571253144645,
stimuli/rgb_scene000066_render000003.png,stimuli/rgb_scene000066_render000005.png,0,151,151,79,"[0, 1]",right,1,82,29,f,y,y,2019_Jul_16_1347,2AFC_task,60.00571253144645,
stimuli/rgb_scene000066_render000001.png,stimuli/rgb_scene000066_render000005.png,0,152,152,72,"[1, 0]",left,1,82,29,f,y,y,2019_Jul_16_1347,2AFC_task,60.00571253144645,
stimuli/rgb_scene000147_render000000.png,stimuli/rgb_scene000147_render000003.png,0,153,153,86,"[0, 1]",right,1,82,29,f,y,y,2019_Jul_16_1347,2AFC_task,60.00571253144645,
stimuli/rgb_scene000147_render000003.png,stimuli/rgb_scene000147_render000006.png,0,154,154,101,"[1, 0]",left,1,82,29,f,y,y,2019_Jul_16_1347,2AFC_task,60.00571253144645,
stimuli/rgb_scene000047_render000002.png,stimuli/rgb_scene000047_render000004.png,0,155,155,33,"[1, 0]",left,1,82,29,f,y,y,2019_Jul_16_1347,2AFC_task,60.00571253144645,
stimuli/rgb_scene000196_render000001.png,stimuli/rgb_scene000196_render000002.png,0,156,156,195,"[0, 1]",right,1,82,29,f,y,y,2019_Jul_16_1347,2AFC_task,60.00571253144645,
stimuli/rgb_scene000147_render000000.png,stimuli/rgb_scene000147_render000005.png,0,157,157,88,"[0, 1]",right,1,82,29,f,y,y,2019_Jul_16_1347,2AFC_task,60.00571253144645,
stimuli/rgb_scene000066_render000003.png,stimuli/rgb_scene000066_render000004.png,0,158,158,78,"[1, 0]",left,1,82,29,f,y,y,2019_Jul_16_1347,2AFC_task,60.00571253144645,
stimuli/rgb_scene000066_render000000.png,stimuli/rgb_scene000066_render000006.png,0,159,159,68,"[1, 0]",left,1,82,29,f,y,y,2019_Jul_16_1347,2AFC_task,60.00571253144645,
stimuli/rgb_scene000196_render000003.png,stimuli/rgb_scene000196_render000004.png,0,160,160,204,"[1, 0]",left,1,82,29,f,y,y,2019_Jul_16_1347,2AFC_task,60.00571253144645,
stimuli/rgb_scene000047_render000002.png,stimuli/rgb_scene000047_render000003.png,0,161,161,32,"[0, 1]",right,1,82,29,f,y,y,2019_Jul_16_1347,2AFC_task,60.00571253144645,
stimuli/rgb_scene000165_render000000.png,stimuli/rgb_scene000165_render000004.png,0,162,162,150,"[1, 0]",left,1,82,29,f,y,y,2019_Jul_16_1347,2AFC_task,60.00571253144645,
stimuli/rgb_scene000169_render000003.png,stimuli/rgb_scene000169_render000005.png,0,163,163,184,"[1, 0]",left,1,82,29,f,y,y,2019_Jul_16_1347,2AFC_task,60.00571253144645,
stimuli/rgb_scene000196_render000001.png,stimuli/rgb_scene000196_render000003.png,0,164,164,196,"[0, 1]",right,1,82,29,f,y,y,2019_Jul_16_1347,2AFC_task,60.00571253144645,
stimuli/rgb_scene000196_render000002.png,stimuli/rgb_scene000196_render000003.png,0,165,165,200,"[0, 1]",right,1,82,29,f,y,y,2019_Jul_16_1347,2AFC_task,60.00571253144645,
stimuli/rgb_scene000047_render000000.png,stimuli/rgb_scene000047_render000003.png,0,166,166,23,"[0, 1]",right,1,82,29,f,y,y,2019_Jul_16_1347,2AFC_task,60.00571253144645,
stimuli/rgb_scene000147_render000000.png,stimuli/rgb_scene000147_render000001.png,0,167,167,84,"[1, 0]",left,1,82,29,f,y,y,2019_Jul_16_1347,2AFC_task,60.00571253144645,
stimuli/rgb_scene000169_render000003.png,stimuli/rgb_scene000169_render000006.png,0,168,168,185,"[1, 0]",left,1,82,29,f,y,y,2019_Jul_16_1347,2AFC_task,60.00571253144645,
stimuli/rgb_scene000147_render000000.png,stimuli/rgb_scene000147_render000002.png,0,169,169,85,"[1, 0]",left,1,82,29,f,y,y,2019_Jul_16_1347,2AFC_task,60.00571253144645,
stimuli/rgb_scene000165_render000004.png,stimuli/rgb_scene000165_render000006.png,0,170,170,166,"[0, 1]",right,1,82,29,f,y,y,2019_Jul_16_1347,2AFC_task,60.00571253144645,
stimuli/rgb_scene000150_render000001.png,stimuli/rgb_scene000150_render000002.png,0,171,171,111,"[0, 1]",right,1,82,29,f,y,y,2019_Jul_16_1347,2AFC_task,60.00571253144645,
stimuli/rgb_scene000042_render000000.png,stimuli/rgb_scene000042_render000001.png,0,172,172,0,"[0, 1]",right,1,82,29,f,y,y,2019_Jul_16_1347,2AFC_task,60.00571253144645,
stimuli/rgb_scene000056_render000002.png,stimuli/rgb_scene000056_render000003.png,0,173,173,53,"[1, 0]",left,1,82,29,f,y,y,2019_Jul_16_1347,2AFC_task,60.00571253144645,
stimuli/rgb_scene000147_render000001.png,stimuli/rgb_scene000147_render000006.png,0,174,174,94,"[0, 1]",right,1,82,29,f,y,y,2019_Jul_16_1347,2AFC_task,60.00571253144645,
stimuli/rgb_scene000169_render000000.png,stimuli/rgb_scene000169_render000001.png,0,175,175,168,"[0, 1]",right,1,82,29,f,y,y,2019_Jul_16_1347,2AFC_task,60.00571253144645,
stimuli/rgb_scene000160_render000000.png,stimuli/rgb_scene000160_render000005.png,0,176,176,130,"[0, 1]",right,1,82,29,f,y,y,2019_Jul_16_1347,2AFC_task,60.00571253144645,
stimuli/rgb_scene000169_render000004.png,stimuli/rgb_scene000169_render000005.png,0,177,177,186,"[0, 1]",right,1,82,29,f,y,y,2019_Jul_16_1347,2AFC_task,60.00571253144645,
stimuli/rgb_scene000196_render000004.png,stimuli/rgb_scene000196_render000006.png,0,178,178,208,"[1, 0]",left,1,82,29,f,y,y,2019_Jul_16_1347,2AFC_task,60.00571253144645,
stimuli/rgb_scene000147_render000001.png,stimuli/rgb_scene000147_render000005.png,0,179,179,93,"[1, 0]",left,1,82,29,f,y,y,2019_Jul_16_1347,2AFC_task,60.00571253144645,
stimuli/rgb_scene000150_render000005.png,stimuli/rgb_scene000150_render000006.png,0,180,180,125,"[1, 0]",left,1,82,29,f,y,y,2019_Jul_16_1347,2AFC_task,60.00571253144645,
stimuli/rgb_scene000047_render000004.png,stimuli/rgb_scene000047_render000005.png,0,181,181,39,"[0, 1]",right,1,82,29,f,y,y,2019_Jul_16_1347,2AFC_task,60.00571253144645,
stimuli/rgb_scene000160_render000004.png,stimuli/rgb_scene000160_render000005.png,0,182,182,144,"[0, 1]",right,1,82,29,f,y,y,2019_Jul_16_1347,2AFC_task,60.00571253144645,
stimuli/rgb_scene000150_render000001.png,stimuli/rgb_scene000150_render000003.png,0,183,183,112,"[1, 0]",left,1,82,29,f,y,y,2019_Jul_16_1347,2AFC_task,60.00571253144645,
stimuli/rgb_scene000165_render000001.png,stimuli/rgb_scene000165_render000005.png,0,184,184,156,"[1, 0]",left,1,82,29,f,y,y,2019_Jul_16_1347,2AFC_task,60.00571253144645,
stimuli/rgb_scene000056_render000004.png,stimuli/rgb_scene000056_render000006.png,0,185,185,61,"[1, 0]",left,1,82,29,f,y,y,2019_Jul_16_1347,2AFC_task,60.00571253144645,
stimuli/rgb_scene000066_render000002.png,stimuli/rgb_scene000066_render000006.png,0,186,186,77,"[0, 1]",right,1,82,29,f,y,y,2019_Jul_16_1347,2AFC_task,60.00571253144645,
stimuli/rgb_scene000147_render000003.png,stimuli/rgb_scene000147_render000004.png,0,187,187,99,"[1, 0]",left,1,82,29,f,y,y,2019_Jul_16_1347,2AFC_task,60.00571253144645,
stimuli/rgb_scene000196_render000001.png,stimuli/rgb_scene000196_render000006.png,0,188,188,199,"[0, 1]",right,1,82,29,f,y,y,2019_Jul_16_1347,2AFC_task,60.00571253144645,
stimuli/rgb_scene000169_render000000.png,stimuli/rgb_scene000169_render000002.png,0,189,189,169,"[1, 0]",right,0,82,29,f,y,y,2019_Jul_16_1347,2AFC_task,60.00571253144645,
stimuli/rgb_scene000160_render000004.png,stimuli/rgb_scene000160_render000006.png,0,190,190,145,"[1, 0]",left,1,82,29,f,y,y,2019_Jul_16_1347,2AFC_task,60.00571253144645,
stimuli/rgb_scene000056_render000000.png,stimuli/rgb_scene000056_render000005.png,0,191,191,46,"[1, 0]",left,1,82,29,f,y,y,2019_Jul_16_1347,2AFC_task,60.00571253144645,
stimuli/rgb_scene000165_render000002.png,stimuli/rgb_scene000165_render000005.png,0,192,192,160,"[1, 0]",left,1,82,29,f,y,y,2019_Jul_16_1347,2AFC_task,60.00571253144645,
stimuli/rgb_scene000165_render000000.png,stimuli/rgb_scene000165_render000002.png,0,193,193,148,"[0, 1]",right,1,82,29,f,y,y,2019_Jul_16_1347,2AFC_task,60.00571253144645,
stimuli/rgb_scene000047_render000000.png,stimuli/rgb_scene000047_render000001.png,0,194,194,21,"[0, 1]",right,1,82,29,f,y,y,2019_Jul_16_1347,2AFC_task,60.00571253144645,
stimuli/rgb_scene000066_render000000.png,stimuli/rgb_scene000066_render000003.png,0,195,195,65,"[0, 1]",right,1,82,29,f,y,y,2019_Jul_16_1347,2AFC_task,60.00571253144645,
stimuli/rgb_scene000147_render000005.png,stimuli/rgb_scene000147_render000006.png,0,196,196,104,"[1, 0]",left,1,82,29,f,y,y,2019_Jul_16_1347,2AFC_task,60.00571253144645,
stimuli/rgb_scene000160_render000001.png,stimuli/rgb_scene000160_render000004.png,0,197,197,134,"[0, 1]",right,1,82,29,f,y,y,2019_Jul_16_1347,2AFC_task,60.00571253144645,
stimuli/rgb_scene000196_render000000.png,stimuli/rgb_scene000196_render000005.png,0,198,198,193,"[0, 1]",right,1,82,29,f,y,y,2019_Jul_16_1347,2AFC_task,60.00571253144645,
stimuli/rgb_scene000056_render000004.png,stimuli/rgb_scene000056_render000005.png,0,199,199,60,"[0, 1]",right,1,82,29,f,y,y,2019_Jul_16_1347,2AFC_task,60.00571253144645,
stimuli/rgb_scene000056_render000002.png,stimuli/rgb_scene000056_render000004.png,0,200,200,54,"[0, 1]",right,1,82,29,f,y,y,2019_Jul_16_1347,2AFC_task,60.00571253144645,
stimuli/rgb_scene000047_render000005.png,stimuli/rgb_scene000047_render000006.png,0,201,201,41,"[0, 1]",right,1,82,29,f,y,y,2019_Jul_16_1347,2AFC_task,60.00571253144645,
stimuli/rgb_scene000150_render000001.png,stimuli/rgb_scene000150_render000005.png,0,202,202,114,"[1, 0]",left,1,82,29,f,y,y,2019_Jul_16_1347,2AFC_task,60.00571253144645,
stimuli/rgb_scene000066_render000001.png,stimuli/rgb_scene000066_render000003.png,0,203,203,70,"[1, 0]",left,1,82,29,f,y,y,2019_Jul_16_1347,2AFC_task,60.00571253144645,
stimuli/rgb_scene000042_render000002.png,stimuli/rgb_scene000042_render000004.png,0,204,204,12,"[0, 1]",right,1,82,29,f,y,y,2019_Jul_16_1347,2AFC_task,60.00571253144645,
stimuli/rgb_scene000150_render000003.png,stimuli/rgb_scene000150_render000006.png,0,205,205,122,"[1, 0]",left,1,82,29,f,y,y,2019_Jul_16_1347,2AFC_task,60.00571253144645,
stimuli/rgb_scene000165_render000002.png,stimuli/rgb_scene000165_render000004.png,0,206,206,159,"[0, 1]",right,1,82,29,f,y,y,2019_Jul_16_1347,2AFC_task,60.00571253144645,
stimuli/rgb_scene000169_render000002.png,stimuli/rgb_scene000169_render000005.png,0,207,207,181,"[1, 0]",left,1,82,29,f,y,y,2019_Jul_16_1347,2AFC_task,60.00571253144645,
stimuli/rgb_scene000056_render000000.png,stimuli/rgb_scene000056_render000002.png,0,208,208,43,"[0, 1]",right,1,82,29,f,y,y,2019_Jul_16_1347,2AFC_task,60.00571253144645,
stimuli/rgb_scene000042_render000003.png,stimuli/rgb_scene000042_render000005.png,0,209,209,16,"[0, 1]",right,1,82,29,f,y,y,2019_Jul_16_1347,2AFC_task,60.00571253144645,
stimuli/rgb_scene000056_render000000.png,stimuli/rgb_scene000056_render000004.png,1,0,210,45,"[0, 1]",right,1,82,29,f,y,y,2019_Jul_16_1347,2AFC_task,60.00571253144645,
stimuli/rgb_scene000047_render000002.png,stimuli/rgb_scene000047_render000003.png,1,1,211,32,"[0, 1]",right,1,82,29,f,y,y,2019_Jul_16_1347,2AFC_task,60.00571253144645,
stimuli/rgb_scene000169_render000005.png,stimuli/rgb_scene000169_render000006.png,1,2,212,188,"[1, 0]",left,1,82,29,f,y,y,2019_Jul_16_1347,2AFC_task,60.00571253144645,
stimuli/rgb_scene000047_render000003.png,stimuli/rgb_scene000047_render000004.png,1,3,213,36,"[1, 0]",left,1,82,29,f,y,y,2019_Jul_16_1347,2AFC_task,60.00571253144645,
stimuli/rgb_scene000165_render000001.png,stimuli/rgb_scene000165_render000005.png,1,4,214,156,"[1, 0]",left,1,82,29,f,y,y,2019_Jul_16_1347,2AFC_task,60.00571253144645,
stimuli/rgb_scene000066_render000000.png,stimuli/rgb_scene000066_render000002.png,1,5,215,64,"[0, 1]",right,1,82,29,f,y,y,2019_Jul_16_1347,2AFC_task,60.00571253144645,
stimuli/rgb_scene000165_render000000.png,stimuli/rgb_scene000165_render000003.png,1,6,216,149,"[0, 1]",right,1,82,29,f,y,y,2019_Jul_16_1347,2AFC_task,60.00571253144645,
stimuli/rgb_scene000047_render000003.png,stimuli/rgb_scene000047_render000006.png,1,7,217,38,"[0, 1]",right,1,82,29,f,y,y,2019_Jul_16_1347,2AFC_task,60.00571253144645,
stimuli/rgb_scene000066_render000001.png,stimuli/rgb_scene000066_render000002.png,1,8,218,69,"[0, 1]",right,1,82,29,f,y,y,2019_Jul_16_1347,2AFC_task,60.00571253144645,
stimuli/rgb_scene000066_render000000.png,stimuli/rgb_scene000066_render000005.png,1,9,219,67,"[1, 0]",left,1,82,29,f,y,y,2019_Jul_16_1347,2AFC_task,60.00571253144645,
stimuli/rgb_scene000196_render000002.png,stimuli/rgb_scene000196_render000005.png,1,10,220,202,"[1, 0]",left,1,82,29,f,y,y,2019_Jul_16_1347,2AFC_task,60.00571253144645,
stimuli/rgb_scene000147_render000000.png,stimuli/rgb_scene000147_render000006.png,1,11,221,89,"[1, 0]",left,1,82,29,f,y,y,2019_Jul_16_1347,2AFC_task,60.00571253144645,
stimuli/rgb_scene000066_render000000.png,stimuli/rgb_scene000066_render000001.png,1,12,222,63,"[1, 0]",left,1,82,29,f,y,y,2019_Jul_16_1347,2AFC_task,60.00571253144645,
stimuli/rgb_scene000042_render000004.png,stimuli/rgb_scene000042_render000005.png,1,13,223,18,"[1, 0]",left,1,82,29,f,y,y,2019_Jul_16_1347,2AFC_task,60.00571253144645,
stimuli/rgb_scene000042_render000001.png,stimuli/rgb_scene000042_render000005.png,1,14,224,9,"[1, 0]",left,1,82,29,f,y,y,2019_Jul_16_1347,2AFC_task,60.00571253144645,
stimuli/rgb_scene000147_render000001.png,stimuli/rgb_scene000147_render000006.png,1,15,225,94,"[1, 0]",left,1,82,29,f,y,y,2019_Jul_16_1347,2AFC_task,60.00571253144645,
stimuli/rgb_scene000047_render000005.png,stimuli/rgb_scene000047_render000006.png,1,16,226,41,"[0, 1]",right,1,82,29,f,y,y,2019_Jul_16_1347,2AFC_task,60.00571253144645,
stimuli/rgb_scene000169_render000000.png,stimuli/rgb_scene000169_render000001.png,1,17,227,168,"[1, 0]",left,1,82,29,f,y,y,2019_Jul_16_1347,2AFC_task,60.00571253144645,
stimuli/rgb_scene000169_render000001.png,stimuli/rgb_scene000169_render000004.png,1,18,228,176,"[1, 0]",left,1,82,29,f,y,y,2019_Jul_16_1347,2AFC_task,60.00571253144645,
stimuli/rgb_scene000042_render000001.png,stimuli/rgb_scene000042_render000003.png,1,19,229,7,"[1, 0]",left,1,82,29,f,y,y,2019_Jul_16_1347,2AFC_task,60.00571253144645,
stimuli/rgb_scene000056_render000002.png,stimuli/rgb_scene000056_render000004.png,1,20,230,54,"[0, 1]",right,1,82,29,f,y,y,2019_Jul_16_1347,2AFC_task,60.00571253144645,
stimuli/rgb_scene000056_render000004.png,stimuli/rgb_scene000056_render000005.png,1,21,231,60,"[1, 0]",left,1,82,29,f,y,y,2019_Jul_16_1347,2AFC_task,60.00571253144645,
stimuli/rgb_scene000147_render000001.png,stimuli/rgb_scene000147_render000004.png,1,22,232,92,"[1, 0]",left,1,82,29,f,y,y,2019_Jul_16_1347,2AFC_task,60.00571253144645,
stimuli/rgb_scene000160_render000002.png,stimuli/rgb_scene000160_render000003.png,1,23,233,137,"[1, 0]",left,1,82,29,f,y,y,2019_Jul_16_1347,2AFC_task,60.00571253144645,
stimuli/rgb_scene000056_render000000.png,stimuli/rgb_scene000056_render000003.png,1,24,234,44,"[0, 1]",right,1,82,29,f,y,y,2019_Jul_16_1347,2AFC_task,60.00571253144645,
stimuli/rgb_scene000047_render000001.png,stimuli/rgb_scene000047_render000006.png,1,25,235,31,"[1, 0]",left,1,82,29,f,y,y,2019_Jul_16_1347,2AFC_task,60.00571253144645,
stimuli/rgb_scene000196_render000001.png,stimuli/rgb_scene000196_render000006.png,1,26,236,199,"[0, 1]",right,1,82,29,f,y,y,2019_Jul_16_1347,2AFC_task,60.00571253144645,
stimuli/rgb_scene000147_render000004.png,stimuli/rgb_scene000147_render000006.png,1,27,237,103,"[0, 1]",right,1,82,29,f,y,y,2019_Jul_16_1347,2AFC_task,60.00571253144645,
stimuli/rgb_scene000169_render000002.png,stimuli/rgb_scene000169_render000006.png,1,28,238,182,"[1, 0]",left,1,82,29,f,y,y,2019_Jul_16_1347,2AFC_task,60.00571253144645,
stimuli/rgb_scene000169_render000001.png,stimuli/rgb_scene000169_render000005.png,1,29,239,177,"[1, 0]",left,1,82,29,f,y,y,2019_Jul_16_1347,2AFC_task,60.00571253144645,
stimuli/rgb_scene000042_render000005.png,stimuli/rgb_scene000042_render000006.png,1,30,240,20,"[1, 0]",left,1,82,29,f,y,y,2019_Jul_16_1347,2AFC_task,60.00571253144645,
stimuli/rgb_scene000066_render000002.png,stimuli/rgb_scene000066_render000006.png,1,31,241,77,"[0, 1]",right,1,82,29,f,y,y,2019_Jul_16_1347,2AFC_task,60.00571253144645,
stimuli/rgb_scene000160_render000001.png,stimuli/rgb_scene000160_render000005.png,1,32,242,135,"[0, 1]",right,1,82,29,f,y,y,2019_Jul_16_1347,2AFC_task,60.00571253144645,
stimuli/rgb_scene000160_render000000.png,stimuli/rgb_scene000160_render000003.png,1,33,243,128,"[1, 0]",left,1,82,29,f,y,y,2019_Jul_16_1347,2AFC_task,60.00571253144645,
stimuli/rgb_scene000160_render000000.png,stimuli/rgb_scene000160_render000006.png,1,34,244,131,"[0, 1]",right,1,82,29,f,y,y,2019_Jul_16_1347,2AFC_task,60.00571253144645,
stimuli/rgb_scene000160_render000003.png,stimuli/rgb_scene000160_render000005.png,1,35,245,142,"[1, 0]",left,1,82,29,f,y,y,2019_Jul_16_1347,2AFC_task,60.00571253144645,
stimuli/rgb_scene000160_render000001.png,stimuli/rgb_scene000160_render000006.png,1,36,246,136,"[1, 0]",left,1,82,29,f,y,y,2019_Jul_16_1347,2AFC_task,60.00571253144645,
stimuli/rgb_scene000066_render000001.png,stimuli/rgb_scene000066_render000003.png,1,37,247,70,"[1, 0]",left,1,82,29,f,y,y,2019_Jul_16_1347,2AFC_task,60.00571253144645,
stimuli/rgb_scene000047_render000000.png,stimuli/rgb_scene000047_render000003.png,1,38,248,23,"[1, 0]",left,1,82,29,f,y,y,2019_Jul_16_1347,2AFC_task,60.00571253144645,
stimuli/rgb_scene000047_render000000.png,stimuli/rgb_scene000047_render000002.png,1,39,249,22,"[1, 0]",left,1,82,29,f,y,y,2019_Jul_16_1347,2AFC_task,60.00571253144645,
stimuli/rgb_scene000056_render000001.png,stimuli/rgb_scene000056_render000003.png,1,40,250,49,"[0, 1]",right,1,82,29,f,y,y,2019_Jul_16_1347,2AFC_task,60.00571253144645,
stimuli/rgb_scene000196_render000003.png,stimuli/rgb_scene000196_render000004.png,1,41,251,204,"[1, 0]",left,1,82,29,f,y,y,2019_Jul_16_1347,2AFC_task,60.00571253144645,
stimuli/rgb_scene000066_render000003.png,stimuli/rgb_scene000066_render000006.png,1,42,252,80,"[0, 1]",right,1,82,29,f,y,y,2019_Jul_16_1347,2AFC_task,60.00571253144645,
stimuli/rgb_scene000169_render000000.png,stimuli/rgb_scene000169_render000003.png,1,43,253,170,"[0, 1]",right,1,82,29,f,y,y,2019_Jul_16_1347,2AFC_task,60.00571253144645,
stimuli/rgb_scene000169_render000000.png,stimuli/rgb_scene000169_render000004.png,1,44,254,171,"[1, 0]",left,1,82,29,f,y,y,2019_Jul_16_1347,2AFC_task,60.00571253144645,
stimuli/rgb_scene000196_render000000.png,stimuli/rgb_scene000196_render000003.png,1,45,255,191,"[1, 0]",left,1,82,29,f,y,y,2019_Jul_16_1347,2AFC_task,60.00571253144645,
stimuli/rgb_scene000047_render000001.png,stimuli/rgb_scene000047_render000005.png,1,46,256,30,"[1, 0]",left,1,82,29,f,y,y,2019_Jul_16_1347,2AFC_task,60.00571253144645,
stimuli/rgb_scene000147_render000000.png,stimuli/rgb_scene000147_render000003.png,1,47,257,86,"[0, 1]",right,1,82,29,f,y,y,2019_Jul_16_1347,2AFC_task,60.00571253144645,
stimuli/rgb_scene000056_render000001.png,stimuli/rgb_scene000056_render000002.png,1,48,258,48,"[0, 1]",right,1,82,29,f,y,y,2019_Jul_16_1347,2AFC_task,60.00571253144645,
stimuli/rgb_scene000196_render000003.png,stimuli/rgb_scene000196_render000006.png,1,49,259,206,"[1, 0]",left,1,82,29,f,y,y,2019_Jul_16_1347,2AFC_task,60.00571253144645,
stimuli/rgb_scene000147_render000000.png,stimuli/rgb_scene000147_render000004.png,1,50,260,87,"[0, 1]",right,1,82,29,f,y,y,2019_Jul_16_1347,2AFC_task,60.00571253144645,
stimuli/rgb_scene000147_render000002.png,stimuli/rgb_scene000147_render000005.png,1,51,261,97,"[1, 0]",left,1,82,29,f,y,y,2019_Jul_16_1347,2AFC_task,60.00571253144645,
stimuli/rgb_scene000196_render000002.png,stimuli/rgb_scene000196_render000003.png,1,52,262,200,"[0, 1]",right,1,82,29,f,y,y,2019_Jul_16_1347,2AFC_task,60.00571253144645,
stimuli/rgb_scene000165_render000000.png,stimuli/rgb_scene000165_render000004.png,1,53,263,150,"[0, 1]",right,1,82,29,f,y,y,2019_Jul_16_1347,2AFC_task,60.00571253144645,
stimuli/rgb_scene000066_render000005.png,stimuli/rgb_scene000066_render000006.png,1,54,264,83,"[1, 0]",left,1,82,29,f,y,y,2019_Jul_16_1347,2AFC_task,60.00571253144645,
stimuli/rgb_scene000196_render000004.png,stimuli/rgb_scene000196_render000005.png,1,55,265,207,"[1, 0]",left,1,82,29,f,y,y,2019_Jul_16_1347,2AFC_task,60.00571253144645,
stimuli/rgb_scene000169_render000000.png,stimuli/rgb_scene000169_render000005.png,1,56,266,172,"[1, 0]",left,1,82,29,f,y,y,2019_Jul_16_1347,2AFC_task,60.00571253144645,
stimuli/rgb_scene000147_render000002.png,stimuli/rgb_scene000147_render000006.png,1,57,267,98,"[1, 0]",left,1,82,29,f,y,y,2019_Jul_16_1347,2AFC_task,60.00571253144645,
stimuli/rgb_scene000169_render000002.png,stimuli/rgb_scene000169_render000005.png,1,58,268,181,"[1, 0]",left,1,82,29,f,y,y,2019_Jul_16_1347,2AFC_task,60.00571253144645,
stimuli/rgb_scene000160_render000002.png,stimuli/rgb_scene000160_render000004.png,1,59,269,138,"[1, 0]",left,1,82,29,f,y,y,2019_Jul_16_1347,2AFC_task,60.00571253144645,
stimuli/rgb_scene000056_render000003.png,stimuli/rgb_scene000056_render000006.png,1,60,270,59,"[1, 0]",left,1,82,29,f,y,y,2019_Jul_16_1347,2AFC_task,60.00571253144645,
stimuli/rgb_scene000165_render000001.png,stimuli/rgb_scene000165_render000002.png,1,61,271,153,"[1, 0]",left,1,82,29,f,y,y,2019_Jul_16_1347,2AFC_task,60.00571253144645,
stimuli/rgb_scene000066_render000004.png,stimuli/rgb_scene000066_render000006.png,1,62,272,82,"[1, 0]",left,1,82,29,f,y,y,2019_Jul_16_1347,2AFC_task,60.00571253144645,
stimuli/rgb_scene000150_render000003.png,stimuli/rgb_scene000150_render000006.png,1,63,273,122,"[0, 1]",right,1,82,29,f,y,y,2019_Jul_16_1347,2AFC_task,60.00571253144645,
stimuli/rgb_scene000047_render000003.png,stimuli/rgb_scene000047_render000005.png,1,64,274,37,"[1, 0]",left,1,82,29,f,y,y,2019_Jul_16_1347,2AFC_task,60.00571253144645,
stimuli/rgb_scene000150_render000005.png,stimuli/rgb_scene000150_render000006.png,1,65,275,125,"[1, 0]",left,1,82,29,f,y,y,2019_Jul_16_1347,2AFC_task,60.00571253144645,
stimuli/rgb_scene000196_render000001.png,stimuli/rgb_scene000196_render000005.png,1,66,276,198,"[0, 1]",right,1,82,29,f,y,y,2019_Jul_16_1347,2AFC_task,60.00571253144645,
stimuli/rgb_scene000066_render000000.png,stimuli/rgb_scene000066_render000004.png,1,67,277,66,"[0, 1]",right,1,82,29,f,y,y,2019_Jul_16_1347,2AFC_task,60.00571253144645,
stimuli/rgb_scene000150_render000003.png,stimuli/rgb_scene000150_render000004.png,1,68,278,120,"[1, 0]",left,1,82,29,f,y,y,2019_Jul_16_1347,2AFC_task,60.00571253144645,
stimuli/rgb_scene000042_render000000.png,stimuli/rgb_scene000042_render000006.png,1,69,279,5,"[1, 0]",left,1,82,29,f,y,y,2019_Jul_16_1347,2AFC_task,60.00571253144645,
stimuli/rgb_scene000056_render000000.png,stimuli/rgb_scene000056_render000002.png,1,70,280,43,"[1, 0]",left,1,82,29,f,y,y,2019_Jul_16_1347,2AFC_task,60.00571253144645,
stimuli/rgb_scene000056_render000003.png,stimuli/rgb_scene000056_render000005.png,1,71,281,58,"[0, 1]",right,1,82,29,f,y,y,2019_Jul_16_1347,2AFC_task,60.00571253144645,
stimuli/rgb_scene000147_render000000.png,stimuli/rgb_scene000147_render000002.png,1,72,282,85,"[1, 0]",left,1,82,29,f,y,y,2019_Jul_16_1347,2AFC_task,60.00571253144645,
stimuli/rgb_scene000160_render000000.png,stimuli/rgb_scene000160_render000001.png,1,73,283,126,"[0, 1]",right,1,82,29,f,y,y,2019_Jul_16_1347,2AFC_task,60.00571253144645,
stimuli/rgb_scene000042_render000000.png,stimuli/rgb_scene000042_render000005.png,1,74,284,4,"[0, 1]",right,1,82,29,f,y,y,2019_Jul_16_1347,2AFC_task,60.00571253144645,
stimuli/rgb_scene000042_render000002.png,stimuli/rgb_scene000042_render000005.png,1,75,285,13,"[0, 1]",right,1,82,29,f,y,y,2019_Jul_16_1347,2AFC_task,60.00571253144645,
stimuli/rgb_scene000165_render000000.png,stimuli/rgb_scene000165_render000002.png,1,76,286,148,"[0, 1]",right,1,82,29,f,y,y,2019_Jul_16_1347,2AFC_task,60.00571253144645,
stimuli/rgb_scene000066_render000001.png,stimuli/rgb_scene000066_render000005.png,1,77,287,72,"[1, 0]",left,1,82,29,f,y,y,2019_Jul_16_1347,2AFC_task,60.00571253144645,
stimuli/rgb_scene000165_render000004.png,stimuli/rgb_scene000165_render000006.png,1,78,288,166,"[0, 1]",right,1,82,29,f,y,y,2019_Jul_16_1347,2AFC_task,60.00571253144645,
stimuli/rgb_scene000047_render000000.png,stimuli/rgb_scene000047_render000001.png,1,79,289,21,"[0, 1]",right,1,82,29,f,y,y,2019_Jul_16_1347,2AFC_task,60.00571253144645,
stimuli/rgb_scene000066_render000003.png,stimuli/rgb_scene000066_render000004.png,1,80,290,78,"[1, 0]",left,1,82,29,f,y,y,2019_Jul_16_1347,2AFC_task,60.00571253144645,
stimuli/rgb_scene000150_render000002.png,stimuli/rgb_scene000150_render000004.png,1,81,291,117,"[0, 1]",right,1,82,29,f,y,y,2019_Jul_16_1347,2AFC_task,60.00571253144645,
stimuli/rgb_scene000150_render000000.png,stimuli/rgb_scene000150_render000005.png,1,82,292,109,"[0, 1]",right,1,82,29,f,y,y,2019_Jul_16_1347,2AFC_task,60.00571253144645,
stimuli/rgb_scene000056_render000001.png,stimuli/rgb_scene000056_render000004.png,1,83,293,50,"[1, 0]",left,1,82,29,f,y,y,2019_Jul_16_1347,2AFC_task,60.00571253144645,
stimuli/rgb_scene000047_render000004.png,stimuli/rgb_scene000047_render000006.png,1,84,294,40,"[0, 1]",right,1,82,29,f,y,y,2019_Jul_16_1347,2AFC_task,60.00571253144645,
stimuli/rgb_scene000165_render000002.png,stimuli/rgb_scene000165_render000005.png,1,85,295,160,"[1, 0]",left,1,82,29,f,y,y,2019_Jul_16_1347,2AFC_task,60.00571253144645,
stimuli/rgb_scene000056_render000002.png,stimuli/rgb_scene000056_render000003.png,1,86,296,53,"[1, 0]",left,1,82,29,f,y,y,2019_Jul_16_1347,2AFC_task,60.00571253144645,
stimuli/rgb_scene000150_render000000.png,stimuli/rgb_scene000150_render000006.png,1,87,297,110,"[0, 1]",right,1,82,29,f,y,y,2019_Jul_16_1347,2AFC_task,60.00571253144645,
stimuli/rgb_scene000165_render000003.png,stimuli/rgb_scene000165_render000006.png,1,88,298,164,"[0, 1]",right,1,82,29,f,y,y,2019_Jul_16_1347,2AFC_task,60.00571253144645,
stimuli/rgb_scene000160_render000001.png,stimuli/rgb_scene000160_render000002.png,1,89,299,132,"[1, 0]",left,1,82,29,f,y,y,2019_Jul_16_1347,2AFC_task,60.00571253144645,
stimuli/rgb_scene000042_render000002.png,stimuli/rgb_scene000042_render000004.png,1,90,300,12,"[0, 1]",right,1,82,29,f,y,y,2019_Jul_16_1347,2AFC_task,60.00571253144645,
stimuli/rgb_scene000147_render000003.png,stimuli/rgb_scene000147_render000006.png,1,91,301,101,"[0, 1]",right,1,82,29,f,y,y,2019_Jul_16_1347,2AFC_task,60.00571253144645,
stimuli/rgb_scene000169_render000003.png,stimuli/rgb_scene000169_render000004.png,1,92,302,183,"[1, 0]",left,1,82,29,f,y,y,2019_Jul_16_1347,2AFC_task,60.00571253144645,
stimuli/rgb_scene000160_render000001.png,stimuli/rgb_scene000160_render000003.png,1,93,303,133,"[1, 0]",left,1,82,29,f,y,y,2019_Jul_16_1347,2AFC_task,60.00571253144645,
stimuli/rgb_scene000150_render000000.png,stimuli/rgb_scene000150_render000003.png,1,94,304,107,"[1, 0]",left,1,82,29,f,y,y,2019_Jul_16_1347,2AFC_task,60.00571253144645,
stimuli/rgb_scene000056_render000005.png,stimuli/rgb_scene000056_render000006.png,1,95,305,62,"[1, 0]",left,1,82,29,f,y,y,2019_Jul_16_1347,2AFC_task,60.00571253144645,
stimuli/rgb_scene000042_render000000.png,stimuli/rgb_scene000042_render000002.png,1,96,306,1,"[0, 1]",right,1,82,29,f,y,y,2019_Jul_16_1347,2AFC_task,60.00571253144645,
stimuli/rgb_scene000160_render000004.png,stimuli/rgb_scene000160_render000006.png,1,97,307,145,"[1, 0]",left,1,82,29,f,y,y,2019_Jul_16_1347,2AFC_task,60.00571253144645,
stimuli/rgb_scene000150_render000001.png,stimuli/rgb_scene000150_render000002.png,1,98,308,111,"[0, 1]",right,1,82,29,f,y,y,2019_Jul_16_1347,2AFC_task,60.00571253144645,
stimuli/rgb_scene000196_render000001.png,stimuli/rgb_scene000196_render000002.png,1,99,309,195,"[1, 0]",left,1,82,29,f,y,y,2019_Jul_16_1347,2AFC_task,60.00571253144645,
stimuli/rgb_scene000042_render000000.png,stimuli/rgb_scene000042_render000001.png,1,100,310,0,"[1, 0]",left,1,82,29,f,y,y,2019_Jul_16_1347,2AFC_task,60.00571253144645,
stimuli/rgb_scene000150_render000001.png,stimuli/rgb_scene000150_render000004.png,1,101,311,113,"[0, 1]",right,1,82,29,f,y,y,2019_Jul_16_1347,2AFC_task,60.00571253144645,
stimuli/rgb_scene000147_render000005.png,stimuli/rgb_scene000147_render000006.png,1,102,312,104,"[1, 0]",left,1,82,29,f,y,y,2019_Jul_16_1347,2AFC_task,60.00571253144645,
stimuli/rgb_scene000056_render000002.png,stimuli/rgb_scene000056_render000006.png,1,103,313,56,"[0, 1]",right,1,82,29,f,y,y,2019_Jul_16_1347,2AFC_task,60.00571253144645,
stimuli/rgb_scene000047_render000000.png,stimuli/rgb_scene000047_render000006.png,1,104,314,26,"[1, 0]",left,1,82,29,f,y,y,2019_Jul_16_1347,2AFC_task,60.00571253144645,
stimuli/rgb_scene000047_render000004.png,stimuli/rgb_scene000047_render000005.png,1,105,315,39,"[0, 1]",right,1,82,29,f,y,y,2019_Jul_16_1347,2AFC_task,60.00571253144645,
stimuli/rgb_scene000042_render000000.png,stimuli/rgb_scene000042_render000003.png,1,106,316,2,"[1, 0]",left,1,82,29,f,y,y,2019_Jul_16_1347,2AFC_task,60.00571253144645,
stimuli/rgb_scene000147_render000001.png,stimuli/rgb_scene000147_render000005.png,1,107,317,93,"[1, 0]",left,1,82,29,f,y,y,2019_Jul_16_1347,2AFC_task,60.00571253144645,
stimuli/rgb_scene000165_render000002.png,stimuli/rgb_scene000165_render000004.png,1,108,318,159,"[0, 1]",right,1,82,29,f,y,y,2019_Jul_16_1347,2AFC_task,60.00571253144645,
stimuli/rgb_scene000066_render000000.png,stimuli/rgb_scene000066_render000006.png,1,109,319,68,"[1, 0]",left,1,82,29,f,y,y,2019_Jul_16_1347,2AFC_task,60.00571253144645,
stimuli/rgb_scene000165_render000002.png,stimuli/rgb_scene000165_render000006.png,1,110,320,161,"[0, 1]",right,1,82,29,f,y,y,2019_Jul_16_1347,2AFC_task,60.00571253144645,
stimuli/rgb_scene000056_render000003.png,stimuli/rgb_scene000056_render000004.png,1,111,321,57,"[0, 1]",right,1,82,29,f,y,y,2019_Jul_16_1347,2AFC_task,60.00571253144645,
stimuli/rgb_scene000160_render000004.png,stimuli/rgb_scene000160_render000005.png,1,112,322,144,"[1, 0]",left,1,82,29,f,y,y,2019_Jul_16_1347,2AFC_task,60.00571253144645,
stimuli/rgb_scene000169_render000004.png,stimuli/rgb_scene000169_render000005.png,1,113,323,186,"[0, 1]",right,1,82,29,f,y,y,2019_Jul_16_1347,2AFC_task,60.00571253144645,
stimuli/rgb_scene000066_render000001.png,stimuli/rgb_scene000066_render000004.png,1,114,324,71,"[0, 1]",right,1,82,29,f,y,y,2019_Jul_16_1347,2AFC_task,60.00571253144645,
stimuli/rgb_scene000196_render000000.png,stimuli/rgb_scene000196_render000004.png,1,115,325,192,"[1, 0]",left,1,82,29,f,y,y,2019_Jul_16_1347,2AFC_task,60.00571253144645,
stimuli/rgb_scene000150_render000000.png,stimuli/rgb_scene000150_render000004.png,1,116,326,108,"[0, 1]",right,1,82,29,f,y,y,2019_Jul_16_1347,2AFC_task,60.00571253144645,
stimuli/rgb_scene000160_render000000.png,stimuli/rgb_scene000160_render000004.png,1,117,327,129,"[1, 0]",left,1,82,29,f,y,y,2019_Jul_16_1347,2AFC_task,60.00571253144645,
stimuli/rgb_scene000042_render000003.png,stimuli/rgb_scene000042_render000006.png,1,118,328,17,"[0, 1]",right,1,82,29,f,y,y,2019_Jul_16_1347,2AFC_task,60.00571253144645,
stimuli/rgb_scene000047_render000002.png,stimuli/rgb_scene000047_render000005.png,1,119,329,34,"[1, 0]",left,1,82,29,f,y,y,2019_Jul_16_1347,2AFC_task,60.00571253144645,
stimuli/rgb_scene000169_render000002.png,stimuli/rgb_scene000169_render000003.png,1,120,330,179,"[0, 1]",right,1,82,29,f,y,y,2019_Jul_16_1347,2AFC_task,60.00571253144645,
stimuli/rgb_scene000160_render000005.png,stimuli/rgb_scene000160_render000006.png,1,121,331,146,"[0, 1]",right,1,82,29,f,y,y,2019_Jul_16_1347,2AFC_task,60.00571253144645,
stimuli/rgb_scene000196_render000000.png,stimuli/rgb_scene000196_render000006.png,1,122,332,194,"[0, 1]",right,1,82,29,f,y,y,2019_Jul_16_1347,2AFC_task,60.00571253144645,
stimuli/rgb_scene000042_render000002.png,stimuli/rgb_scene000042_render000003.png,1,123,333,11,"[0, 1]",right,1,82,29,f,y,y,2019_Jul_16_1347,2AFC_task,60.00571253144645,
stimuli/rgb_scene000047_render000001.png,stimuli/rgb_scene000047_render000002.png,1,124,334,27,"[1, 0]",left,1,82,29,f,y,y,2019_Jul_16_1347,2AFC_task,60.00571253144645,
stimuli/rgb_scene000165_render000005.png,stimuli/rgb_scene000165_render000006.png,1,125,335,167,"[1, 0]",left,1,82,29,f,y,y,2019_Jul_16_1347,2AFC_task,60.00571253144645,
stimuli/rgb_scene000150_render000002.png,stimuli/rgb_scene000150_render000005.png,1,126,336,118,"[0, 1]",right,1,82,29,f,y,y,2019_Jul_16_1347,2AFC_task,60.00571253144645,
stimuli/rgb_scene000150_render000000.png,stimuli/rgb_scene000150_render000002.png,1,127,337,106,"[0, 1]",right,1,82,29,f,y,y,2019_Jul_16_1347,2AFC_task,60.00571253144645,
stimuli/rgb_scene000056_render000001.png,stimuli/rgb_scene000056_render000006.png,1,128,338,52,"[0, 1]",right,1,82,29,f,y,y,2019_Jul_16_1347,2AFC_task,60.00571253144645,
stimuli/rgb_scene000169_render000003.png,stimuli/rgb_scene000169_render000005.png,1,129,339,184,"[1, 0]",left,1,82,29,f,y,y,2019_Jul_16_1347,2AFC_task,60.00571253144645,
stimuli/rgb_scene000169_render000001.png,stimuli/rgb_scene000169_render000003.png,1,130,340,175,"[0, 1]",right,1,82,29,f,y,y,2019_Jul_16_1347,2AFC_task,60.00571253144645,
stimuli/rgb_scene000169_render000000.png,stimuli/rgb_scene000169_render000006.png,1,131,341,173,"[1, 0]",left,1,82,29,f,y,y,2019_Jul_16_1347,2AFC_task,60.00571253144645,
stimuli/rgb_scene000147_render000002.png,stimuli/rgb_scene000147_render000003.png,1,132,342,95,"[1, 0]",left,1,82,29,f,y,y,2019_Jul_16_1347,2AFC_task,60.00571253144645,
stimuli/rgb_scene000056_render000000.png,stimuli/rgb_scene000056_render000006.png,1,133,343,47,"[0, 1]",right,1,82,29,f,y,y,2019_Jul_16_1347,2AFC_task,60.00571253144645,
stimuli/rgb_scene000169_render000004.png,stimuli/rgb_scene000169_render000006.png,1,134,344,187,"[0, 1]",right,1,82,29,f,y,y,2019_Jul_16_1347,2AFC_task,60.00571253144645,
stimuli/rgb_scene000150_render000004.png,stimuli/rgb_scene000150_render000006.png,1,135,345,124,"[1, 0]",left,1,82,29,f,y,y,2019_Jul_16_1347,2AFC_task,60.00571253144645,
stimuli/rgb_scene000042_render000002.png,stimuli/rgb_scene000042_render000006.png,1,136,346,14,"[1, 0]",left,1,82,29,f,y,y,2019_Jul_16_1347,2AFC_task,60.00571253144645,
stimuli/rgb_scene000160_render000000.png,stimuli/rgb_scene000160_render000005.png,1,137,347,130,"[0, 1]",right,1,82,29,f,y,y,2019_Jul_16_1347,2AFC_task,60.00571253144645,
stimuli/rgb_scene000056_render000000.png,stimuli/rgb_scene000056_render000005.png,1,138,348,46,"[1, 0]",left,1,82,29,f,y,y,2019_Jul_16_1347,2AFC_task,60.00571253144645,
stimuli/rgb_scene000056_render000002.png,stimuli/rgb_scene000056_render000005.png,1,139,349,55,"[0, 1]",right,1,82,29,f,y,y,2019_Jul_16_1347,2AFC_task,60.00571253144645,
stimuli/rgb_scene000147_render000003.png,stimuli/rgb_scene000147_render000004.png,1,140,350,99,"[0, 1]",right,1,82,29,f,y,y,2019_Jul_16_1347,2AFC_task,60.00571253144645,
stimuli/rgb_scene000047_render000001.png,stimuli/rgb_scene000047_render000003.png,1,141,351,28,"[1, 0]",left,1,82,29,f,y,y,2019_Jul_16_1347,2AFC_task,60.00571253144645,
stimuli/rgb_scene000066_render000000.png,stimuli/rgb_scene000066_render000003.png,1,142,352,65,"[1, 0]",left,1,82,29,f,y,y,2019_Jul_16_1347,2AFC_task,60.00571253144645,
stimuli/rgb_scene000160_render000002.png,stimuli/rgb_scene000160_render000005.png,1,143,353,139,"[0, 1]",right,1,82,29,f,y,y,2019_Jul_16_1347,2AFC_task,60.00571253144645,
stimuli/rgb_scene000147_render000000.png,stimuli/rgb_scene000147_render000001.png,1,144,354,84,"[1, 0]",left,1,82,29,f,y,y,2019_Jul_16_1347,2AFC_task,60.00571253144645,
stimuli/rgb_scene000196_render000003.png,stimuli/rgb_scene000196_render000005.png,1,145,355,205,"[1, 0]",left,1,82,29,f,y,y,2019_Jul_16_1347,2AFC_task,60.00571253144645,
stimuli/rgb_scene000042_render000003.png,stimuli/rgb_scene000042_render000004.png,1,146,356,15,"[1, 0]",left,1,82,29,f,y,y,2019_Jul_16_1347,2AFC_task,60.00571253144645,
stimuli/rgb_scene000047_render000000.png,stimuli/rgb_scene000047_render000004.png,1,147,357,24,"[1, 0]",left,1,82,29,f,y,y,2019_Jul_16_1347,2AFC_task,60.00571253144645,
stimuli/rgb_scene000147_render000002.png,stimuli/rgb_scene000147_render000004.png,1,148,358,96,"[0, 1]",right,1,82,29,f,y,y,2019_Jul_16_1347,2AFC_task,60.00571253144645,
stimuli/rgb_scene000165_render000004.png,stimuli/rgb_scene000165_render000005.png,1,149,359,165,"[0, 1]",right,1,82,29,f,y,y,2019_Jul_16_1347,2AFC_task,60.00571253144645,
stimuli/rgb_scene000047_render000002.png,stimuli/rgb_scene000047_render000004.png,1,150,360,33,"[0, 1]",right,1,82,29,f,y,y,2019_Jul_16_1347,2AFC_task,60.00571253144645,
stimuli/rgb_scene000066_render000002.png,stimuli/rgb_scene000066_render000004.png,1,151,361,75,"[1, 0]",left,1,82,29,f,y,y,2019_Jul_16_1347,2AFC_task,60.00571253144645,
stimuli/rgb_scene000165_render000001.png,stimuli/rgb_scene000165_render000003.png,1,152,362,154,"[0, 1]",right,1,82,29,f,y,y,2019_Jul_16_1347,2AFC_task,60.00571253144645,
stimuli/rgb_scene000150_render000001.png,stimuli/rgb_scene000150_render000003.png,1,153,363,112,"[1, 0]",left,1,82,29,f,y,y,2019_Jul_16_1347,2AFC_task,60.00571253144645,
stimuli/rgb_scene000165_render000003.png,stimuli/rgb_scene000165_render000004.png,1,154,364,162,"[1, 0]",left,1,82,29,f,y,y,2019_Jul_16_1347,2AFC_task,60.00571253144645,
stimuli/rgb_scene000147_render000001.png,stimuli/rgb_scene000147_render000003.png,1,155,365,91,"[0, 1]",right,1,82,29,f,y,y,2019_Jul_16_1347,2AFC_task,60.00571253144645,
stimuli/rgb_scene000042_render000001.png,stimuli/rgb_scene000042_render000004.png,1,156,366,8,"[1, 0]",left,1,82,29,f,y,y,2019_Jul_16_1347,2AFC_task,60.00571253144645,
stimuli/rgb_scene000047_render000000.png,stimuli/rgb_scene000047_render000005.png,1,157,367,25,"[1, 0]",left,1,82,29,f,y,y,2019_Jul_16_1347,2AFC_task,60.00571253144645,
stimuli/rgb_scene000066_render000002.png,stimuli/rgb_scene000066_render000003.png,1,158,368,74,"[0, 1]",right,1,82,29,f,y,y,2019_Jul_16_1347,2AFC_task,60.00571253144645,
stimuli/rgb_scene000196_render000000.png,stimuli/rgb_scene000196_render000005.png,1,159,369,193,"[1, 0]",left,1,82,29,f,y,y,2019_Jul_16_1347,2AFC_task,60.00571253144645,
stimuli/rgb_scene000196_render000001.png,stimuli/rgb_scene000196_render000004.png,1,160,370,197,"[1, 0]",left,1,82,29,f,y,y,2019_Jul_16_1347,2AFC_task,60.00571253144645,
stimuli/rgb_scene000196_render000004.png,stimuli/rgb_scene000196_render000006.png,1,161,371,208,"[1, 0]",left,1,82,29,f,y,y,2019_Jul_16_1347,2AFC_task,60.00571253144645,
stimuli/rgb_scene000169_render000001.png,stimuli/rgb_scene000169_render000002.png,1,162,372,174,"[1, 0]",right,0,82,29,f,y,y,2019_Jul_16_1347,2AFC_task,60.00571253144645,
stimuli/rgb_scene000150_render000001.png,stimuli/rgb_scene000150_render000005.png,1,163,373,114,"[0, 1]",right,1,82,29,f,y,y,2019_Jul_16_1347,2AFC_task,60.00571253144645,
stimuli/rgb_scene000150_render000001.png,stimuli/rgb_scene000150_render000006.png,1,164,374,115,"[0, 1]",right,1,82,29,f,y,y,2019_Jul_16_1347,2AFC_task,60.00571253144645,
stimuli/rgb_scene000165_render000000.png,stimuli/rgb_scene000165_render000001.png,1,165,375,147,"[1, 0]",left,1,82,29,f,y,y,2019_Jul_16_1347,2AFC_task,60.00571253144645,
stimuli/rgb_scene000165_render000002.png,stimuli/rgb_scene000165_render000003.png,1,166,376,158,"[0, 1]",right,1,82,29,f,y,y,2019_Jul_16_1347,2AFC_task,60.00571253144645,
stimuli/rgb_scene000165_render000001.png,stimuli/rgb_scene000165_render000004.png,1,167,377,155,"[0, 1]",right,1,82,29,f,y,y,2019_Jul_16_1347,2AFC_task,60.00571253144645,
stimuli/rgb_scene000056_render000004.png,stimuli/rgb_scene000056_render000006.png,1,168,378,61,"[1, 0]",left,1,82,29,f,y,y,2019_Jul_16_1347,2AFC_task,60.00571253144645,
stimuli/rgb_scene000042_render000001.png,stimuli/rgb_scene000042_render000006.png,1,169,379,10,"[0, 1]",right,1,82,29,f,y,y,2019_Jul_16_1347,2AFC_task,60.00571253144645,
stimuli/rgb_scene000169_render000001.png,stimuli/rgb_scene000169_render000006.png,1,170,380,178,"[1, 0]",left,1,82,29,f,y,y,2019_Jul_16_1347,2AFC_task,60.00571253144645,
stimuli/rgb_scene000042_render000003.png,stimuli/rgb_scene000042_render000005.png,1,171,381,16,"[1, 0]",left,1,82,29,f,y,y,2019_Jul_16_1347,2AFC_task,60.00571253144645,
stimuli/rgb_scene000169_render000002.png,stimuli/rgb_scene000169_render000004.png,1,172,382,180,"[1, 0]",left,1,82,29,f,y,y,2019_Jul_16_1347,2AFC_task,60.00571253144645,
stimuli/rgb_scene000160_render000000.png,stimuli/rgb_scene000160_render000002.png,1,173,383,127,"[0, 1]",right,1,82,29,f,y,y,2019_Jul_16_1347,2AFC_task,60.00571253144645,
stimuli/rgb_scene000165_render000001.png,stimuli/rgb_scene000165_render000006.png,1,174,384,157,"[1, 0]",left,1,82,29,f,y,y,2019_Jul_16_1347,2AFC_task,60.00571253144645,
stimuli/rgb_scene000150_render000002.png,stimuli/rgb_scene000150_render000006.png,1,175,385,119,"[1, 0]",left,1,82,29,f,y,y,2019_Jul_16_1347,2AFC_task,60.00571253144645,
stimuli/rgb_scene000042_render000000.png,stimuli/rgb_scene000042_render000004.png,1,176,386,3,"[0, 1]",right,1,82,29,f,y,y,2019_Jul_16_1347,2AFC_task,60.00571253144645,
stimuli/rgb_scene000196_render000002.png,stimuli/rgb_scene000196_render000004.png,1,177,387,201,"[0, 1]",right,1,82,29,f,y,y,2019_Jul_16_1347,2AFC_task,60.00571253144645,
stimuli/rgb_scene000066_render000003.png,stimuli/rgb_scene000066_render000005.png,1,178,388,79,"[0, 1]",right,1,82,29,f,y,y,2019_Jul_16_1347,2AFC_task,60.00571253144645,
stimuli/rgb_scene000150_render000002.png,stimuli/rgb_scene000150_render000003.png,1,179,389,116,"[0, 1]",right,1,82,29,f,y,y,2019_Jul_16_1347,2AFC_task,60.00571253144645,
stimuli/rgb_scene000066_render000001.png,stimuli/rgb_scene000066_render000006.png,1,180,390,73,"[1, 0]",left,1,82,29,f,y,y,2019_Jul_16_1347,2AFC_task,60.00571253144645,
stimuli/rgb_scene000196_render000001.png,stimuli/rgb_scene000196_render000003.png,1,181,391,196,"[1, 0]",left,1,82,29,f,y,y,2019_Jul_16_1347,2AFC_task,60.00571253144645,
stimuli/rgb_scene000056_render000000.png,stimuli/rgb_scene000056_render000001.png,1,182,392,42,"[1, 0]",left,1,82,29,f,y,y,2019_Jul_16_1347,2AFC_task,60.00571253144645,
stimuli/rgb_scene000066_render000004.png,stimuli/rgb_scene000066_render000005.png,1,183,393,81,"[0, 1]",right,1,82,29,f,y,y,2019_Jul_16_1347,2AFC_task,60.00571253144645,
stimuli/rgb_scene000160_render000002.png,stimuli/rgb_scene000160_render000006.png,1,184,394,140,"[0, 1]",right,1,82,29,f,y,y,2019_Jul_16_1347,2AFC_task,60.00571253144645,
stimuli/rgb_scene000047_render000001.png,stimuli/rgb_scene000047_render000004.png,1,185,395,29,"[0, 1]",right,1,82,29,f,y,y,2019_Jul_16_1347,2AFC_task,60.00571253144645,
stimuli/rgb_scene000066_render000002.png,stimuli/rgb_scene000066_render000005.png,1,186,396,76,"[0, 1]",right,1,82,29,f,y,y,2019_Jul_16_1347,2AFC_task,60.00571253144645,
stimuli/rgb_scene000056_render000001.png,stimuli/rgb_scene000056_render000005.png,1,187,397,51,"[1, 0]",left,1,82,29,f,y,y,2019_Jul_16_1347,2AFC_task,60.00571253144645,
stimuli/rgb_scene000147_render000004.png,stimuli/rgb_scene000147_render000005.png,1,188,398,102,"[1, 0]",left,1,82,29,f,y,y,2019_Jul_16_1347,2AFC_task,60.00571253144645,
stimuli/rgb_scene000150_render000003.png,stimuli/rgb_scene000150_render000005.png,1,189,399,121,"[0, 1]",right,1,82,29,f,y,y,2019_Jul_16_1347,2AFC_task,60.00571253144645,
stimuli/rgb_scene000160_render000003.png,stimuli/rgb_scene000160_render000006.png,1,190,400,143,"[0, 1]",right,1,82,29,f,y,y,2019_Jul_16_1347,2AFC_task,60.00571253144645,
stimuli/rgb_scene000165_render000000.png,stimuli/rgb_scene000165_render000005.png,1,191,401,151,"[0, 1]",right,1,82,29,f,y,y,2019_Jul_16_1347,2AFC_task,60.00571253144645,
stimuli/rgb_scene000196_render000000.png,stimuli/rgb_scene000196_render000001.png,1,192,402,189,"[1, 0]",left,1,82,29,f,y,y,2019_Jul_16_1347,2AFC_task,60.00571253144645,
stimuli/rgb_scene000160_render000001.png,stimuli/rgb_scene000160_render000004.png,1,193,403,134,"[1, 0]",left,1,82,29,f,y,y,2019_Jul_16_1347,2AFC_task,60.00571253144645,
stimuli/rgb_scene000160_render000003.png,stimuli/rgb_scene000160_render000004.png,1,194,404,141,"[0, 1]",right,1,82,29,f,y,y,2019_Jul_16_1347,2AFC_task,60.00571253144645,
stimuli/rgb_scene000196_render000002.png,stimuli/rgb_scene000196_render000006.png,1,195,405,203,"[0, 1]",right,1,82,29,f,y,y,2019_Jul_16_1347,2AFC_task,60.00571253144645,
stimuli/rgb_scene000165_render000003.png,stimuli/rgb_scene000165_render000005.png,1,196,406,163,"[0, 1]",right,1,82,29,f,y,y,2019_Jul_16_1347,2AFC_task,60.00571253144645,
stimuli/rgb_scene000047_render000002.png,stimuli/rgb_scene000047_render000006.png,1,197,407,35,"[0, 1]",right,1,82,29,f,y,y,2019_Jul_16_1347,2AFC_task,60.00571253144645,
stimuli/rgb_scene000150_render000004.png,stimuli/rgb_scene000150_render000005.png,1,198,408,123,"[0, 1]",right,1,82,29,f,y,y,2019_Jul_16_1347,2AFC_task,60.00571253144645,
stimuli/rgb_scene000169_render000003.png,stimuli/rgb_scene000169_render000006.png,1,199,409,185,"[1, 0]",left,1,82,29,f,y,y,2019_Jul_16_1347,2AFC_task,60.00571253144645,
stimuli/rgb_scene000165_render000000.png,stimuli/rgb_scene000165_render000006.png,1,200,410,152,"[1, 0]",left,1,82,29,f,y,y,2019_Jul_16_1347,2AFC_task,60.00571253144645,
stimuli/rgb_scene000169_render000000.png,stimuli/rgb_scene000169_render000002.png,1,201,411,169,"[1, 0]",right,0,82,29,f,y,y,2019_Jul_16_1347,2AFC_task,60.00571253144645,
stimuli/rgb_scene000147_render000003.png,stimuli/rgb_scene000147_render000005.png,1,202,412,100,"[0, 1]",right,1,82,29,f,y,y,2019_Jul_16_1347,2AFC_task,60.00571253144645,
stimuli/rgb_scene000196_render000005.png,stimuli/rgb_scene000196_render000006.png,1,203,413,209,"[1, 0]",left,1,82,29,f,y,y,2019_Jul_16_1347,2AFC_task,60.00571253144645,
stimuli/rgb_scene000150_render000000.png,stimuli/rgb_scene000150_render000001.png,1,204,414,105,"[1, 0]",left,1,82,29,f,y,y,2019_Jul_16_1347,2AFC_task,60.00571253144645,
stimuli/rgb_scene000147_render000001.png,stimuli/rgb_scene000147_render000002.png,1,205,415,90,"[1, 0]",left,1,82,29,f,y,y,2019_Jul_16_1347,2AFC_task,60.00571253144645,
stimuli/rgb_scene000147_render000000.png,stimuli/rgb_scene000147_render000005.png,1,206,416,88,"[1, 0]",left,1,82,29,f,y,y,2019_Jul_16_1347,2AFC_task,60.00571253144645,
stimuli/rgb_scene000196_render000000.png,stimuli/rgb_scene000196_render000002.png,1,207,417,190,"[1, 0]",left,1,82,29,f,y,y,2019_Jul_16_1347,2AFC_task,60.00571253144645,
stimuli/rgb_scene000042_render000001.png,stimuli/rgb_scene000042_render000002.png,1,208,418,6,"[0, 1]",right,1,82,29,f,y,y,2019_Jul_16_1347,2AFC_task,60.00571253144645,
stimuli/rgb_scene000042_render000004.png,stimuli/rgb_scene000042_render000006.png,1,209,419,19,"[1, 0]",left,1,82,29,f,y,y,2019_Jul_16_1347,2AFC_task,60.00571253144645,
