stimOne,stimTwo,trials_1.thisRepN,trials_1.thisTrialN,trials_1.thisN,trials_1.thisIndex,presentation_positions,resp_key,corresponding_image,participant ID (two digits, e.g. 01),age,gender (m/f/-),normal or corrected-to-normal vision (y/n),normal colour vision (y/n),date,expName,frameRate,
stimuli/rgb_scene000165_render000002.png,stimuli/rgb_scene000165_render000003.png,0,0,0,158,"[0, 1]",right,1,87,25,f,y,y,2019_Jul_12_1449,2AFC_task,59.9393533627573,
stimuli/rgb_scene000147_render000001.png,stimuli/rgb_scene000147_render000006.png,0,1,1,94,"[1, 0]",left,1,87,25,f,y,y,2019_Jul_12_1449,2AFC_task,59.9393533627573,
stimuli/rgb_scene000047_render000001.png,stimuli/rgb_scene000047_render000003.png,0,2,2,28,"[0, 1]",right,1,87,25,f,y,y,2019_Jul_12_1449,2AFC_task,59.9393533627573,
stimuli/rgb_scene000056_render000000.png,stimuli/rgb_scene000056_render000006.png,0,3,3,47,"[0, 1]",right,1,87,25,f,y,y,2019_Jul_12_1449,2AFC_task,59.9393533627573,
stimuli/rgb_scene000150_render000001.png,stimuli/rgb_scene000150_render000002.png,0,4,4,111,"[1, 0]",left,1,87,25,f,y,y,2019_Jul_12_1449,2AFC_task,59.9393533627573,
stimuli/rgb_scene000056_render000002.png,stimuli/rgb_scene000056_render000003.png,0,5,5,53,"[0, 1]",right,1,87,25,f,y,y,2019_Jul_12_1449,2AFC_task,59.9393533627573,
stimuli/rgb_scene000196_render000004.png,stimuli/rgb_scene000196_render000006.png,0,6,6,208,"[1, 0]",right,0,87,25,f,y,y,2019_Jul_12_1449,2AFC_task,59.9393533627573,
stimuli/rgb_scene000147_render000003.png,stimuli/rgb_scene000147_render000004.png,0,7,7,99,"[0, 1]",right,1,87,25,f,y,y,2019_Jul_12_1449,2AFC_task,59.9393533627573,
stimuli/rgb_scene000150_render000002.png,stimuli/rgb_scene000150_render000004.png,0,8,8,117,"[1, 0]",left,1,87,25,f,y,y,2019_Jul_12_1449,2AFC_task,59.9393533627573,
stimuli/rgb_scene000147_render000001.png,stimuli/rgb_scene000147_render000005.png,0,9,9,93,"[1, 0]",left,1,87,25,f,y,y,2019_Jul_12_1449,2AFC_task,59.9393533627573,
stimuli/rgb_scene000042_render000001.png,stimuli/rgb_scene000042_render000002.png,0,10,10,6,"[1, 0]",left,1,87,25,f,y,y,2019_Jul_12_1449,2AFC_task,59.9393533627573,
stimuli/rgb_scene000042_render000000.png,stimuli/rgb_scene000042_render000003.png,0,11,11,2,"[0, 1]",right,1,87,25,f,y,y,2019_Jul_12_1449,2AFC_task,59.9393533627573,
stimuli/rgb_scene000160_render000002.png,stimuli/rgb_scene000160_render000005.png,0,12,12,139,"[1, 0]",left,1,87,25,f,y,y,2019_Jul_12_1449,2AFC_task,59.9393533627573,
stimuli/rgb_scene000042_render000002.png,stimuli/rgb_scene000042_render000005.png,0,13,13,13,"[1, 0]",left,1,87,25,f,y,y,2019_Jul_12_1449,2AFC_task,59.9393533627573,
stimuli/rgb_scene000160_render000004.png,stimuli/rgb_scene000160_render000006.png,0,14,14,145,"[0, 1]",right,1,87,25,f,y,y,2019_Jul_12_1449,2AFC_task,59.9393533627573,
stimuli/rgb_scene000147_render000003.png,stimuli/rgb_scene000147_render000005.png,0,15,15,100,"[0, 1]",right,1,87,25,f,y,y,2019_Jul_12_1449,2AFC_task,59.9393533627573,
stimuli/rgb_scene000160_render000000.png,stimuli/rgb_scene000160_render000006.png,0,16,16,131,"[1, 0]",left,1,87,25,f,y,y,2019_Jul_12_1449,2AFC_task,59.9393533627573,
stimuli/rgb_scene000066_render000005.png,stimuli/rgb_scene000066_render000006.png,0,17,17,83,"[1, 0]",left,1,87,25,f,y,y,2019_Jul_12_1449,2AFC_task,59.9393533627573,
stimuli/rgb_scene000150_render000000.png,stimuli/rgb_scene000150_render000004.png,0,18,18,108,"[0, 1]",right,1,87,25,f,y,y,2019_Jul_12_1449,2AFC_task,59.9393533627573,
stimuli/rgb_scene000196_render000002.png,stimuli/rgb_scene000196_render000005.png,0,19,19,202,"[1, 0]",right,0,87,25,f,y,y,2019_Jul_12_1449,2AFC_task,59.9393533627573,
stimuli/rgb_scene000160_render000001.png,stimuli/rgb_scene000160_render000004.png,0,20,20,134,"[0, 1]",right,1,87,25,f,y,y,2019_Jul_12_1449,2AFC_task,59.9393533627573,
stimuli/rgb_scene000165_render000003.png,stimuli/rgb_scene000165_render000005.png,0,21,21,163,"[1, 0]",left,1,87,25,f,y,y,2019_Jul_12_1449,2AFC_task,59.9393533627573,
stimuli/rgb_scene000066_render000001.png,stimuli/rgb_scene000066_render000002.png,0,22,22,69,"[0, 1]",right,1,87,25,f,y,y,2019_Jul_12_1449,2AFC_task,59.9393533627573,
stimuli/rgb_scene000160_render000004.png,stimuli/rgb_scene000160_render000005.png,0,23,23,144,"[1, 0]",left,1,87,25,f,y,y,2019_Jul_12_1449,2AFC_task,59.9393533627573,
stimuli/rgb_scene000165_render000001.png,stimuli/rgb_scene000165_render000004.png,0,24,24,155,"[1, 0]",left,1,87,25,f,y,y,2019_Jul_12_1449,2AFC_task,59.9393533627573,
stimuli/rgb_scene000160_render000002.png,stimuli/rgb_scene000160_render000004.png,0,25,25,138,"[1, 0]",left,1,87,25,f,y,y,2019_Jul_12_1449,2AFC_task,59.9393533627573,
stimuli/rgb_scene000160_render000000.png,stimuli/rgb_scene000160_render000003.png,0,26,26,128,"[1, 0]",left,1,87,25,f,y,y,2019_Jul_12_1449,2AFC_task,59.9393533627573,
stimuli/rgb_scene000169_render000000.png,stimuli/rgb_scene000169_render000003.png,0,27,27,170,"[1, 0]",right,0,87,25,f,y,y,2019_Jul_12_1449,2AFC_task,59.9393533627573,
stimuli/rgb_scene000066_render000000.png,stimuli/rgb_scene000066_render000006.png,0,28,28,68,"[0, 1]",right,1,87,25,f,y,y,2019_Jul_12_1449,2AFC_task,59.9393533627573,
stimuli/rgb_scene000047_render000001.png,stimuli/rgb_scene000047_render000004.png,0,29,29,29,"[1, 0]",left,1,87,25,f,y,y,2019_Jul_12_1449,2AFC_task,59.9393533627573,
stimuli/rgb_scene000196_render000000.png,stimuli/rgb_scene000196_render000002.png,0,30,30,190,"[0, 1]",right,1,87,25,f,y,y,2019_Jul_12_1449,2AFC_task,59.9393533627573,
stimuli/rgb_scene000147_render000004.png,stimuli/rgb_scene000147_render000005.png,0,31,31,102,"[0, 1]",right,1,87,25,f,y,y,2019_Jul_12_1449,2AFC_task,59.9393533627573,
stimuli/rgb_scene000042_render000003.png,stimuli/rgb_scene000042_render000005.png,0,32,32,16,"[1, 0]",left,1,87,25,f,y,y,2019_Jul_12_1449,2AFC_task,59.9393533627573,
stimuli/rgb_scene000066_render000000.png,stimuli/rgb_scene000066_render000003.png,0,33,33,65,"[1, 0]",left,1,87,25,f,y,y,2019_Jul_12_1449,2AFC_task,59.9393533627573,
stimuli/rgb_scene000056_render000003.png,stimuli/rgb_scene000056_render000004.png,0,34,34,57,"[0, 1]",right,1,87,25,f,y,y,2019_Jul_12_1449,2AFC_task,59.9393533627573,
stimuli/rgb_scene000056_render000001.png,stimuli/rgb_scene000056_render000004.png,0,35,35,50,"[0, 1]",right,1,87,25,f,y,y,2019_Jul_12_1449,2AFC_task,59.9393533627573,
stimuli/rgb_scene000160_render000001.png,stimuli/rgb_scene000160_render000006.png,0,36,36,136,"[0, 1]",right,1,87,25,f,y,y,2019_Jul_12_1449,2AFC_task,59.9393533627573,
stimuli/rgb_scene000147_render000000.png,stimuli/rgb_scene000147_render000004.png,0,37,37,87,"[0, 1]",right,1,87,25,f,y,y,2019_Jul_12_1449,2AFC_task,59.9393533627573,
stimuli/rgb_scene000165_render000004.png,stimuli/rgb_scene000165_render000006.png,0,38,38,166,"[0, 1]",right,1,87,25,f,y,y,2019_Jul_12_1449,2AFC_task,59.9393533627573,
stimuli/rgb_scene000047_render000003.png,stimuli/rgb_scene000047_render000006.png,0,39,39,38,"[1, 0]",left,1,87,25,f,y,y,2019_Jul_12_1449,2AFC_task,59.9393533627573,
stimuli/rgb_scene000056_render000001.png,stimuli/rgb_scene000056_render000006.png,0,40,40,52,"[1, 0]",left,1,87,25,f,y,y,2019_Jul_12_1449,2AFC_task,59.9393533627573,
stimuli/rgb_scene000066_render000004.png,stimuli/rgb_scene000066_render000005.png,0,41,41,81,"[0, 1]",right,1,87,25,f,y,y,2019_Jul_12_1449,2AFC_task,59.9393533627573,
stimuli/rgb_scene000169_render000005.png,stimuli/rgb_scene000169_render000006.png,0,42,42,188,"[0, 1]",right,1,87,25,f,y,y,2019_Jul_12_1449,2AFC_task,59.9393533627573,
stimuli/rgb_scene000165_render000002.png,stimuli/rgb_scene000165_render000004.png,0,43,43,159,"[1, 0]",left,1,87,25,f,y,y,2019_Jul_12_1449,2AFC_task,59.9393533627573,
stimuli/rgb_scene000160_render000002.png,stimuli/rgb_scene000160_render000003.png,0,44,44,137,"[1, 0]",left,1,87,25,f,y,y,2019_Jul_12_1449,2AFC_task,59.9393533627573,
stimuli/rgb_scene000056_render000002.png,stimuli/rgb_scene000056_render000006.png,0,45,45,56,"[1, 0]",left,1,87,25,f,y,y,2019_Jul_12_1449,2AFC_task,59.9393533627573,
stimuli/rgb_scene000066_render000000.png,stimuli/rgb_scene000066_render000002.png,0,46,46,64,"[0, 1]",right,1,87,25,f,y,y,2019_Jul_12_1449,2AFC_task,59.9393533627573,
stimuli/rgb_scene000147_render000001.png,stimuli/rgb_scene000147_render000004.png,0,47,47,92,"[0, 1]",right,1,87,25,f,y,y,2019_Jul_12_1449,2AFC_task,59.9393533627573,
stimuli/rgb_scene000056_render000001.png,stimuli/rgb_scene000056_render000003.png,0,48,48,49,"[1, 0]",left,1,87,25,f,y,y,2019_Jul_12_1449,2AFC_task,59.9393533627573,
stimuli/rgb_scene000160_render000001.png,stimuli/rgb_scene000160_render000005.png,0,49,49,135,"[0, 1]",right,1,87,25,f,y,y,2019_Jul_12_1449,2AFC_task,59.9393533627573,
stimuli/rgb_scene000165_render000000.png,stimuli/rgb_scene000165_render000002.png,0,50,50,148,"[1, 0]",left,1,87,25,f,y,y,2019_Jul_12_1449,2AFC_task,59.9393533627573,
stimuli/rgb_scene000042_render000005.png,stimuli/rgb_scene000042_render000006.png,0,51,51,20,"[0, 1]",right,1,87,25,f,y,y,2019_Jul_12_1449,2AFC_task,59.9393533627573,
stimuli/rgb_scene000147_render000000.png,stimuli/rgb_scene000147_render000001.png,0,52,52,84,"[0, 1]",right,1,87,25,f,y,y,2019_Jul_12_1449,2AFC_task,59.9393533627573,
stimuli/rgb_scene000169_render000003.png,stimuli/rgb_scene000169_render000005.png,0,53,53,184,"[1, 0]",right,0,87,25,f,y,y,2019_Jul_12_1449,2AFC_task,59.9393533627573,
stimuli/rgb_scene000066_render000001.png,stimuli/rgb_scene000066_render000006.png,0,54,54,73,"[0, 1]",right,1,87,25,f,y,y,2019_Jul_12_1449,2AFC_task,59.9393533627573,
stimuli/rgb_scene000165_render000001.png,stimuli/rgb_scene000165_render000002.png,0,55,55,153,"[1, 0]",left,1,87,25,f,y,y,2019_Jul_12_1449,2AFC_task,59.9393533627573,
stimuli/rgb_scene000150_render000003.png,stimuli/rgb_scene000150_render000006.png,0,56,56,122,"[1, 0]",left,1,87,25,f,y,y,2019_Jul_12_1449,2AFC_task,59.9393533627573,
stimuli/rgb_scene000196_render000000.png,stimuli/rgb_scene000196_render000001.png,0,57,57,189,"[1, 0]",right,0,87,25,f,y,y,2019_Jul_12_1449,2AFC_task,59.9393533627573,
stimuli/rgb_scene000165_render000001.png,stimuli/rgb_scene000165_render000006.png,0,58,58,157,"[1, 0]",left,1,87,25,f,y,y,2019_Jul_12_1449,2AFC_task,59.9393533627573,
stimuli/rgb_scene000165_render000005.png,stimuli/rgb_scene000165_render000006.png,0,59,59,167,"[1, 0]",left,1,87,25,f,y,y,2019_Jul_12_1449,2AFC_task,59.9393533627573,
stimuli/rgb_scene000196_render000005.png,stimuli/rgb_scene000196_render000006.png,0,60,60,209,"[0, 1]",left,0,87,25,f,y,y,2019_Jul_12_1449,2AFC_task,59.9393533627573,
stimuli/rgb_scene000042_render000002.png,stimuli/rgb_scene000042_render000003.png,0,61,61,11,"[0, 1]",right,1,87,25,f,y,y,2019_Jul_12_1449,2AFC_task,59.9393533627573,
stimuli/rgb_scene000165_render000000.png,stimuli/rgb_scene000165_render000001.png,0,62,62,147,"[0, 1]",right,1,87,25,f,y,y,2019_Jul_12_1449,2AFC_task,59.9393533627573,
stimuli/rgb_scene000196_render000001.png,stimuli/rgb_scene000196_render000002.png,0,63,63,195,"[0, 1]",right,1,87,25,f,y,y,2019_Jul_12_1449,2AFC_task,59.9393533627573,
stimuli/rgb_scene000160_render000000.png,stimuli/rgb_scene000160_render000002.png,0,64,64,127,"[0, 1]",right,1,87,25,f,y,y,2019_Jul_12_1449,2AFC_task,59.9393533627573,
stimuli/rgb_scene000196_render000001.png,stimuli/rgb_scene000196_render000005.png,0,65,65,198,"[1, 0]",right,0,87,25,f,y,y,2019_Jul_12_1449,2AFC_task,59.9393533627573,
stimuli/rgb_scene000169_render000002.png,stimuli/rgb_scene000169_render000005.png,0,66,66,181,"[0, 1]",left,0,87,25,f,y,y,2019_Jul_12_1449,2AFC_task,59.9393533627573,
stimuli/rgb_scene000165_render000000.png,stimuli/rgb_scene000165_render000004.png,0,67,67,150,"[0, 1]",right,1,87,25,f,y,y,2019_Jul_12_1449,2AFC_task,59.9393533627573,
stimuli/rgb_scene000196_render000000.png,stimuli/rgb_scene000196_render000003.png,0,68,68,191,"[0, 1]",right,1,87,25,f,y,y,2019_Jul_12_1449,2AFC_task,59.9393533627573,
stimuli/rgb_scene000042_render000000.png,stimuli/rgb_scene000042_render000005.png,0,69,69,4,"[0, 1]",right,1,87,25,f,y,y,2019_Jul_12_1449,2AFC_task,59.9393533627573,
stimuli/rgb_scene000169_render000001.png,stimuli/rgb_scene000169_render000003.png,0,70,70,175,"[1, 0]",right,0,87,25,f,y,y,2019_Jul_12_1449,2AFC_task,59.9393533627573,
stimuli/rgb_scene000165_render000002.png,stimuli/rgb_scene000165_render000006.png,0,71,71,161,"[0, 1]",right,1,87,25,f,y,y,2019_Jul_12_1449,2AFC_task,59.9393533627573,
stimuli/rgb_scene000169_render000000.png,stimuli/rgb_scene000169_render000002.png,0,72,72,169,"[0, 1]",left,0,87,25,f,y,y,2019_Jul_12_1449,2AFC_task,59.9393533627573,
stimuli/rgb_scene000150_render000005.png,stimuli/rgb_scene000150_render000006.png,0,73,73,125,"[0, 1]",left,0,87,25,f,y,y,2019_Jul_12_1449,2AFC_task,59.9393533627573,
stimuli/rgb_scene000047_render000003.png,stimuli/rgb_scene000047_render000004.png,0,74,74,36,"[0, 1]",left,0,87,25,f,y,y,2019_Jul_12_1449,2AFC_task,59.9393533627573,
stimuli/rgb_scene000196_render000003.png,stimuli/rgb_scene000196_render000005.png,0,75,75,205,"[1, 0]",right,0,87,25,f,y,y,2019_Jul_12_1449,2AFC_task,59.9393533627573,
stimuli/rgb_scene000066_render000001.png,stimuli/rgb_scene000066_render000004.png,0,76,76,71,"[1, 0]",left,1,87,25,f,y,y,2019_Jul_12_1449,2AFC_task,59.9393533627573,
stimuli/rgb_scene000056_render000000.png,stimuli/rgb_scene000056_render000001.png,0,77,77,42,"[0, 1]",left,0,87,25,f,y,y,2019_Jul_12_1449,2AFC_task,59.9393533627573,
stimuli/rgb_scene000160_render000000.png,stimuli/rgb_scene000160_render000004.png,0,78,78,129,"[1, 0]",left,1,87,25,f,y,y,2019_Jul_12_1449,2AFC_task,59.9393533627573,
stimuli/rgb_scene000042_render000004.png,stimuli/rgb_scene000042_render000006.png,0,79,79,19,"[1, 0]",left,1,87,25,f,y,y,2019_Jul_12_1449,2AFC_task,59.9393533627573,
stimuli/rgb_scene000165_render000003.png,stimuli/rgb_scene000165_render000004.png,0,80,80,162,"[1, 0]",left,1,87,25,f,y,y,2019_Jul_12_1449,2AFC_task,59.9393533627573,
stimuli/rgb_scene000196_render000001.png,stimuli/rgb_scene000196_render000003.png,0,81,81,196,"[0, 1]",right,1,87,25,f,y,y,2019_Jul_12_1449,2AFC_task,59.9393533627573,
stimuli/rgb_scene000042_render000001.png,stimuli/rgb_scene000042_render000004.png,0,82,82,8,"[1, 0]",left,1,87,25,f,y,y,2019_Jul_12_1449,2AFC_task,59.9393533627573,
stimuli/rgb_scene000150_render000000.png,stimuli/rgb_scene000150_render000001.png,0,83,83,105,"[0, 1]",right,1,87,25,f,y,y,2019_Jul_12_1449,2AFC_task,59.9393533627573,
stimuli/rgb_scene000047_render000004.png,stimuli/rgb_scene000047_render000006.png,0,84,84,40,"[1, 0]",left,1,87,25,f,y,y,2019_Jul_12_1449,2AFC_task,59.9393533627573,
stimuli/rgb_scene000169_render000002.png,stimuli/rgb_scene000169_render000004.png,0,85,85,180,"[0, 1]",left,0,87,25,f,y,y,2019_Jul_12_1449,2AFC_task,59.9393533627573,
stimuli/rgb_scene000047_render000000.png,stimuli/rgb_scene000047_render000001.png,0,86,86,21,"[1, 0]",left,1,87,25,f,y,y,2019_Jul_12_1449,2AFC_task,59.9393533627573,
stimuli/rgb_scene000165_render000002.png,stimuli/rgb_scene000165_render000005.png,0,87,87,160,"[1, 0]",left,1,87,25,f,y,y,2019_Jul_12_1449,2AFC_task,59.9393533627573,
stimuli/rgb_scene000147_render000003.png,stimuli/rgb_scene000147_render000006.png,0,88,88,101,"[0, 1]",right,1,87,25,f,y,y,2019_Jul_12_1449,2AFC_task,59.9393533627573,
stimuli/rgb_scene000165_render000001.png,stimuli/rgb_scene000165_render000003.png,0,89,89,154,"[1, 0]",left,1,87,25,f,y,y,2019_Jul_12_1449,2AFC_task,59.9393533627573,
stimuli/rgb_scene000047_render000000.png,stimuli/rgb_scene000047_render000005.png,0,90,90,25,"[0, 1]",right,1,87,25,f,y,y,2019_Jul_12_1449,2AFC_task,59.9393533627573,
stimuli/rgb_scene000056_render000003.png,stimuli/rgb_scene000056_render000005.png,0,91,91,58,"[0, 1]",right,1,87,25,f,y,y,2019_Jul_12_1449,2AFC_task,59.9393533627573,
stimuli/rgb_scene000042_render000001.png,stimuli/rgb_scene000042_render000003.png,0,92,92,7,"[1, 0]",left,1,87,25,f,y,y,2019_Jul_12_1449,2AFC_task,59.9393533627573,
stimuli/rgb_scene000047_render000002.png,stimuli/rgb_scene000047_render000003.png,0,93,93,32,"[1, 0]",left,1,87,25,f,y,y,2019_Jul_12_1449,2AFC_task,59.9393533627573,
stimuli/rgb_scene000066_render000002.png,stimuli/rgb_scene000066_render000003.png,0,94,94,74,"[0, 1]",right,1,87,25,f,y,y,2019_Jul_12_1449,2AFC_task,59.9393533627573,
stimuli/rgb_scene000160_render000001.png,stimuli/rgb_scene000160_render000002.png,0,95,95,132,"[1, 0]",left,1,87,25,f,y,y,2019_Jul_12_1449,2AFC_task,59.9393533627573,
stimuli/rgb_scene000150_render000000.png,stimuli/rgb_scene000150_render000005.png,0,96,96,109,"[0, 1]",right,1,87,25,f,y,y,2019_Jul_12_1449,2AFC_task,59.9393533627573,
stimuli/rgb_scene000160_render000002.png,stimuli/rgb_scene000160_render000006.png,0,97,97,140,"[1, 0]",left,1,87,25,f,y,y,2019_Jul_12_1449,2AFC_task,59.9393533627573,
stimuli/rgb_scene000165_render000001.png,stimuli/rgb_scene000165_render000005.png,0,98,98,156,"[1, 0]",left,1,87,25,f,y,y,2019_Jul_12_1449,2AFC_task,59.9393533627573,
stimuli/rgb_scene000042_render000003.png,stimuli/rgb_scene000042_render000006.png,0,99,99,17,"[1, 0]",left,1,87,25,f,y,y,2019_Jul_12_1449,2AFC_task,59.9393533627573,
stimuli/rgb_scene000196_render000002.png,stimuli/rgb_scene000196_render000003.png,0,100,100,200,"[0, 1]",right,1,87,25,f,y,y,2019_Jul_12_1449,2AFC_task,59.9393533627573,
stimuli/rgb_scene000196_render000003.png,stimuli/rgb_scene000196_render000006.png,0,101,101,206,"[0, 1]",left,0,87,25,f,y,y,2019_Jul_12_1449,2AFC_task,59.9393533627573,
stimuli/rgb_scene000169_render000002.png,stimuli/rgb_scene000169_render000003.png,0,102,102,179,"[1, 0]",right,0,87,25,f,y,y,2019_Jul_12_1449,2AFC_task,59.9393533627573,
stimuli/rgb_scene000196_render000000.png,stimuli/rgb_scene000196_render000004.png,0,103,103,192,"[1, 0]",right,0,87,25,f,y,y,2019_Jul_12_1449,2AFC_task,59.9393533627573,
stimuli/rgb_scene000047_render000000.png,stimuli/rgb_scene000047_render000006.png,0,104,104,26,"[1, 0]",left,1,87,25,f,y,y,2019_Jul_12_1449,2AFC_task,59.9393533627573,
stimuli/rgb_scene000066_render000000.png,stimuli/rgb_scene000066_render000005.png,0,105,105,67,"[0, 1]",right,1,87,25,f,y,y,2019_Jul_12_1449,2AFC_task,59.9393533627573,
stimuli/rgb_scene000066_render000003.png,stimuli/rgb_scene000066_render000004.png,0,106,106,78,"[1, 0]",left,1,87,25,f,y,y,2019_Jul_12_1449,2AFC_task,59.9393533627573,
stimuli/rgb_scene000196_render000000.png,stimuli/rgb_scene000196_render000005.png,0,107,107,193,"[1, 0]",left,1,87,25,f,y,y,2019_Jul_12_1449,2AFC_task,59.9393533627573,
stimuli/rgb_scene000047_render000001.png,stimuli/rgb_scene000047_render000002.png,0,108,108,27,"[1, 0]",left,1,87,25,f,y,y,2019_Jul_12_1449,2AFC_task,59.9393533627573,
stimuli/rgb_scene000150_render000001.png,stimuli/rgb_scene000150_render000003.png,0,109,109,112,"[0, 1]",right,1,87,25,f,y,y,2019_Jul_12_1449,2AFC_task,59.9393533627573,
stimuli/rgb_scene000056_render000000.png,stimuli/rgb_scene000056_render000005.png,0,110,110,46,"[1, 0]",left,1,87,25,f,y,y,2019_Jul_12_1449,2AFC_task,59.9393533627573,
stimuli/rgb_scene000042_render000001.png,stimuli/rgb_scene000042_render000005.png,0,111,111,9,"[0, 1]",right,1,87,25,f,y,y,2019_Jul_12_1449,2AFC_task,59.9393533627573,
stimuli/rgb_scene000042_render000000.png,stimuli/rgb_scene000042_render000004.png,0,112,112,3,"[0, 1]",right,1,87,25,f,y,y,2019_Jul_12_1449,2AFC_task,59.9393533627573,
stimuli/rgb_scene000169_render000001.png,stimuli/rgb_scene000169_render000006.png,0,113,113,178,"[0, 1]",left,0,87,25,f,y,y,2019_Jul_12_1449,2AFC_task,59.9393533627573,
stimuli/rgb_scene000160_render000005.png,stimuli/rgb_scene000160_render000006.png,0,114,114,146,"[0, 1]",right,1,87,25,f,y,y,2019_Jul_12_1449,2AFC_task,59.9393533627573,
stimuli/rgb_scene000169_render000000.png,stimuli/rgb_scene000169_render000004.png,0,115,115,171,"[1, 0]",right,0,87,25,f,y,y,2019_Jul_12_1449,2AFC_task,59.9393533627573,
stimuli/rgb_scene000066_render000000.png,stimuli/rgb_scene000066_render000001.png,0,116,116,63,"[1, 0]",left,1,87,25,f,y,y,2019_Jul_12_1449,2AFC_task,59.9393533627573,
stimuli/rgb_scene000066_render000002.png,stimuli/rgb_scene000066_render000004.png,0,117,117,75,"[0, 1]",right,1,87,25,f,y,y,2019_Jul_12_1449,2AFC_task,59.9393533627573,
stimuli/rgb_scene000056_render000001.png,stimuli/rgb_scene000056_render000002.png,0,118,118,48,"[1, 0]",left,1,87,25,f,y,y,2019_Jul_12_1449,2AFC_task,59.9393533627573,
stimuli/rgb_scene000160_render000003.png,stimuli/rgb_scene000160_render000004.png,0,119,119,141,"[0, 1]",right,1,87,25,f,y,y,2019_Jul_12_1449,2AFC_task,59.9393533627573,
stimuli/rgb_scene000169_render000002.png,stimuli/rgb_scene000169_render000006.png,0,120,120,182,"[0, 1]",left,0,87,25,f,y,y,2019_Jul_12_1449,2AFC_task,59.9393533627573,
stimuli/rgb_scene000056_render000005.png,stimuli/rgb_scene000056_render000006.png,0,121,121,62,"[1, 0]",left,1,87,25,f,y,y,2019_Jul_12_1449,2AFC_task,59.9393533627573,
stimuli/rgb_scene000169_render000000.png,stimuli/rgb_scene000169_render000005.png,0,122,122,172,"[0, 1]",left,0,87,25,f,y,y,2019_Jul_12_1449,2AFC_task,59.9393533627573,
stimuli/rgb_scene000150_render000000.png,stimuli/rgb_scene000150_render000002.png,0,123,123,106,"[1, 0]",left,1,87,25,f,y,y,2019_Jul_12_1449,2AFC_task,59.9393533627573,
stimuli/rgb_scene000056_render000004.png,stimuli/rgb_scene000056_render000006.png,0,124,124,61,"[1, 0]",left,1,87,25,f,y,y,2019_Jul_12_1449,2AFC_task,59.9393533627573,
stimuli/rgb_scene000056_render000000.png,stimuli/rgb_scene000056_render000003.png,0,125,125,44,"[1, 0]",left,1,87,25,f,y,y,2019_Jul_12_1449,2AFC_task,59.9393533627573,
stimuli/rgb_scene000147_render000005.png,stimuli/rgb_scene000147_render000006.png,0,126,126,104,"[0, 1]",right,1,87,25,f,y,y,2019_Jul_12_1449,2AFC_task,59.9393533627573,
stimuli/rgb_scene000150_render000000.png,stimuli/rgb_scene000150_render000003.png,0,127,127,107,"[0, 1]",right,1,87,25,f,y,y,2019_Jul_12_1449,2AFC_task,59.9393533627573,
stimuli/rgb_scene000160_render000003.png,stimuli/rgb_scene000160_render000005.png,0,128,128,142,"[0, 1]",right,1,87,25,f,y,y,2019_Jul_12_1449,2AFC_task,59.9393533627573,
stimuli/rgb_scene000047_render000002.png,stimuli/rgb_scene000047_render000005.png,0,129,129,34,"[0, 1]",right,1,87,25,f,y,y,2019_Jul_12_1449,2AFC_task,59.9393533627573,
stimuli/rgb_scene000147_render000001.png,stimuli/rgb_scene000147_render000002.png,0,130,130,90,"[0, 1]",right,1,87,25,f,y,y,2019_Jul_12_1449,2AFC_task,59.9393533627573,
stimuli/rgb_scene000150_render000004.png,stimuli/rgb_scene000150_render000005.png,0,131,131,123,"[0, 1]",left,0,87,25,f,y,y,2019_Jul_12_1449,2AFC_task,59.9393533627573,
stimuli/rgb_scene000042_render000004.png,stimuli/rgb_scene000042_render000005.png,0,132,132,18,"[0, 1]",right,1,87,25,f,y,y,2019_Jul_12_1449,2AFC_task,59.9393533627573,
stimuli/rgb_scene000042_render000000.png,stimuli/rgb_scene000042_render000002.png,0,133,133,1,"[1, 0]",left,1,87,25,f,y,y,2019_Jul_12_1449,2AFC_task,59.9393533627573,
stimuli/rgb_scene000160_render000000.png,stimuli/rgb_scene000160_render000001.png,0,134,134,126,"[1, 0]",left,1,87,25,f,y,y,2019_Jul_12_1449,2AFC_task,59.9393533627573,
stimuli/rgb_scene000196_render000001.png,stimuli/rgb_scene000196_render000006.png,0,135,135,199,"[0, 1]",left,0,87,25,f,y,y,2019_Jul_12_1449,2AFC_task,59.9393533627573,
stimuli/rgb_scene000147_render000000.png,stimuli/rgb_scene000147_render000006.png,0,136,136,89,"[0, 1]",right,1,87,25,f,y,y,2019_Jul_12_1449,2AFC_task,59.9393533627573,
stimuli/rgb_scene000169_render000003.png,stimuli/rgb_scene000169_render000004.png,0,137,137,183,"[0, 1]",left,0,87,25,f,y,y,2019_Jul_12_1449,2AFC_task,59.9393533627573,
stimuli/rgb_scene000147_render000000.png,stimuli/rgb_scene000147_render000005.png,0,138,138,88,"[0, 1]",right,1,87,25,f,y,y,2019_Jul_12_1449,2AFC_task,59.9393533627573,
stimuli/rgb_scene000056_render000004.png,stimuli/rgb_scene000056_render000005.png,0,139,139,60,"[1, 0]",left,1,87,25,f,y,y,2019_Jul_12_1449,2AFC_task,59.9393533627573,
stimuli/rgb_scene000047_render000002.png,stimuli/rgb_scene000047_render000004.png,0,140,140,33,"[0, 1]",right,1,87,25,f,y,y,2019_Jul_12_1449,2AFC_task,59.9393533627573,
stimuli/rgb_scene000196_render000002.png,stimuli/rgb_scene000196_render000006.png,0,141,141,203,"[0, 1]",left,0,87,25,f,y,y,2019_Jul_12_1449,2AFC_task,59.9393533627573,
stimuli/rgb_scene000165_render000000.png,stimuli/rgb_scene000165_render000006.png,0,142,142,152,"[0, 1]",right,1,87,25,f,y,y,2019_Jul_12_1449,2AFC_task,59.9393533627573,
stimuli/rgb_scene000169_render000001.png,stimuli/rgb_scene000169_render000005.png,0,143,143,177,"[0, 1]",right,1,87,25,f,y,y,2019_Jul_12_1449,2AFC_task,59.9393533627573,
stimuli/rgb_scene000196_render000003.png,stimuli/rgb_scene000196_render000004.png,0,144,144,204,"[1, 0]",right,0,87,25,f,y,y,2019_Jul_12_1449,2AFC_task,59.9393533627573,
stimuli/rgb_scene000169_render000004.png,stimuli/rgb_scene000169_render000006.png,0,145,145,187,"[1, 0]",right,0,87,25,f,y,y,2019_Jul_12_1449,2AFC_task,59.9393533627573,
stimuli/rgb_scene000150_render000004.png,stimuli/rgb_scene000150_render000006.png,0,146,146,124,"[1, 0]",right,0,87,25,f,y,y,2019_Jul_12_1449,2AFC_task,59.9393533627573,
stimuli/rgb_scene000056_render000002.png,stimuli/rgb_scene000056_render000005.png,0,147,147,55,"[0, 1]",right,1,87,25,f,y,y,2019_Jul_12_1449,2AFC_task,59.9393533627573,
stimuli/rgb_scene000056_render000001.png,stimuli/rgb_scene000056_render000005.png,0,148,148,51,"[0, 1]",right,1,87,25,f,y,y,2019_Jul_12_1449,2AFC_task,59.9393533627573,
stimuli/rgb_scene000047_render000004.png,stimuli/rgb_scene000047_render000005.png,0,149,149,39,"[1, 0]",left,1,87,25,f,y,y,2019_Jul_12_1449,2AFC_task,59.9393533627573,
stimuli/rgb_scene000056_render000003.png,stimuli/rgb_scene000056_render000006.png,0,150,150,59,"[0, 1]",right,1,87,25,f,y,y,2019_Jul_12_1449,2AFC_task,59.9393533627573,
stimuli/rgb_scene000066_render000001.png,stimuli/rgb_scene000066_render000003.png,0,151,151,70,"[1, 0]",left,1,87,25,f,y,y,2019_Jul_12_1449,2AFC_task,59.9393533627573,
stimuli/rgb_scene000196_render000001.png,stimuli/rgb_scene000196_render000004.png,0,152,152,197,"[1, 0]",right,0,87,25,f,y,y,2019_Jul_12_1449,2AFC_task,59.9393533627573,
stimuli/rgb_scene000169_render000000.png,stimuli/rgb_scene000169_render000006.png,0,153,153,173,"[1, 0]",right,0,87,25,f,y,y,2019_Jul_12_1449,2AFC_task,59.9393533627573,
stimuli/rgb_scene000066_render000003.png,stimuli/rgb_scene000066_render000005.png,0,154,154,79,"[1, 0]",left,1,87,25,f,y,y,2019_Jul_12_1449,2AFC_task,59.9393533627573,
stimuli/rgb_scene000147_render000002.png,stimuli/rgb_scene000147_render000003.png,0,155,155,95,"[1, 0]",left,1,87,25,f,y,y,2019_Jul_12_1449,2AFC_task,59.9393533627573,
stimuli/rgb_scene000042_render000002.png,stimuli/rgb_scene000042_render000004.png,0,156,156,12,"[1, 0]",left,1,87,25,f,y,y,2019_Jul_12_1449,2AFC_task,59.9393533627573,
stimuli/rgb_scene000150_render000001.png,stimuli/rgb_scene000150_render000004.png,0,157,157,113,"[1, 0]",left,1,87,25,f,y,y,2019_Jul_12_1449,2AFC_task,59.9393533627573,
stimuli/rgb_scene000066_render000002.png,stimuli/rgb_scene000066_render000005.png,0,158,158,76,"[0, 1]",right,1,87,25,f,y,y,2019_Jul_12_1449,2AFC_task,59.9393533627573,
stimuli/rgb_scene000042_render000001.png,stimuli/rgb_scene000042_render000006.png,0,159,159,10,"[0, 1]",right,1,87,25,f,y,y,2019_Jul_12_1449,2AFC_task,59.9393533627573,
stimuli/rgb_scene000150_render000003.png,stimuli/rgb_scene000150_render000005.png,0,160,160,121,"[0, 1]",right,1,87,25,f,y,y,2019_Jul_12_1449,2AFC_task,59.9393533627573,
stimuli/rgb_scene000169_render000001.png,stimuli/rgb_scene000169_render000004.png,0,161,161,176,"[1, 0]",right,0,87,25,f,y,y,2019_Jul_12_1449,2AFC_task,59.9393533627573,
stimuli/rgb_scene000047_render000001.png,stimuli/rgb_scene000047_render000006.png,0,162,162,31,"[0, 1]",right,1,87,25,f,y,y,2019_Jul_12_1449,2AFC_task,59.9393533627573,
stimuli/rgb_scene000042_render000000.png,stimuli/rgb_scene000042_render000006.png,0,163,163,5,"[0, 1]",right,1,87,25,f,y,y,2019_Jul_12_1449,2AFC_task,59.9393533627573,
stimuli/rgb_scene000165_render000004.png,stimuli/rgb_scene000165_render000005.png,0,164,164,165,"[0, 1]",left,0,87,25,f,y,y,2019_Jul_12_1449,2AFC_task,59.9393533627573,
stimuli/rgb_scene000047_render000001.png,stimuli/rgb_scene000047_render000005.png,0,165,165,30,"[0, 1]",right,1,87,25,f,y,y,2019_Jul_12_1449,2AFC_task,59.9393533627573,
stimuli/rgb_scene000165_render000000.png,stimuli/rgb_scene000165_render000005.png,0,166,166,151,"[1, 0]",left,1,87,25,f,y,y,2019_Jul_12_1449,2AFC_task,59.9393533627573,
stimuli/rgb_scene000150_render000000.png,stimuli/rgb_scene000150_render000006.png,0,167,167,110,"[1, 0]",left,1,87,25,f,y,y,2019_Jul_12_1449,2AFC_task,59.9393533627573,
stimuli/rgb_scene000047_render000000.png,stimuli/rgb_scene000047_render000002.png,0,168,168,22,"[0, 1]",right,1,87,25,f,y,y,2019_Jul_12_1449,2AFC_task,59.9393533627573,
stimuli/rgb_scene000056_render000002.png,stimuli/rgb_scene000056_render000004.png,0,169,169,54,"[1, 0]",left,1,87,25,f,y,y,2019_Jul_12_1449,2AFC_task,59.9393533627573,
stimuli/rgb_scene000047_render000000.png,stimuli/rgb_scene000047_render000003.png,0,170,170,23,"[0, 1]",right,1,87,25,f,y,y,2019_Jul_12_1449,2AFC_task,59.9393533627573,
stimuli/rgb_scene000047_render000003.png,stimuli/rgb_scene000047_render000005.png,0,171,171,37,"[1, 0]",left,1,87,25,f,y,y,2019_Jul_12_1449,2AFC_task,59.9393533627573,
stimuli/rgb_scene000160_render000001.png,stimuli/rgb_scene000160_render000003.png,0,172,172,133,"[0, 1]",right,1,87,25,f,y,y,2019_Jul_12_1449,2AFC_task,59.9393533627573,
stimuli/rgb_scene000147_render000000.png,stimuli/rgb_scene000147_render000002.png,0,173,173,85,"[1, 0]",left,1,87,25,f,y,y,2019_Jul_12_1449,2AFC_task,59.9393533627573,
stimuli/rgb_scene000056_render000000.png,stimuli/rgb_scene000056_render000002.png,0,174,174,43,"[1, 0]",left,1,87,25,f,y,y,2019_Jul_12_1449,2AFC_task,59.9393533627573,
stimuli/rgb_scene000150_render000002.png,stimuli/rgb_scene000150_render000003.png,0,175,175,116,"[0, 1]",right,1,87,25,f,y,y,2019_Jul_12_1449,2AFC_task,59.9393533627573,
stimuli/rgb_scene000056_render000000.png,stimuli/rgb_scene000056_render000004.png,0,176,176,45,"[1, 0]",left,1,87,25,f,y,y,2019_Jul_12_1449,2AFC_task,59.9393533627573,
stimuli/rgb_scene000066_render000000.png,stimuli/rgb_scene000066_render000004.png,0,177,177,66,"[1, 0]",left,1,87,25,f,y,y,2019_Jul_12_1449,2AFC_task,59.9393533627573,
stimuli/rgb_scene000169_render000001.png,stimuli/rgb_scene000169_render000002.png,0,178,178,174,"[1, 0]",right,0,87,25,f,y,y,2019_Jul_12_1449,2AFC_task,59.9393533627573,
stimuli/rgb_scene000066_render000003.png,stimuli/rgb_scene000066_render000006.png,0,179,179,80,"[0, 1]",right,1,87,25,f,y,y,2019_Jul_12_1449,2AFC_task,59.9393533627573,
stimuli/rgb_scene000165_render000000.png,stimuli/rgb_scene000165_render000003.png,0,180,180,149,"[1, 0]",left,1,87,25,f,y,y,2019_Jul_12_1449,2AFC_task,59.9393533627573,
stimuli/rgb_scene000150_render000002.png,stimuli/rgb_scene000150_render000005.png,0,181,181,118,"[1, 0]",left,1,87,25,f,y,y,2019_Jul_12_1449,2AFC_task,59.9393533627573,
stimuli/rgb_scene000147_render000002.png,stimuli/rgb_scene000147_render000005.png,0,182,182,97,"[0, 1]",right,1,87,25,f,y,y,2019_Jul_12_1449,2AFC_task,59.9393533627573,
stimuli/rgb_scene000147_render000002.png,stimuli/rgb_scene000147_render000006.png,0,183,183,98,"[1, 0]",left,1,87,25,f,y,y,2019_Jul_12_1449,2AFC_task,59.9393533627573,
stimuli/rgb_scene000196_render000004.png,stimuli/rgb_scene000196_render000005.png,0,184,184,207,"[1, 0]",right,0,87,25,f,y,y,2019_Jul_12_1449,2AFC_task,59.9393533627573,
stimuli/rgb_scene000196_render000000.png,stimuli/rgb_scene000196_render000006.png,0,185,185,194,"[0, 1]",right,1,87,25,f,y,y,2019_Jul_12_1449,2AFC_task,59.9393533627573,
stimuli/rgb_scene000066_render000002.png,stimuli/rgb_scene000066_render000006.png,0,186,186,77,"[1, 0]",left,1,87,25,f,y,y,2019_Jul_12_1449,2AFC_task,59.9393533627573,
stimuli/rgb_scene000165_render000003.png,stimuli/rgb_scene000165_render000006.png,0,187,187,164,"[0, 1]",right,1,87,25,f,y,y,2019_Jul_12_1449,2AFC_task,59.9393533627573,
stimuli/rgb_scene000150_render000002.png,stimuli/rgb_scene000150_render000006.png,0,188,188,119,"[0, 1]",right,1,87,25,f,y,y,2019_Jul_12_1449,2AFC_task,59.9393533627573,
stimuli/rgb_scene000147_render000000.png,stimuli/rgb_scene000147_render000003.png,0,189,189,86,"[0, 1]",right,1,87,25,f,y,y,2019_Jul_12_1449,2AFC_task,59.9393533627573,
stimuli/rgb_scene000047_render000000.png,stimuli/rgb_scene000047_render000004.png,0,190,190,24,"[0, 1]",right,1,87,25,f,y,y,2019_Jul_12_1449,2AFC_task,59.9393533627573,
stimuli/rgb_scene000042_render000000.png,stimuli/rgb_scene000042_render000001.png,0,191,191,0,"[1, 0]",left,1,87,25,f,y,y,2019_Jul_12_1449,2AFC_task,59.9393533627573,
stimuli/rgb_scene000047_render000002.png,stimuli/rgb_scene000047_render000006.png,0,192,192,35,"[0, 1]",right,1,87,25,f,y,y,2019_Jul_12_1449,2AFC_task,59.9393533627573,
stimuli/rgb_scene000147_render000004.png,stimuli/rgb_scene000147_render000006.png,0,193,193,103,"[0, 1]",right,1,87,25,f,y,y,2019_Jul_12_1449,2AFC_task,59.9393533627573,
stimuli/rgb_scene000066_render000004.png,stimuli/rgb_scene000066_render000006.png,0,194,194,82,"[0, 1]",right,1,87,25,f,y,y,2019_Jul_12_1449,2AFC_task,59.9393533627573,
stimuli/rgb_scene000147_render000002.png,stimuli/rgb_scene000147_render000004.png,0,195,195,96,"[0, 1]",right,1,87,25,f,y,y,2019_Jul_12_1449,2AFC_task,59.9393533627573,
stimuli/rgb_scene000169_render000004.png,stimuli/rgb_scene000169_render000005.png,0,196,196,186,"[0, 1]",right,1,87,25,f,y,y,2019_Jul_12_1449,2AFC_task,59.9393533627573,
stimuli/rgb_scene000160_render000000.png,stimuli/rgb_scene000160_render000005.png,0,197,197,130,"[0, 1]",right,1,87,25,f,y,y,2019_Jul_12_1449,2AFC_task,59.9393533627573,
stimuli/rgb_scene000042_render000002.png,stimuli/rgb_scene000042_render000006.png,0,198,198,14,"[0, 1]",right,1,87,25,f,y,y,2019_Jul_12_1449,2AFC_task,59.9393533627573,
stimuli/rgb_scene000196_render000002.png,stimuli/rgb_scene000196_render000004.png,0,199,199,201,"[1, 0]",right,0,87,25,f,y,y,2019_Jul_12_1449,2AFC_task,59.9393533627573,
stimuli/rgb_scene000042_render000003.png,stimuli/rgb_scene000042_render000004.png,0,200,200,15,"[0, 1]",right,1,87,25,f,y,y,2019_Jul_12_1449,2AFC_task,59.9393533627573,
stimuli/rgb_scene000160_render000003.png,stimuli/rgb_scene000160_render000006.png,0,201,201,143,"[1, 0]",left,1,87,25,f,y,y,2019_Jul_12_1449,2AFC_task,59.9393533627573,
stimuli/rgb_scene000066_render000001.png,stimuli/rgb_scene000066_render000005.png,0,202,202,72,"[0, 1]",right,1,87,25,f,y,y,2019_Jul_12_1449,2AFC_task,59.9393533627573,
stimuli/rgb_scene000169_render000000.png,stimuli/rgb_scene000169_render000001.png,0,203,203,168,"[1, 0]",left,1,87,25,f,y,y,2019_Jul_12_1449,2AFC_task,59.9393533627573,
stimuli/rgb_scene000150_render000001.png,stimuli/rgb_scene000150_render000005.png,0,204,204,114,"[1, 0]",left,1,87,25,f,y,y,2019_Jul_12_1449,2AFC_task,59.9393533627573,
stimuli/rgb_scene000047_render000005.png,stimuli/rgb_scene000047_render000006.png,0,205,205,41,"[0, 1]",right,1,87,25,f,y,y,2019_Jul_12_1449,2AFC_task,59.9393533627573,
stimuli/rgb_scene000150_render000003.png,stimuli/rgb_scene000150_render000004.png,0,206,206,120,"[1, 0]",left,1,87,25,f,y,y,2019_Jul_12_1449,2AFC_task,59.9393533627573,
stimuli/rgb_scene000147_render000001.png,stimuli/rgb_scene000147_render000003.png,0,207,207,91,"[0, 1]",right,1,87,25,f,y,y,2019_Jul_12_1449,2AFC_task,59.9393533627573,
stimuli/rgb_scene000169_render000003.png,stimuli/rgb_scene000169_render000006.png,0,208,208,185,"[0, 1]",right,1,87,25,f,y,y,2019_Jul_12_1449,2AFC_task,59.9393533627573,
stimuli/rgb_scene000150_render000001.png,stimuli/rgb_scene000150_render000006.png,0,209,209,115,"[1, 0]",left,1,87,25,f,y,y,2019_Jul_12_1449,2AFC_task,59.9393533627573,
stimuli/rgb_scene000066_render000003.png,stimuli/rgb_scene000066_render000004.png,1,0,210,78,"[0, 1]",right,1,87,25,f,y,y,2019_Jul_12_1449,2AFC_task,59.9393533627573,
stimuli/rgb_scene000196_render000000.png,stimuli/rgb_scene000196_render000004.png,1,1,211,192,"[1, 0]",left,1,87,25,f,y,y,2019_Jul_12_1449,2AFC_task,59.9393533627573,
stimuli/rgb_scene000056_render000002.png,stimuli/rgb_scene000056_render000003.png,1,2,212,53,"[0, 1]",right,1,87,25,f,y,y,2019_Jul_12_1449,2AFC_task,59.9393533627573,
stimuli/rgb_scene000056_render000002.png,stimuli/rgb_scene000056_render000004.png,1,3,213,54,"[1, 0]",left,1,87,25,f,y,y,2019_Jul_12_1449,2AFC_task,59.9393533627573,
stimuli/rgb_scene000165_render000001.png,stimuli/rgb_scene000165_render000005.png,1,4,214,156,"[1, 0]",left,1,87,25,f,y,y,2019_Jul_12_1449,2AFC_task,59.9393533627573,
stimuli/rgb_scene000042_render000001.png,stimuli/rgb_scene000042_render000003.png,1,5,215,7,"[1, 0]",left,1,87,25,f,y,y,2019_Jul_12_1449,2AFC_task,59.9393533627573,
stimuli/rgb_scene000160_render000001.png,stimuli/rgb_scene000160_render000005.png,1,6,216,135,"[0, 1]",right,1,87,25,f,y,y,2019_Jul_12_1449,2AFC_task,59.9393533627573,
stimuli/rgb_scene000150_render000000.png,stimuli/rgb_scene000150_render000004.png,1,7,217,108,"[1, 0]",left,1,87,25,f,y,y,2019_Jul_12_1449,2AFC_task,59.9393533627573,
stimuli/rgb_scene000066_render000003.png,stimuli/rgb_scene000066_render000006.png,1,8,218,80,"[1, 0]",left,1,87,25,f,y,y,2019_Jul_12_1449,2AFC_task,59.9393533627573,
stimuli/rgb_scene000196_render000003.png,stimuli/rgb_scene000196_render000004.png,1,9,219,204,"[1, 0]",right,0,87,25,f,y,y,2019_Jul_12_1449,2AFC_task,59.9393533627573,
stimuli/rgb_scene000169_render000000.png,stimuli/rgb_scene000169_render000001.png,1,10,220,168,"[0, 1]",left,0,87,25,f,y,y,2019_Jul_12_1449,2AFC_task,59.9393533627573,
stimuli/rgb_scene000169_render000003.png,stimuli/rgb_scene000169_render000004.png,1,11,221,183,"[0, 1]",left,0,87,25,f,y,y,2019_Jul_12_1449,2AFC_task,59.9393533627573,
stimuli/rgb_scene000042_render000000.png,stimuli/rgb_scene000042_render000006.png,1,12,222,5,"[0, 1]",right,1,87,25,f,y,y,2019_Jul_12_1449,2AFC_task,59.9393533627573,
stimuli/rgb_scene000165_render000002.png,stimuli/rgb_scene000165_render000005.png,1,13,223,160,"[1, 0]",left,1,87,25,f,y,y,2019_Jul_12_1449,2AFC_task,59.9393533627573,
stimuli/rgb_scene000165_render000005.png,stimuli/rgb_scene000165_render000006.png,1,14,224,167,"[0, 1]",right,1,87,25,f,y,y,2019_Jul_12_1449,2AFC_task,59.9393533627573,
stimuli/rgb_scene000196_render000001.png,stimuli/rgb_scene000196_render000002.png,1,15,225,195,"[0, 1]",left,0,87,25,f,y,y,2019_Jul_12_1449,2AFC_task,59.9393533627573,
stimuli/rgb_scene000047_render000000.png,stimuli/rgb_scene000047_render000001.png,1,16,226,21,"[1, 0]",left,1,87,25,f,y,y,2019_Jul_12_1449,2AFC_task,59.9393533627573,
stimuli/rgb_scene000160_render000001.png,stimuli/rgb_scene000160_render000002.png,1,17,227,132,"[1, 0]",left,1,87,25,f,y,y,2019_Jul_12_1449,2AFC_task,59.9393533627573,
stimuli/rgb_scene000066_render000001.png,stimuli/rgb_scene000066_render000002.png,1,18,228,69,"[1, 0]",left,1,87,25,f,y,y,2019_Jul_12_1449,2AFC_task,59.9393533627573,
stimuli/rgb_scene000150_render000003.png,stimuli/rgb_scene000150_render000006.png,1,19,229,122,"[1, 0]",left,1,87,25,f,y,y,2019_Jul_12_1449,2AFC_task,59.9393533627573,
stimuli/rgb_scene000066_render000000.png,stimuli/rgb_scene000066_render000002.png,1,20,230,64,"[1, 0]",left,1,87,25,f,y,y,2019_Jul_12_1449,2AFC_task,59.9393533627573,
stimuli/rgb_scene000047_render000000.png,stimuli/rgb_scene000047_render000005.png,1,21,231,25,"[0, 1]",right,1,87,25,f,y,y,2019_Jul_12_1449,2AFC_task,59.9393533627573,
stimuli/rgb_scene000196_render000000.png,stimuli/rgb_scene000196_render000003.png,1,22,232,191,"[1, 0]",right,0,87,25,f,y,y,2019_Jul_12_1449,2AFC_task,59.9393533627573,
stimuli/rgb_scene000165_render000003.png,stimuli/rgb_scene000165_render000006.png,1,23,233,164,"[1, 0]",left,1,87,25,f,y,y,2019_Jul_12_1449,2AFC_task,59.9393533627573,
stimuli/rgb_scene000150_render000001.png,stimuli/rgb_scene000150_render000003.png,1,24,234,112,"[0, 1]",right,1,87,25,f,y,y,2019_Jul_12_1449,2AFC_task,59.9393533627573,
stimuli/rgb_scene000150_render000000.png,stimuli/rgb_scene000150_render000001.png,1,25,235,105,"[1, 0]",left,1,87,25,f,y,y,2019_Jul_12_1449,2AFC_task,59.9393533627573,
stimuli/rgb_scene000066_render000000.png,stimuli/rgb_scene000066_render000004.png,1,26,236,66,"[0, 1]",right,1,87,25,f,y,y,2019_Jul_12_1449,2AFC_task,59.9393533627573,
stimuli/rgb_scene000056_render000003.png,stimuli/rgb_scene000056_render000004.png,1,27,237,57,"[0, 1]",right,1,87,25,f,y,y,2019_Jul_12_1449,2AFC_task,59.9393533627573,
stimuli/rgb_scene000147_render000001.png,stimuli/rgb_scene000147_render000002.png,1,28,238,90,"[1, 0]",left,1,87,25,f,y,y,2019_Jul_12_1449,2AFC_task,59.9393533627573,
stimuli/rgb_scene000165_render000001.png,stimuli/rgb_scene000165_render000006.png,1,29,239,157,"[1, 0]",left,1,87,25,f,y,y,2019_Jul_12_1449,2AFC_task,59.9393533627573,
stimuli/rgb_scene000150_render000000.png,stimuli/rgb_scene000150_render000002.png,1,30,240,106,"[0, 1]",right,1,87,25,f,y,y,2019_Jul_12_1449,2AFC_task,59.9393533627573,
stimuli/rgb_scene000169_render000002.png,stimuli/rgb_scene000169_render000006.png,1,31,241,182,"[0, 1]",left,0,87,25,f,y,y,2019_Jul_12_1449,2AFC_task,59.9393533627573,
stimuli/rgb_scene000165_render000000.png,stimuli/rgb_scene000165_render000004.png,1,32,242,150,"[1, 0]",left,1,87,25,f,y,y,2019_Jul_12_1449,2AFC_task,59.9393533627573,
stimuli/rgb_scene000196_render000003.png,stimuli/rgb_scene000196_render000006.png,1,33,243,206,"[0, 1]",left,0,87,25,f,y,y,2019_Jul_12_1449,2AFC_task,59.9393533627573,
stimuli/rgb_scene000066_render000001.png,stimuli/rgb_scene000066_render000004.png,1,34,244,71,"[1, 0]",left,1,87,25,f,y,y,2019_Jul_12_1449,2AFC_task,59.9393533627573,
stimuli/rgb_scene000160_render000003.png,stimuli/rgb_scene000160_render000004.png,1,35,245,141,"[0, 1]",right,1,87,25,f,y,y,2019_Jul_12_1449,2AFC_task,59.9393533627573,
stimuli/rgb_scene000150_render000002.png,stimuli/rgb_scene000150_render000003.png,1,36,246,116,"[1, 0]",left,1,87,25,f,y,y,2019_Jul_12_1449,2AFC_task,59.9393533627573,
stimuli/rgb_scene000056_render000004.png,stimuli/rgb_scene000056_render000005.png,1,37,247,60,"[0, 1]",right,1,87,25,f,y,y,2019_Jul_12_1449,2AFC_task,59.9393533627573,
stimuli/rgb_scene000042_render000003.png,stimuli/rgb_scene000042_render000005.png,1,38,248,16,"[1, 0]",left,1,87,25,f,y,y,2019_Jul_12_1449,2AFC_task,59.9393533627573,
stimuli/rgb_scene000160_render000000.png,stimuli/rgb_scene000160_render000004.png,1,39,249,129,"[1, 0]",left,1,87,25,f,y,y,2019_Jul_12_1449,2AFC_task,59.9393533627573,
stimuli/rgb_scene000196_render000000.png,stimuli/rgb_scene000196_render000006.png,1,40,250,194,"[1, 0]",left,1,87,25,f,y,y,2019_Jul_12_1449,2AFC_task,59.9393533627573,
stimuli/rgb_scene000196_render000001.png,stimuli/rgb_scene000196_render000004.png,1,41,251,197,"[1, 0]",left,1,87,25,f,y,y,2019_Jul_12_1449,2AFC_task,59.9393533627573,
stimuli/rgb_scene000056_render000002.png,stimuli/rgb_scene000056_render000006.png,1,42,252,56,"[0, 1]",right,1,87,25,f,y,y,2019_Jul_12_1449,2AFC_task,59.9393533627573,
stimuli/rgb_scene000056_render000005.png,stimuli/rgb_scene000056_render000006.png,1,43,253,62,"[1, 0]",left,1,87,25,f,y,y,2019_Jul_12_1449,2AFC_task,59.9393533627573,
stimuli/rgb_scene000169_render000004.png,stimuli/rgb_scene000169_render000005.png,1,44,254,186,"[1, 0]",right,0,87,25,f,y,y,2019_Jul_12_1449,2AFC_task,59.9393533627573,
stimuli/rgb_scene000042_render000002.png,stimuli/rgb_scene000042_render000006.png,1,45,255,14,"[1, 0]",left,1,87,25,f,y,y,2019_Jul_12_1449,2AFC_task,59.9393533627573,
stimuli/rgb_scene000056_render000000.png,stimuli/rgb_scene000056_render000001.png,1,46,256,42,"[0, 1]",right,1,87,25,f,y,y,2019_Jul_12_1449,2AFC_task,59.9393533627573,
stimuli/rgb_scene000066_render000000.png,stimuli/rgb_scene000066_render000003.png,1,47,257,65,"[0, 1]",right,1,87,25,f,y,y,2019_Jul_12_1449,2AFC_task,59.9393533627573,
stimuli/rgb_scene000160_render000001.png,stimuli/rgb_scene000160_render000004.png,1,48,258,134,"[1, 0]",left,1,87,25,f,y,y,2019_Jul_12_1449,2AFC_task,59.9393533627573,
stimuli/rgb_scene000150_render000001.png,stimuli/rgb_scene000150_render000002.png,1,49,259,111,"[0, 1]",right,1,87,25,f,y,y,2019_Jul_12_1449,2AFC_task,59.9393533627573,
stimuli/rgb_scene000165_render000002.png,stimuli/rgb_scene000165_render000004.png,1,50,260,159,"[1, 0]",left,1,87,25,f,y,y,2019_Jul_12_1449,2AFC_task,59.9393533627573,
stimuli/rgb_scene000066_render000002.png,stimuli/rgb_scene000066_render000004.png,1,51,261,75,"[1, 0]",left,1,87,25,f,y,y,2019_Jul_12_1449,2AFC_task,59.9393533627573,
stimuli/rgb_scene000147_render000002.png,stimuli/rgb_scene000147_render000006.png,1,52,262,98,"[1, 0]",left,1,87,25,f,y,y,2019_Jul_12_1449,2AFC_task,59.9393533627573,
stimuli/rgb_scene000147_render000004.png,stimuli/rgb_scene000147_render000005.png,1,53,263,102,"[1, 0]",left,1,87,25,f,y,y,2019_Jul_12_1449,2AFC_task,59.9393533627573,
stimuli/rgb_scene000042_render000000.png,stimuli/rgb_scene000042_render000005.png,1,54,264,4,"[1, 0]",left,1,87,25,f,y,y,2019_Jul_12_1449,2AFC_task,59.9393533627573,
stimuli/rgb_scene000160_render000002.png,stimuli/rgb_scene000160_render000005.png,1,55,265,139,"[1, 0]",left,1,87,25,f,y,y,2019_Jul_12_1449,2AFC_task,59.9393533627573,
stimuli/rgb_scene000169_render000000.png,stimuli/rgb_scene000169_render000002.png,1,56,266,169,"[1, 0]",left,1,87,25,f,y,y,2019_Jul_12_1449,2AFC_task,59.9393533627573,
stimuli/rgb_scene000165_render000001.png,stimuli/rgb_scene000165_render000002.png,1,57,267,153,"[0, 1]",right,1,87,25,f,y,y,2019_Jul_12_1449,2AFC_task,59.9393533627573,
stimuli/rgb_scene000047_render000003.png,stimuli/rgb_scene000047_render000005.png,1,58,268,37,"[1, 0]",left,1,87,25,f,y,y,2019_Jul_12_1449,2AFC_task,59.9393533627573,
stimuli/rgb_scene000165_render000003.png,stimuli/rgb_scene000165_render000005.png,1,59,269,163,"[0, 1]",right,1,87,25,f,y,y,2019_Jul_12_1449,2AFC_task,59.9393533627573,
stimuli/rgb_scene000150_render000000.png,stimuli/rgb_scene000150_render000006.png,1,60,270,110,"[1, 0]",left,1,87,25,f,y,y,2019_Jul_12_1449,2AFC_task,59.9393533627573,
stimuli/rgb_scene000150_render000002.png,stimuli/rgb_scene000150_render000004.png,1,61,271,117,"[1, 0]",left,1,87,25,f,y,y,2019_Jul_12_1449,2AFC_task,59.9393533627573,
stimuli/rgb_scene000056_render000000.png,stimuli/rgb_scene000056_render000002.png,1,62,272,43,"[0, 1]",right,1,87,25,f,y,y,2019_Jul_12_1449,2AFC_task,59.9393533627573,
stimuli/rgb_scene000160_render000001.png,stimuli/rgb_scene000160_render000003.png,1,63,273,133,"[0, 1]",right,1,87,25,f,y,y,2019_Jul_12_1449,2AFC_task,59.9393533627573,
stimuli/rgb_scene000196_render000001.png,stimuli/rgb_scene000196_render000005.png,1,64,274,198,"[0, 1]",left,0,87,25,f,y,y,2019_Jul_12_1449,2AFC_task,59.9393533627573,
stimuli/rgb_scene000160_render000000.png,stimuli/rgb_scene000160_render000003.png,1,65,275,128,"[1, 0]",left,1,87,25,f,y,y,2019_Jul_12_1449,2AFC_task,59.9393533627573,
stimuli/rgb_scene000147_render000002.png,stimuli/rgb_scene000147_render000003.png,1,66,276,95,"[1, 0]",left,1,87,25,f,y,y,2019_Jul_12_1449,2AFC_task,59.9393533627573,
stimuli/rgb_scene000047_render000000.png,stimuli/rgb_scene000047_render000004.png,1,67,277,24,"[1, 0]",left,1,87,25,f,y,y,2019_Jul_12_1449,2AFC_task,59.9393533627573,
stimuli/rgb_scene000042_render000003.png,stimuli/rgb_scene000042_render000004.png,1,68,278,15,"[0, 1]",right,1,87,25,f,y,y,2019_Jul_12_1449,2AFC_task,59.9393533627573,
stimuli/rgb_scene000150_render000000.png,stimuli/rgb_scene000150_render000005.png,1,69,279,109,"[0, 1]",right,1,87,25,f,y,y,2019_Jul_12_1449,2AFC_task,59.9393533627573,
stimuli/rgb_scene000147_render000000.png,stimuli/rgb_scene000147_render000004.png,1,70,280,87,"[1, 0]",left,1,87,25,f,y,y,2019_Jul_12_1449,2AFC_task,59.9393533627573,
stimuli/rgb_scene000169_render000001.png,stimuli/rgb_scene000169_render000002.png,1,71,281,174,"[1, 0]",right,0,87,25,f,y,y,2019_Jul_12_1449,2AFC_task,59.9393533627573,
stimuli/rgb_scene000066_render000004.png,stimuli/rgb_scene000066_render000006.png,1,72,282,82,"[1, 0]",left,1,87,25,f,y,y,2019_Jul_12_1449,2AFC_task,59.9393533627573,
stimuli/rgb_scene000169_render000001.png,stimuli/rgb_scene000169_render000003.png,1,73,283,175,"[1, 0]",left,1,87,25,f,y,y,2019_Jul_12_1449,2AFC_task,59.9393533627573,
stimuli/rgb_scene000047_render000004.png,stimuli/rgb_scene000047_render000005.png,1,74,284,39,"[1, 0]",left,1,87,25,f,y,y,2019_Jul_12_1449,2AFC_task,59.9393533627573,
stimuli/rgb_scene000196_render000005.png,stimuli/rgb_scene000196_render000006.png,1,75,285,209,"[0, 1]",left,0,87,25,f,y,y,2019_Jul_12_1449,2AFC_task,59.9393533627573,
stimuli/rgb_scene000047_render000001.png,stimuli/rgb_scene000047_render000005.png,1,76,286,30,"[1, 0]",left,1,87,25,f,y,y,2019_Jul_12_1449,2AFC_task,59.9393533627573,
stimuli/rgb_scene000147_render000005.png,stimuli/rgb_scene000147_render000006.png,1,77,287,104,"[0, 1]",right,1,87,25,f,y,y,2019_Jul_12_1449,2AFC_task,59.9393533627573,
stimuli/rgb_scene000042_render000004.png,stimuli/rgb_scene000042_render000005.png,1,78,288,18,"[1, 0]",left,1,87,25,f,y,y,2019_Jul_12_1449,2AFC_task,59.9393533627573,
stimuli/rgb_scene000056_render000002.png,stimuli/rgb_scene000056_render000005.png,1,79,289,55,"[0, 1]",right,1,87,25,f,y,y,2019_Jul_12_1449,2AFC_task,59.9393533627573,
stimuli/rgb_scene000066_render000000.png,stimuli/rgb_scene000066_render000001.png,1,80,290,63,"[0, 1]",right,1,87,25,f,y,y,2019_Jul_12_1449,2AFC_task,59.9393533627573,
stimuli/rgb_scene000160_render000000.png,stimuli/rgb_scene000160_render000001.png,1,81,291,126,"[0, 1]",right,1,87,25,f,y,y,2019_Jul_12_1449,2AFC_task,59.9393533627573,
stimuli/rgb_scene000150_render000003.png,stimuli/rgb_scene000150_render000004.png,1,82,292,120,"[1, 0]",left,1,87,25,f,y,y,2019_Jul_12_1449,2AFC_task,59.9393533627573,
stimuli/rgb_scene000160_render000004.png,stimuli/rgb_scene000160_render000006.png,1,83,293,145,"[1, 0]",left,1,87,25,f,y,y,2019_Jul_12_1449,2AFC_task,59.9393533627573,
stimuli/rgb_scene000047_render000002.png,stimuli/rgb_scene000047_render000004.png,1,84,294,33,"[1, 0]",left,1,87,25,f,y,y,2019_Jul_12_1449,2AFC_task,59.9393533627573,
stimuli/rgb_scene000169_render000001.png,stimuli/rgb_scene000169_render000005.png,1,85,295,177,"[1, 0]",right,0,87,25,f,y,y,2019_Jul_12_1449,2AFC_task,59.9393533627573,
stimuli/rgb_scene000056_render000001.png,stimuli/rgb_scene000056_render000003.png,1,86,296,49,"[0, 1]",right,1,87,25,f,y,y,2019_Jul_12_1449,2AFC_task,59.9393533627573,
stimuli/rgb_scene000147_render000002.png,stimuli/rgb_scene000147_render000005.png,1,87,297,97,"[1, 0]",left,1,87,25,f,y,y,2019_Jul_12_1449,2AFC_task,59.9393533627573,
stimuli/rgb_scene000150_render000001.png,stimuli/rgb_scene000150_render000004.png,1,88,298,113,"[0, 1]",right,1,87,25,f,y,y,2019_Jul_12_1449,2AFC_task,59.9393533627573,
stimuli/rgb_scene000042_render000002.png,stimuli/rgb_scene000042_render000004.png,1,89,299,12,"[0, 1]",right,1,87,25,f,y,y,2019_Jul_12_1449,2AFC_task,59.9393533627573,
stimuli/rgb_scene000165_render000004.png,stimuli/rgb_scene000165_render000005.png,1,90,300,165,"[1, 0]",left,1,87,25,f,y,y,2019_Jul_12_1449,2AFC_task,59.9393533627573,
stimuli/rgb_scene000165_render000004.png,stimuli/rgb_scene000165_render000006.png,1,91,301,166,"[1, 0]",left,1,87,25,f,y,y,2019_Jul_12_1449,2AFC_task,59.9393533627573,
stimuli/rgb_scene000047_render000003.png,stimuli/rgb_scene000047_render000006.png,1,92,302,38,"[0, 1]",right,1,87,25,f,y,y,2019_Jul_12_1449,2AFC_task,59.9393533627573,
stimuli/rgb_scene000066_render000002.png,stimuli/rgb_scene000066_render000006.png,1,93,303,77,"[1, 0]",left,1,87,25,f,y,y,2019_Jul_12_1449,2AFC_task,59.9393533627573,
stimuli/rgb_scene000042_render000002.png,stimuli/rgb_scene000042_render000003.png,1,94,304,11,"[0, 1]",right,1,87,25,f,y,y,2019_Jul_12_1449,2AFC_task,59.9393533627573,
stimuli/rgb_scene000196_render000000.png,stimuli/rgb_scene000196_render000005.png,1,95,305,193,"[1, 0]",right,0,87,25,f,y,y,2019_Jul_12_1449,2AFC_task,59.9393533627573,
stimuli/rgb_scene000047_render000003.png,stimuli/rgb_scene000047_render000004.png,1,96,306,36,"[0, 1]",right,1,87,25,f,y,y,2019_Jul_12_1449,2AFC_task,59.9393533627573,
stimuli/rgb_scene000042_render000003.png,stimuli/rgb_scene000042_render000006.png,1,97,307,17,"[1, 0]",left,1,87,25,f,y,y,2019_Jul_12_1449,2AFC_task,59.9393533627573,
stimuli/rgb_scene000042_render000000.png,stimuli/rgb_scene000042_render000004.png,1,98,308,3,"[0, 1]",right,1,87,25,f,y,y,2019_Jul_12_1449,2AFC_task,59.9393533627573,
stimuli/rgb_scene000165_render000000.png,stimuli/rgb_scene000165_render000006.png,1,99,309,152,"[0, 1]",right,1,87,25,f,y,y,2019_Jul_12_1449,2AFC_task,59.9393533627573,
stimuli/rgb_scene000169_render000000.png,stimuli/rgb_scene000169_render000005.png,1,100,310,172,"[0, 1]",left,0,87,25,f,y,y,2019_Jul_12_1449,2AFC_task,59.9393533627573,
stimuli/rgb_scene000165_render000002.png,stimuli/rgb_scene000165_render000003.png,1,101,311,158,"[1, 0]",left,1,87,25,f,y,y,2019_Jul_12_1449,2AFC_task,59.9393533627573,
stimuli/rgb_scene000147_render000004.png,stimuli/rgb_scene000147_render000006.png,1,102,312,103,"[0, 1]",right,1,87,25,f,y,y,2019_Jul_12_1449,2AFC_task,59.9393533627573,
stimuli/rgb_scene000169_render000002.png,stimuli/rgb_scene000169_render000003.png,1,103,313,179,"[1, 0]",right,0,87,25,f,y,y,2019_Jul_12_1449,2AFC_task,59.9393533627573,
stimuli/rgb_scene000056_render000003.png,stimuli/rgb_scene000056_render000005.png,1,104,314,58,"[1, 0]",left,1,87,25,f,y,y,2019_Jul_12_1449,2AFC_task,59.9393533627573,
stimuli/rgb_scene000196_render000004.png,stimuli/rgb_scene000196_render000006.png,1,105,315,208,"[0, 1]",left,0,87,25,f,y,y,2019_Jul_12_1449,2AFC_task,59.9393533627573,
stimuli/rgb_scene000147_render000000.png,stimuli/rgb_scene000147_render000001.png,1,106,316,84,"[0, 1]",right,1,87,25,f,y,y,2019_Jul_12_1449,2AFC_task,59.9393533627573,
stimuli/rgb_scene000196_render000003.png,stimuli/rgb_scene000196_render000005.png,1,107,317,205,"[1, 0]",right,0,87,25,f,y,y,2019_Jul_12_1449,2AFC_task,59.9393533627573,
stimuli/rgb_scene000066_render000002.png,stimuli/rgb_scene000066_render000005.png,1,108,318,76,"[1, 0]",left,1,87,25,f,y,y,2019_Jul_12_1449,2AFC_task,59.9393533627573,
stimuli/rgb_scene000196_render000002.png,stimuli/rgb_scene000196_render000005.png,1,109,319,202,"[0, 1]",left,0,87,25,f,y,y,2019_Jul_12_1449,2AFC_task,59.9393533627573,
stimuli/rgb_scene000147_render000000.png,stimuli/rgb_scene000147_render000005.png,1,110,320,88,"[1, 0]",left,1,87,25,f,y,y,2019_Jul_12_1449,2AFC_task,59.9393533627573,
stimuli/rgb_scene000150_render000004.png,stimuli/rgb_scene000150_render000005.png,1,111,321,123,"[0, 1]",left,0,87,25,f,y,y,2019_Jul_12_1449,2AFC_task,59.9393533627573,
stimuli/rgb_scene000150_render000000.png,stimuli/rgb_scene000150_render000003.png,1,112,322,107,"[0, 1]",right,1,87,25,f,y,y,2019_Jul_12_1449,2AFC_task,59.9393533627573,
stimuli/rgb_scene000165_render000000.png,stimuli/rgb_scene000165_render000003.png,1,113,323,149,"[0, 1]",right,1,87,25,f,y,y,2019_Jul_12_1449,2AFC_task,59.9393533627573,
stimuli/rgb_scene000147_render000000.png,stimuli/rgb_scene000147_render000003.png,1,114,324,86,"[0, 1]",right,1,87,25,f,y,y,2019_Jul_12_1449,2AFC_task,59.9393533627573,
stimuli/rgb_scene000160_render000002.png,stimuli/rgb_scene000160_render000004.png,1,115,325,138,"[1, 0]",left,1,87,25,f,y,y,2019_Jul_12_1449,2AFC_task,59.9393533627573,
stimuli/rgb_scene000196_render000001.png,stimuli/rgb_scene000196_render000003.png,1,116,326,196,"[0, 1]",right,1,87,25,f,y,y,2019_Jul_12_1449,2AFC_task,59.9393533627573,
stimuli/rgb_scene000160_render000004.png,stimuli/rgb_scene000160_render000005.png,1,117,327,144,"[1, 0]",left,1,87,25,f,y,y,2019_Jul_12_1449,2AFC_task,59.9393533627573,
stimuli/rgb_scene000047_render000002.png,stimuli/rgb_scene000047_render000005.png,1,118,328,34,"[1, 0]",left,1,87,25,f,y,y,2019_Jul_12_1449,2AFC_task,59.9393533627573,
stimuli/rgb_scene000066_render000000.png,stimuli/rgb_scene000066_render000005.png,1,119,329,67,"[1, 0]",left,1,87,25,f,y,y,2019_Jul_12_1449,2AFC_task,59.9393533627573,
stimuli/rgb_scene000047_render000005.png,stimuli/rgb_scene000047_render000006.png,1,120,330,41,"[0, 1]",left,0,87,25,f,y,y,2019_Jul_12_1449,2AFC_task,59.9393533627573,
stimuli/rgb_scene000047_render000001.png,stimuli/rgb_scene000047_render000006.png,1,121,331,31,"[1, 0]",left,1,87,25,f,y,y,2019_Jul_12_1449,2AFC_task,59.9393533627573,
stimuli/rgb_scene000066_render000005.png,stimuli/rgb_scene000066_render000006.png,1,122,332,83,"[1, 0]",left,1,87,25,f,y,y,2019_Jul_12_1449,2AFC_task,59.9393533627573,
stimuli/rgb_scene000165_render000000.png,stimuli/rgb_scene000165_render000001.png,1,123,333,147,"[1, 0]",left,1,87,25,f,y,y,2019_Jul_12_1449,2AFC_task,59.9393533627573,
stimuli/rgb_scene000169_render000002.png,stimuli/rgb_scene000169_render000004.png,1,124,334,180,"[0, 1]",left,0,87,25,f,y,y,2019_Jul_12_1449,2AFC_task,59.9393533627573,
stimuli/rgb_scene000196_render000004.png,stimuli/rgb_scene000196_render000005.png,1,125,335,207,"[1, 0]",left,1,87,25,f,y,y,2019_Jul_12_1449,2AFC_task,59.9393533627573,
stimuli/rgb_scene000056_render000001.png,stimuli/rgb_scene000056_render000004.png,1,126,336,50,"[1, 0]",left,1,87,25,f,y,y,2019_Jul_12_1449,2AFC_task,59.9393533627573,
stimuli/rgb_scene000042_render000001.png,stimuli/rgb_scene000042_render000002.png,1,127,337,6,"[0, 1]",right,1,87,25,f,y,y,2019_Jul_12_1449,2AFC_task,59.9393533627573,
stimuli/rgb_scene000169_render000003.png,stimuli/rgb_scene000169_render000006.png,1,128,338,185,"[0, 1]",left,0,87,25,f,y,y,2019_Jul_12_1449,2AFC_task,59.9393533627573,
stimuli/rgb_scene000042_render000000.png,stimuli/rgb_scene000042_render000001.png,1,129,339,0,"[1, 0]",left,1,87,25,f,y,y,2019_Jul_12_1449,2AFC_task,59.9393533627573,
stimuli/rgb_scene000056_render000003.png,stimuli/rgb_scene000056_render000006.png,1,130,340,59,"[0, 1]",right,1,87,25,f,y,y,2019_Jul_12_1449,2AFC_task,59.9393533627573,
stimuli/rgb_scene000047_render000001.png,stimuli/rgb_scene000047_render000003.png,1,131,341,28,"[0, 1]",right,1,87,25,f,y,y,2019_Jul_12_1449,2AFC_task,59.9393533627573,
stimuli/rgb_scene000056_render000001.png,stimuli/rgb_scene000056_render000005.png,1,132,342,51,"[1, 0]",left,1,87,25,f,y,y,2019_Jul_12_1449,2AFC_task,59.9393533627573,
stimuli/rgb_scene000160_render000000.png,stimuli/rgb_scene000160_render000006.png,1,133,343,131,"[0, 1]",right,1,87,25,f,y,y,2019_Jul_12_1449,2AFC_task,59.9393533627573,
stimuli/rgb_scene000150_render000002.png,stimuli/rgb_scene000150_render000005.png,1,134,344,118,"[1, 0]",left,1,87,25,f,y,y,2019_Jul_12_1449,2AFC_task,59.9393533627573,
stimuli/rgb_scene000196_render000000.png,stimuli/rgb_scene000196_render000002.png,1,135,345,190,"[1, 0]",left,1,87,25,f,y,y,2019_Jul_12_1449,2AFC_task,59.9393533627573,
stimuli/rgb_scene000160_render000000.png,stimuli/rgb_scene000160_render000005.png,1,136,346,130,"[0, 1]",right,1,87,25,f,y,y,2019_Jul_12_1449,2AFC_task,59.9393533627573,
stimuli/rgb_scene000196_render000002.png,stimuli/rgb_scene000196_render000006.png,1,137,347,203,"[1, 0]",right,0,87,25,f,y,y,2019_Jul_12_1449,2AFC_task,59.9393533627573,
stimuli/rgb_scene000169_render000001.png,stimuli/rgb_scene000169_render000004.png,1,138,348,176,"[0, 1]",left,0,87,25,f,y,y,2019_Jul_12_1449,2AFC_task,59.9393533627573,
stimuli/rgb_scene000165_render000003.png,stimuli/rgb_scene000165_render000004.png,1,139,349,162,"[0, 1]",right,1,87,25,f,y,y,2019_Jul_12_1449,2AFC_task,59.9393533627573,
stimuli/rgb_scene000042_render000005.png,stimuli/rgb_scene000042_render000006.png,1,140,350,20,"[1, 0]",left,1,87,25,f,y,y,2019_Jul_12_1449,2AFC_task,59.9393533627573,
stimuli/rgb_scene000047_render000002.png,stimuli/rgb_scene000047_render000006.png,1,141,351,35,"[1, 0]",left,1,87,25,f,y,y,2019_Jul_12_1449,2AFC_task,59.9393533627573,
stimuli/rgb_scene000066_render000002.png,stimuli/rgb_scene000066_render000003.png,1,142,352,74,"[0, 1]",right,1,87,25,f,y,y,2019_Jul_12_1449,2AFC_task,59.9393533627573,
stimuli/rgb_scene000056_render000001.png,stimuli/rgb_scene000056_render000006.png,1,143,353,52,"[1, 0]",left,1,87,25,f,y,y,2019_Jul_12_1449,2AFC_task,59.9393533627573,
stimuli/rgb_scene000147_render000003.png,stimuli/rgb_scene000147_render000004.png,1,144,354,99,"[0, 1]",right,1,87,25,f,y,y,2019_Jul_12_1449,2AFC_task,59.9393533627573,
stimuli/rgb_scene000150_render000002.png,stimuli/rgb_scene000150_render000006.png,1,145,355,119,"[1, 0]",left,1,87,25,f,y,y,2019_Jul_12_1449,2AFC_task,59.9393533627573,
stimuli/rgb_scene000169_render000001.png,stimuli/rgb_scene000169_render000006.png,1,146,356,178,"[0, 1]",left,0,87,25,f,y,y,2019_Jul_12_1449,2AFC_task,59.9393533627573,
stimuli/rgb_scene000066_render000001.png,stimuli/rgb_scene000066_render000003.png,1,147,357,70,"[0, 1]",right,1,87,25,f,y,y,2019_Jul_12_1449,2AFC_task,59.9393533627573,
stimuli/rgb_scene000042_render000002.png,stimuli/rgb_scene000042_render000005.png,1,148,358,13,"[1, 0]",left,1,87,25,f,y,y,2019_Jul_12_1449,2AFC_task,59.9393533627573,
stimuli/rgb_scene000165_render000000.png,stimuli/rgb_scene000165_render000002.png,1,149,359,148,"[1, 0]",left,1,87,25,f,y,y,2019_Jul_12_1449,2AFC_task,59.9393533627573,
stimuli/rgb_scene000047_render000000.png,stimuli/rgb_scene000047_render000002.png,1,150,360,22,"[0, 1]",right,1,87,25,f,y,y,2019_Jul_12_1449,2AFC_task,59.9393533627573,
stimuli/rgb_scene000042_render000000.png,stimuli/rgb_scene000042_render000002.png,1,151,361,1,"[0, 1]",right,1,87,25,f,y,y,2019_Jul_12_1449,2AFC_task,59.9393533627573,
stimuli/rgb_scene000169_render000005.png,stimuli/rgb_scene000169_render000006.png,1,152,362,188,"[1, 0]",right,0,87,25,f,y,y,2019_Jul_12_1449,2AFC_task,59.9393533627573,
stimuli/rgb_scene000150_render000001.png,stimuli/rgb_scene000150_render000005.png,1,153,363,114,"[0, 1]",right,1,87,25,f,y,y,2019_Jul_12_1449,2AFC_task,59.9393533627573,
stimuli/rgb_scene000165_render000001.png,stimuli/rgb_scene000165_render000003.png,1,154,364,154,"[0, 1]",right,1,87,25,f,y,y,2019_Jul_12_1449,2AFC_task,59.9393533627573,
stimuli/rgb_scene000165_render000001.png,stimuli/rgb_scene000165_render000004.png,1,155,365,155,"[0, 1]",right,1,87,25,f,y,y,2019_Jul_12_1449,2AFC_task,59.9393533627573,
stimuli/rgb_scene000147_render000000.png,stimuli/rgb_scene000147_render000006.png,1,156,366,89,"[1, 0]",left,1,87,25,f,y,y,2019_Jul_12_1449,2AFC_task,59.9393533627573,
stimuli/rgb_scene000042_render000001.png,stimuli/rgb_scene000042_render000004.png,1,157,367,8,"[0, 1]",right,1,87,25,f,y,y,2019_Jul_12_1449,2AFC_task,59.9393533627573,
stimuli/rgb_scene000160_render000003.png,stimuli/rgb_scene000160_render000006.png,1,158,368,143,"[0, 1]",right,1,87,25,f,y,y,2019_Jul_12_1449,2AFC_task,59.9393533627573,
stimuli/rgb_scene000066_render000003.png,stimuli/rgb_scene000066_render000005.png,1,159,369,79,"[1, 0]",left,1,87,25,f,y,y,2019_Jul_12_1449,2AFC_task,59.9393533627573,
stimuli/rgb_scene000147_render000001.png,stimuli/rgb_scene000147_render000006.png,1,160,370,94,"[1, 0]",left,1,87,25,f,y,y,2019_Jul_12_1449,2AFC_task,59.9393533627573,
stimuli/rgb_scene000047_render000002.png,stimuli/rgb_scene000047_render000003.png,1,161,371,32,"[1, 0]",left,1,87,25,f,y,y,2019_Jul_12_1449,2AFC_task,59.9393533627573,
stimuli/rgb_scene000147_render000001.png,stimuli/rgb_scene000147_render000004.png,1,162,372,92,"[0, 1]",right,1,87,25,f,y,y,2019_Jul_12_1449,2AFC_task,59.9393533627573,
stimuli/rgb_scene000165_render000000.png,stimuli/rgb_scene000165_render000005.png,1,163,373,151,"[0, 1]",right,1,87,25,f,y,y,2019_Jul_12_1449,2AFC_task,59.9393533627573,
stimuli/rgb_scene000169_render000002.png,stimuli/rgb_scene000169_render000005.png,1,164,374,181,"[1, 0]",right,0,87,25,f,y,y,2019_Jul_12_1449,2AFC_task,59.9393533627573,
stimuli/rgb_scene000150_render000001.png,stimuli/rgb_scene000150_render000006.png,1,165,375,115,"[1, 0]",left,1,87,25,f,y,y,2019_Jul_12_1449,2AFC_task,59.9393533627573,
stimuli/rgb_scene000160_render000001.png,stimuli/rgb_scene000160_render000006.png,1,166,376,136,"[1, 0]",left,1,87,25,f,y,y,2019_Jul_12_1449,2AFC_task,59.9393533627573,
stimuli/rgb_scene000056_render000004.png,stimuli/rgb_scene000056_render000006.png,1,167,377,61,"[1, 0]",left,1,87,25,f,y,y,2019_Jul_12_1449,2AFC_task,59.9393533627573,
stimuli/rgb_scene000047_render000000.png,stimuli/rgb_scene000047_render000003.png,1,168,378,23,"[0, 1]",right,1,87,25,f,y,y,2019_Jul_12_1449,2AFC_task,59.9393533627573,
stimuli/rgb_scene000169_render000000.png,stimuli/rgb_scene000169_render000006.png,1,169,379,173,"[0, 1]",left,0,87,25,f,y,y,2019_Jul_12_1449,2AFC_task,59.9393533627573,
stimuli/rgb_scene000047_render000001.png,stimuli/rgb_scene000047_render000004.png,1,170,380,29,"[0, 1]",right,1,87,25,f,y,y,2019_Jul_12_1449,2AFC_task,59.9393533627573,
stimuli/rgb_scene000169_render000003.png,stimuli/rgb_scene000169_render000005.png,1,171,381,184,"[0, 1]",left,0,87,25,f,y,y,2019_Jul_12_1449,2AFC_task,59.9393533627573,
stimuli/rgb_scene000042_render000001.png,stimuli/rgb_scene000042_render000005.png,1,172,382,9,"[1, 0]",left,1,87,25,f,y,y,2019_Jul_12_1449,2AFC_task,59.9393533627573,
stimuli/rgb_scene000042_render000004.png,stimuli/rgb_scene000042_render000006.png,1,173,383,19,"[1, 0]",left,1,87,25,f,y,y,2019_Jul_12_1449,2AFC_task,59.9393533627573,
stimuli/rgb_scene000066_render000000.png,stimuli/rgb_scene000066_render000006.png,1,174,384,68,"[0, 1]",right,1,87,25,f,y,y,2019_Jul_12_1449,2AFC_task,59.9393533627573,
stimuli/rgb_scene000169_render000004.png,stimuli/rgb_scene000169_render000006.png,1,175,385,187,"[0, 1]",right,1,87,25,f,y,y,2019_Jul_12_1449,2AFC_task,59.9393533627573,
stimuli/rgb_scene000056_render000000.png,stimuli/rgb_scene000056_render000003.png,1,176,386,44,"[1, 0]",left,1,87,25,f,y,y,2019_Jul_12_1449,2AFC_task,59.9393533627573,
stimuli/rgb_scene000042_render000001.png,stimuli/rgb_scene000042_render000006.png,1,177,387,10,"[1, 0]",left,1,87,25,f,y,y,2019_Jul_12_1449,2AFC_task,59.9393533627573,
stimuli/rgb_scene000150_render000004.png,stimuli/rgb_scene000150_render000006.png,1,178,388,124,"[1, 0]",right,0,87,25,f,y,y,2019_Jul_12_1449,2AFC_task,59.9393533627573,
stimuli/rgb_scene000196_render000000.png,stimuli/rgb_scene000196_render000001.png,1,179,389,189,"[1, 0]",right,0,87,25,f,y,y,2019_Jul_12_1449,2AFC_task,59.9393533627573,
stimuli/rgb_scene000066_render000001.png,stimuli/rgb_scene000066_render000005.png,1,180,390,72,"[0, 1]",right,1,87,25,f,y,y,2019_Jul_12_1449,2AFC_task,59.9393533627573,
stimuli/rgb_scene000056_render000000.png,stimuli/rgb_scene000056_render000006.png,1,181,391,47,"[0, 1]",right,1,87,25,f,y,y,2019_Jul_12_1449,2AFC_task,59.9393533627573,
stimuli/rgb_scene000160_render000000.png,stimuli/rgb_scene000160_render000002.png,1,182,392,127,"[1, 0]",left,1,87,25,f,y,y,2019_Jul_12_1449,2AFC_task,59.9393533627573,
stimuli/rgb_scene000042_render000000.png,stimuli/rgb_scene000042_render000003.png,1,183,393,2,"[1, 0]",left,1,87,25,f,y,y,2019_Jul_12_1449,2AFC_task,59.9393533627573,
stimuli/rgb_scene000165_render000002.png,stimuli/rgb_scene000165_render000006.png,1,184,394,161,"[1, 0]",left,1,87,25,f,y,y,2019_Jul_12_1449,2AFC_task,59.9393533627573,
stimuli/rgb_scene000196_render000002.png,stimuli/rgb_scene000196_render000003.png,1,185,395,200,"[1, 0]",right,0,87,25,f,y,y,2019_Jul_12_1449,2AFC_task,59.9393533627573,
stimuli/rgb_scene000196_render000002.png,stimuli/rgb_scene000196_render000004.png,1,186,396,201,"[0, 1]",right,1,87,25,f,y,y,2019_Jul_12_1449,2AFC_task,59.9393533627573,
stimuli/rgb_scene000047_render000004.png,stimuli/rgb_scene000047_render000006.png,1,187,397,40,"[0, 1]",left,0,87,25,f,y,y,2019_Jul_12_1449,2AFC_task,59.9393533627573,
stimuli/rgb_scene000150_render000003.png,stimuli/rgb_scene000150_render000005.png,1,188,398,121,"[1, 0]",left,1,87,25,f,y,y,2019_Jul_12_1449,2AFC_task,59.9393533627573,
stimuli/rgb_scene000147_render000001.png,stimuli/rgb_scene000147_render000003.png,1,189,399,91,"[1, 0]",left,1,87,25,f,y,y,2019_Jul_12_1449,2AFC_task,59.9393533627573,
stimuli/rgb_scene000147_render000003.png,stimuli/rgb_scene000147_render000006.png,1,190,400,101,"[1, 0]",left,1,87,25,f,y,y,2019_Jul_12_1449,2AFC_task,59.9393533627573,
stimuli/rgb_scene000169_render000000.png,stimuli/rgb_scene000169_render000003.png,1,191,401,170,"[0, 1]",right,1,87,25,f,y,y,2019_Jul_12_1449,2AFC_task,59.9393533627573,
stimuli/rgb_scene000160_render000002.png,stimuli/rgb_scene000160_render000003.png,1,192,402,137,"[0, 1]",right,1,87,25,f,y,y,2019_Jul_12_1449,2AFC_task,59.9393533627573,
stimuli/rgb_scene000150_render000005.png,stimuli/rgb_scene000150_render000006.png,1,193,403,125,"[1, 0]",right,0,87,25,f,y,y,2019_Jul_12_1449,2AFC_task,59.9393533627573,
stimuli/rgb_scene000169_render000000.png,stimuli/rgb_scene000169_render000004.png,1,194,404,171,"[0, 1]",left,0,87,25,f,y,y,2019_Jul_12_1449,2AFC_task,59.9393533627573,
stimuli/rgb_scene000147_render000002.png,stimuli/rgb_scene000147_render000004.png,1,195,405,96,"[1, 0]",left,1,87,25,f,y,y,2019_Jul_12_1449,2AFC_task,59.9393533627573,
stimuli/rgb_scene000147_render000000.png,stimuli/rgb_scene000147_render000002.png,1,196,406,85,"[0, 1]",right,1,87,25,f,y,y,2019_Jul_12_1449,2AFC_task,59.9393533627573,
stimuli/rgb_scene000160_render000002.png,stimuli/rgb_scene000160_render000006.png,1,197,407,140,"[0, 1]",right,1,87,25,f,y,y,2019_Jul_12_1449,2AFC_task,59.9393533627573,
stimuli/rgb_scene000196_render000001.png,stimuli/rgb_scene000196_render000006.png,1,198,408,199,"[0, 1]",left,0,87,25,f,y,y,2019_Jul_12_1449,2AFC_task,59.9393533627573,
stimuli/rgb_scene000066_render000004.png,stimuli/rgb_scene000066_render000005.png,1,199,409,81,"[1, 0]",left,1,87,25,f,y,y,2019_Jul_12_1449,2AFC_task,59.9393533627573,
stimuli/rgb_scene000056_render000000.png,stimuli/rgb_scene000056_render000004.png,1,200,410,45,"[1, 0]",left,1,87,25,f,y,y,2019_Jul_12_1449,2AFC_task,59.9393533627573,
stimuli/rgb_scene000066_render000001.png,stimuli/rgb_scene000066_render000006.png,1,201,411,73,"[0, 1]",right,1,87,25,f,y,y,2019_Jul_12_1449,2AFC_task,59.9393533627573,
stimuli/rgb_scene000047_render000000.png,stimuli/rgb_scene000047_render000006.png,1,202,412,26,"[0, 1]",right,1,87,25,f,y,y,2019_Jul_12_1449,2AFC_task,59.9393533627573,
stimuli/rgb_scene000147_render000003.png,stimuli/rgb_scene000147_render000005.png,1,203,413,100,"[0, 1]",right,1,87,25,f,y,y,2019_Jul_12_1449,2AFC_task,59.9393533627573,
stimuli/rgb_scene000047_render000001.png,stimuli/rgb_scene000047_render000002.png,1,204,414,27,"[0, 1]",right,1,87,25,f,y,y,2019_Jul_12_1449,2AFC_task,59.9393533627573,
stimuli/rgb_scene000160_render000003.png,stimuli/rgb_scene000160_render000005.png,1,205,415,142,"[0, 1]",right,1,87,25,f,y,y,2019_Jul_12_1449,2AFC_task,59.9393533627573,
stimuli/rgb_scene000147_render000001.png,stimuli/rgb_scene000147_render000005.png,1,206,416,93,"[1, 0]",left,1,87,25,f,y,y,2019_Jul_12_1449,2AFC_task,59.9393533627573,
stimuli/rgb_scene000160_render000005.png,stimuli/rgb_scene000160_render000006.png,1,207,417,146,"[0, 1]",right,1,87,25,f,y,y,2019_Jul_12_1449,2AFC_task,59.9393533627573,
stimuli/rgb_scene000056_render000000.png,stimuli/rgb_scene000056_render000005.png,1,208,418,46,"[0, 1]",right,1,87,25,f,y,y,2019_Jul_12_1449,2AFC_task,59.9393533627573,
stimuli/rgb_scene000056_render000001.png,stimuli/rgb_scene000056_render000002.png,1,209,419,48,"[0, 1]",right,1,87,25,f,y,y,2019_Jul_12_1449,2AFC_task,59.9393533627573,
