stimOne,stimTwo,trials_1.thisRepN,trials_1.thisTrialN,trials_1.thisN,trials_1.thisIndex,presentation_positions,resp_key,corresponding_image,participant ID (two digits, e.g. 01),age,gender (m/f/-),normal or corrected-to-normal vision (y/n),normal colour vision (y/n),date,expName,frameRate,
stimuli/rgb_scene000066_render000000.png,stimuli/rgb_scene000066_render000005.png,0,0,0,67,"[1, 0]",left,1,99,21,f,y,y,2019_Jul_15_1435,2AFC_task,59.95361338240629,
stimuli/rgb_scene000150_render000004.png,stimuli/rgb_scene000150_render000005.png,0,1,1,123,"[0, 1]",right,1,99,21,f,y,y,2019_Jul_15_1435,2AFC_task,59.95361338240629,
stimuli/rgb_scene000147_render000002.png,stimuli/rgb_scene000147_render000004.png,0,2,2,96,"[1, 0]",left,1,99,21,f,y,y,2019_Jul_15_1435,2AFC_task,59.95361338240629,
stimuli/rgb_scene000150_render000001.png,stimuli/rgb_scene000150_render000003.png,0,3,3,112,"[1, 0]",left,1,99,21,f,y,y,2019_Jul_15_1435,2AFC_task,59.95361338240629,
stimuli/rgb_scene000160_render000005.png,stimuli/rgb_scene000160_render000006.png,0,4,4,146,"[0, 1]",right,1,99,21,f,y,y,2019_Jul_15_1435,2AFC_task,59.95361338240629,
stimuli/rgb_scene000196_render000003.png,stimuli/rgb_scene000196_render000006.png,0,5,5,206,"[1, 0]",right,0,99,21,f,y,y,2019_Jul_15_1435,2AFC_task,59.95361338240629,
stimuli/rgb_scene000160_render000002.png,stimuli/rgb_scene000160_render000006.png,0,6,6,140,"[0, 1]",right,1,99,21,f,y,y,2019_Jul_15_1435,2AFC_task,59.95361338240629,
stimuli/rgb_scene000165_render000001.png,stimuli/rgb_scene000165_render000004.png,0,7,7,155,"[1, 0]",left,1,99,21,f,y,y,2019_Jul_15_1435,2AFC_task,59.95361338240629,
stimuli/rgb_scene000066_render000002.png,stimuli/rgb_scene000066_render000006.png,0,8,8,77,"[1, 0]",left,1,99,21,f,y,y,2019_Jul_15_1435,2AFC_task,59.95361338240629,
stimuli/rgb_scene000056_render000004.png,stimuli/rgb_scene000056_render000005.png,0,9,9,60,"[1, 0]",left,1,99,21,f,y,y,2019_Jul_15_1435,2AFC_task,59.95361338240629,
stimuli/rgb_scene000042_render000003.png,stimuli/rgb_scene000042_render000004.png,0,10,10,15,"[1, 0]",left,1,99,21,f,y,y,2019_Jul_15_1435,2AFC_task,59.95361338240629,
stimuli/rgb_scene000042_render000000.png,stimuli/rgb_scene000042_render000006.png,0,11,11,5,"[1, 0]",left,1,99,21,f,y,y,2019_Jul_15_1435,2AFC_task,59.95361338240629,
stimuli/rgb_scene000056_render000001.png,stimuli/rgb_scene000056_render000002.png,0,12,12,48,"[1, 0]",left,1,99,21,f,y,y,2019_Jul_15_1435,2AFC_task,59.95361338240629,
stimuli/rgb_scene000165_render000003.png,stimuli/rgb_scene000165_render000004.png,0,13,13,162,"[1, 0]",left,1,99,21,f,y,y,2019_Jul_15_1435,2AFC_task,59.95361338240629,
stimuli/rgb_scene000042_render000000.png,stimuli/rgb_scene000042_render000001.png,0,14,14,0,"[1, 0]",left,1,99,21,f,y,y,2019_Jul_15_1435,2AFC_task,59.95361338240629,
stimuli/rgb_scene000150_render000001.png,stimuli/rgb_scene000150_render000004.png,0,15,15,113,"[1, 0]",left,1,99,21,f,y,y,2019_Jul_15_1435,2AFC_task,59.95361338240629,
stimuli/rgb_scene000066_render000001.png,stimuli/rgb_scene000066_render000003.png,0,16,16,70,"[0, 1]",right,1,99,21,f,y,y,2019_Jul_15_1435,2AFC_task,59.95361338240629,
stimuli/rgb_scene000147_render000004.png,stimuli/rgb_scene000147_render000005.png,0,17,17,102,"[1, 0]",left,1,99,21,f,y,y,2019_Jul_15_1435,2AFC_task,59.95361338240629,
stimuli/rgb_scene000165_render000000.png,stimuli/rgb_scene000165_render000005.png,0,18,18,151,"[1, 0]",left,1,99,21,f,y,y,2019_Jul_15_1435,2AFC_task,59.95361338240629,
stimuli/rgb_scene000066_render000003.png,stimuli/rgb_scene000066_render000005.png,0,19,19,79,"[1, 0]",left,1,99,21,f,y,y,2019_Jul_15_1435,2AFC_task,59.95361338240629,
stimuli/rgb_scene000196_render000001.png,stimuli/rgb_scene000196_render000003.png,0,20,20,196,"[1, 0]",left,1,99,21,f,y,y,2019_Jul_15_1435,2AFC_task,59.95361338240629,
stimuli/rgb_scene000160_render000002.png,stimuli/rgb_scene000160_render000003.png,0,21,21,137,"[0, 1]",right,1,99,21,f,y,y,2019_Jul_15_1435,2AFC_task,59.95361338240629,
stimuli/rgb_scene000160_render000000.png,stimuli/rgb_scene000160_render000003.png,0,22,22,128,"[0, 1]",right,1,99,21,f,y,y,2019_Jul_15_1435,2AFC_task,59.95361338240629,
stimuli/rgb_scene000042_render000002.png,stimuli/rgb_scene000042_render000004.png,0,23,23,12,"[1, 0]",left,1,99,21,f,y,y,2019_Jul_15_1435,2AFC_task,59.95361338240629,
stimuli/rgb_scene000147_render000001.png,stimuli/rgb_scene000147_render000004.png,0,24,24,92,"[0, 1]",right,1,99,21,f,y,y,2019_Jul_15_1435,2AFC_task,59.95361338240629,
stimuli/rgb_scene000160_render000001.png,stimuli/rgb_scene000160_render000004.png,0,25,25,134,"[1, 0]",left,1,99,21,f,y,y,2019_Jul_15_1435,2AFC_task,59.95361338240629,
stimuli/rgb_scene000165_render000002.png,stimuli/rgb_scene000165_render000006.png,0,26,26,161,"[0, 1]",right,1,99,21,f,y,y,2019_Jul_15_1435,2AFC_task,59.95361338240629,
stimuli/rgb_scene000160_render000004.png,stimuli/rgb_scene000160_render000006.png,0,27,27,145,"[0, 1]",right,1,99,21,f,y,y,2019_Jul_15_1435,2AFC_task,59.95361338240629,
stimuli/rgb_scene000066_render000005.png,stimuli/rgb_scene000066_render000006.png,0,28,28,83,"[1, 0]",left,1,99,21,f,y,y,2019_Jul_15_1435,2AFC_task,59.95361338240629,
stimuli/rgb_scene000047_render000003.png,stimuli/rgb_scene000047_render000006.png,0,29,29,38,"[1, 0]",left,1,99,21,f,y,y,2019_Jul_15_1435,2AFC_task,59.95361338240629,
stimuli/rgb_scene000160_render000001.png,stimuli/rgb_scene000160_render000005.png,0,30,30,135,"[1, 0]",left,1,99,21,f,y,y,2019_Jul_15_1435,2AFC_task,59.95361338240629,
stimuli/rgb_scene000160_render000003.png,stimuli/rgb_scene000160_render000004.png,0,31,31,141,"[0, 1]",right,1,99,21,f,y,y,2019_Jul_15_1435,2AFC_task,59.95361338240629,
stimuli/rgb_scene000042_render000002.png,stimuli/rgb_scene000042_render000003.png,0,32,32,11,"[0, 1]",right,1,99,21,f,y,y,2019_Jul_15_1435,2AFC_task,59.95361338240629,
stimuli/rgb_scene000047_render000000.png,stimuli/rgb_scene000047_render000003.png,0,33,33,23,"[0, 1]",right,1,99,21,f,y,y,2019_Jul_15_1435,2AFC_task,59.95361338240629,
stimuli/rgb_scene000150_render000004.png,stimuli/rgb_scene000150_render000006.png,0,34,34,124,"[1, 0]",left,1,99,21,f,y,y,2019_Jul_15_1435,2AFC_task,59.95361338240629,
stimuli/rgb_scene000147_render000001.png,stimuli/rgb_scene000147_render000006.png,0,35,35,94,"[1, 0]",left,1,99,21,f,y,y,2019_Jul_15_1435,2AFC_task,59.95361338240629,
stimuli/rgb_scene000165_render000003.png,stimuli/rgb_scene000165_render000006.png,0,36,36,164,"[0, 1]",right,1,99,21,f,y,y,2019_Jul_15_1435,2AFC_task,59.95361338240629,
stimuli/rgb_scene000056_render000002.png,stimuli/rgb_scene000056_render000005.png,0,37,37,55,"[0, 1]",right,1,99,21,f,y,y,2019_Jul_15_1435,2AFC_task,59.95361338240629,
stimuli/rgb_scene000169_render000003.png,stimuli/rgb_scene000169_render000006.png,0,38,38,185,"[1, 0]",left,1,99,21,f,y,y,2019_Jul_15_1435,2AFC_task,59.95361338240629,
stimuli/rgb_scene000056_render000001.png,stimuli/rgb_scene000056_render000005.png,0,39,39,51,"[1, 0]",left,1,99,21,f,y,y,2019_Jul_15_1435,2AFC_task,59.95361338240629,
stimuli/rgb_scene000056_render000000.png,stimuli/rgb_scene000056_render000001.png,0,40,40,42,"[0, 1]",right,1,99,21,f,y,y,2019_Jul_15_1435,2AFC_task,59.95361338240629,
stimuli/rgb_scene000196_render000000.png,stimuli/rgb_scene000196_render000001.png,0,41,41,189,"[1, 0]",left,1,99,21,f,y,y,2019_Jul_15_1435,2AFC_task,59.95361338240629,
stimuli/rgb_scene000196_render000001.png,stimuli/rgb_scene000196_render000002.png,0,42,42,195,"[1, 0]",left,1,99,21,f,y,y,2019_Jul_15_1435,2AFC_task,59.95361338240629,
stimuli/rgb_scene000150_render000001.png,stimuli/rgb_scene000150_render000005.png,0,43,43,114,"[0, 1]",right,1,99,21,f,y,y,2019_Jul_15_1435,2AFC_task,59.95361338240629,
stimuli/rgb_scene000196_render000001.png,stimuli/rgb_scene000196_render000004.png,0,44,44,197,"[0, 1]",right,1,99,21,f,y,y,2019_Jul_15_1435,2AFC_task,59.95361338240629,
stimuli/rgb_scene000042_render000002.png,stimuli/rgb_scene000042_render000005.png,0,45,45,13,"[0, 1]",right,1,99,21,f,y,y,2019_Jul_15_1435,2AFC_task,59.95361338240629,
stimuli/rgb_scene000042_render000004.png,stimuli/rgb_scene000042_render000006.png,0,46,46,19,"[1, 0]",left,1,99,21,f,y,y,2019_Jul_15_1435,2AFC_task,59.95361338240629,
stimuli/rgb_scene000066_render000002.png,stimuli/rgb_scene000066_render000003.png,0,47,47,74,"[0, 1]",right,1,99,21,f,y,y,2019_Jul_15_1435,2AFC_task,59.95361338240629,
stimuli/rgb_scene000066_render000003.png,stimuli/rgb_scene000066_render000006.png,0,48,48,80,"[0, 1]",right,1,99,21,f,y,y,2019_Jul_15_1435,2AFC_task,59.95361338240629,
stimuli/rgb_scene000160_render000004.png,stimuli/rgb_scene000160_render000005.png,0,49,49,144,"[1, 0]",left,1,99,21,f,y,y,2019_Jul_15_1435,2AFC_task,59.95361338240629,
stimuli/rgb_scene000047_render000002.png,stimuli/rgb_scene000047_render000003.png,0,50,50,32,"[1, 0]",left,1,99,21,f,y,y,2019_Jul_15_1435,2AFC_task,59.95361338240629,
stimuli/rgb_scene000165_render000003.png,stimuli/rgb_scene000165_render000005.png,0,51,51,163,"[1, 0]",left,1,99,21,f,y,y,2019_Jul_15_1435,2AFC_task,59.95361338240629,
stimuli/rgb_scene000160_render000001.png,stimuli/rgb_scene000160_render000002.png,0,52,52,132,"[1, 0]",left,1,99,21,f,y,y,2019_Jul_15_1435,2AFC_task,59.95361338240629,
stimuli/rgb_scene000150_render000002.png,stimuli/rgb_scene000150_render000003.png,0,53,53,116,"[0, 1]",right,1,99,21,f,y,y,2019_Jul_15_1435,2AFC_task,59.95361338240629,
stimuli/rgb_scene000196_render000003.png,stimuli/rgb_scene000196_render000004.png,0,54,54,204,"[1, 0]",left,1,99,21,f,y,y,2019_Jul_15_1435,2AFC_task,59.95361338240629,
stimuli/rgb_scene000196_render000003.png,stimuli/rgb_scene000196_render000005.png,0,55,55,205,"[1, 0]",right,0,99,21,f,y,y,2019_Jul_15_1435,2AFC_task,59.95361338240629,
stimuli/rgb_scene000147_render000000.png,stimuli/rgb_scene000147_render000002.png,0,56,56,85,"[1, 0]",left,1,99,21,f,y,y,2019_Jul_15_1435,2AFC_task,59.95361338240629,
stimuli/rgb_scene000160_render000000.png,stimuli/rgb_scene000160_render000005.png,0,57,57,130,"[0, 1]",right,1,99,21,f,y,y,2019_Jul_15_1435,2AFC_task,59.95361338240629,
stimuli/rgb_scene000169_render000001.png,stimuli/rgb_scene000169_render000004.png,0,58,58,176,"[0, 1]",right,1,99,21,f,y,y,2019_Jul_15_1435,2AFC_task,59.95361338240629,
stimuli/rgb_scene000066_render000001.png,stimuli/rgb_scene000066_render000005.png,0,59,59,72,"[1, 0]",left,1,99,21,f,y,y,2019_Jul_15_1435,2AFC_task,59.95361338240629,
stimuli/rgb_scene000196_render000005.png,stimuli/rgb_scene000196_render000006.png,0,60,60,209,"[0, 1]",left,0,99,21,f,y,y,2019_Jul_15_1435,2AFC_task,59.95361338240629,
stimuli/rgb_scene000160_render000000.png,stimuli/rgb_scene000160_render000002.png,0,61,61,127,"[1, 0]",left,1,99,21,f,y,y,2019_Jul_15_1435,2AFC_task,59.95361338240629,
stimuli/rgb_scene000056_render000001.png,stimuli/rgb_scene000056_render000004.png,0,62,62,50,"[1, 0]",left,1,99,21,f,y,y,2019_Jul_15_1435,2AFC_task,59.95361338240629,
stimuli/rgb_scene000042_render000004.png,stimuli/rgb_scene000042_render000005.png,0,63,63,18,"[0, 1]",right,1,99,21,f,y,y,2019_Jul_15_1435,2AFC_task,59.95361338240629,
stimuli/rgb_scene000169_render000002.png,stimuli/rgb_scene000169_render000003.png,0,64,64,179,"[0, 1]",right,1,99,21,f,y,y,2019_Jul_15_1435,2AFC_task,59.95361338240629,
stimuli/rgb_scene000056_render000002.png,stimuli/rgb_scene000056_render000004.png,0,65,65,54,"[1, 0]",left,1,99,21,f,y,y,2019_Jul_15_1435,2AFC_task,59.95361338240629,
stimuli/rgb_scene000042_render000001.png,stimuli/rgb_scene000042_render000002.png,0,66,66,6,"[0, 1]",right,1,99,21,f,y,y,2019_Jul_15_1435,2AFC_task,59.95361338240629,
stimuli/rgb_scene000196_render000001.png,stimuli/rgb_scene000196_render000006.png,0,67,67,199,"[1, 0]",left,1,99,21,f,y,y,2019_Jul_15_1435,2AFC_task,59.95361338240629,
stimuli/rgb_scene000169_render000001.png,stimuli/rgb_scene000169_render000005.png,0,68,68,177,"[1, 0]",left,1,99,21,f,y,y,2019_Jul_15_1435,2AFC_task,59.95361338240629,
stimuli/rgb_scene000042_render000003.png,stimuli/rgb_scene000042_render000005.png,0,69,69,16,"[1, 0]",left,1,99,21,f,y,y,2019_Jul_15_1435,2AFC_task,59.95361338240629,
stimuli/rgb_scene000042_render000003.png,stimuli/rgb_scene000042_render000006.png,0,70,70,17,"[1, 0]",left,1,99,21,f,y,y,2019_Jul_15_1435,2AFC_task,59.95361338240629,
stimuli/rgb_scene000169_render000003.png,stimuli/rgb_scene000169_render000005.png,0,71,71,184,"[0, 1]",right,1,99,21,f,y,y,2019_Jul_15_1435,2AFC_task,59.95361338240629,
stimuli/rgb_scene000056_render000003.png,stimuli/rgb_scene000056_render000004.png,0,72,72,57,"[0, 1]",right,1,99,21,f,y,y,2019_Jul_15_1435,2AFC_task,59.95361338240629,
stimuli/rgb_scene000160_render000001.png,stimuli/rgb_scene000160_render000003.png,0,73,73,133,"[0, 1]",right,1,99,21,f,y,y,2019_Jul_15_1435,2AFC_task,59.95361338240629,
stimuli/rgb_scene000160_render000002.png,stimuli/rgb_scene000160_render000004.png,0,74,74,138,"[1, 0]",left,1,99,21,f,y,y,2019_Jul_15_1435,2AFC_task,59.95361338240629,
stimuli/rgb_scene000196_render000002.png,stimuli/rgb_scene000196_render000003.png,0,75,75,200,"[0, 1]",right,1,99,21,f,y,y,2019_Jul_15_1435,2AFC_task,59.95361338240629,
stimuli/rgb_scene000147_render000000.png,stimuli/rgb_scene000147_render000004.png,0,76,76,87,"[0, 1]",right,1,99,21,f,y,y,2019_Jul_15_1435,2AFC_task,59.95361338240629,
stimuli/rgb_scene000169_render000002.png,stimuli/rgb_scene000169_render000004.png,0,77,77,180,"[0, 1]",right,1,99,21,f,y,y,2019_Jul_15_1435,2AFC_task,59.95361338240629,
stimuli/rgb_scene000147_render000001.png,stimuli/rgb_scene000147_render000003.png,0,78,78,91,"[1, 0]",left,1,99,21,f,y,y,2019_Jul_15_1435,2AFC_task,59.95361338240629,
stimuli/rgb_scene000196_render000000.png,stimuli/rgb_scene000196_render000003.png,0,79,79,191,"[1, 0]",left,1,99,21,f,y,y,2019_Jul_15_1435,2AFC_task,59.95361338240629,
stimuli/rgb_scene000150_render000000.png,stimuli/rgb_scene000150_render000006.png,0,80,80,110,"[0, 1]",right,1,99,21,f,y,y,2019_Jul_15_1435,2AFC_task,59.95361338240629,
stimuli/rgb_scene000047_render000005.png,stimuli/rgb_scene000047_render000006.png,0,81,81,41,"[1, 0]",left,1,99,21,f,y,y,2019_Jul_15_1435,2AFC_task,59.95361338240629,
stimuli/rgb_scene000165_render000000.png,stimuli/rgb_scene000165_render000004.png,0,82,82,150,"[1, 0]",left,1,99,21,f,y,y,2019_Jul_15_1435,2AFC_task,59.95361338240629,
stimuli/rgb_scene000165_render000001.png,stimuli/rgb_scene000165_render000003.png,0,83,83,154,"[0, 1]",right,1,99,21,f,y,y,2019_Jul_15_1435,2AFC_task,59.95361338240629,
stimuli/rgb_scene000047_render000003.png,stimuli/rgb_scene000047_render000004.png,0,84,84,36,"[0, 1]",right,1,99,21,f,y,y,2019_Jul_15_1435,2AFC_task,59.95361338240629,
stimuli/rgb_scene000165_render000005.png,stimuli/rgb_scene000165_render000006.png,0,85,85,167,"[0, 1]",right,1,99,21,f,y,y,2019_Jul_15_1435,2AFC_task,59.95361338240629,
stimuli/rgb_scene000047_render000000.png,stimuli/rgb_scene000047_render000005.png,0,86,86,25,"[0, 1]",right,1,99,21,f,y,y,2019_Jul_15_1435,2AFC_task,59.95361338240629,
stimuli/rgb_scene000165_render000004.png,stimuli/rgb_scene000165_render000005.png,0,87,87,165,"[1, 0]",left,1,99,21,f,y,y,2019_Jul_15_1435,2AFC_task,59.95361338240629,
stimuli/rgb_scene000147_render000003.png,stimuli/rgb_scene000147_render000006.png,0,88,88,101,"[0, 1]",right,1,99,21,f,y,y,2019_Jul_15_1435,2AFC_task,59.95361338240629,
stimuli/rgb_scene000160_render000000.png,stimuli/rgb_scene000160_render000004.png,0,89,89,129,"[0, 1]",right,1,99,21,f,y,y,2019_Jul_15_1435,2AFC_task,59.95361338240629,
stimuli/rgb_scene000056_render000000.png,stimuli/rgb_scene000056_render000003.png,0,90,90,44,"[0, 1]",right,1,99,21,f,y,y,2019_Jul_15_1435,2AFC_task,59.95361338240629,
stimuli/rgb_scene000196_render000004.png,stimuli/rgb_scene000196_render000006.png,0,91,91,208,"[0, 1]",left,0,99,21,f,y,y,2019_Jul_15_1435,2AFC_task,59.95361338240629,
stimuli/rgb_scene000056_render000003.png,stimuli/rgb_scene000056_render000005.png,0,92,92,58,"[1, 0]",left,1,99,21,f,y,y,2019_Jul_15_1435,2AFC_task,59.95361338240629,
stimuli/rgb_scene000047_render000002.png,stimuli/rgb_scene000047_render000005.png,0,93,93,34,"[0, 1]",right,1,99,21,f,y,y,2019_Jul_15_1435,2AFC_task,59.95361338240629,
stimuli/rgb_scene000169_render000002.png,stimuli/rgb_scene000169_render000005.png,0,94,94,181,"[1, 0]",left,1,99,21,f,y,y,2019_Jul_15_1435,2AFC_task,59.95361338240629,
stimuli/rgb_scene000056_render000000.png,stimuli/rgb_scene000056_render000006.png,0,95,95,47,"[0, 1]",right,1,99,21,f,y,y,2019_Jul_15_1435,2AFC_task,59.95361338240629,
stimuli/rgb_scene000066_render000000.png,stimuli/rgb_scene000066_render000006.png,0,96,96,68,"[0, 1]",right,1,99,21,f,y,y,2019_Jul_15_1435,2AFC_task,59.95361338240629,
stimuli/rgb_scene000047_render000000.png,stimuli/rgb_scene000047_render000002.png,0,97,97,22,"[1, 0]",left,1,99,21,f,y,y,2019_Jul_15_1435,2AFC_task,59.95361338240629,
stimuli/rgb_scene000042_render000000.png,stimuli/rgb_scene000042_render000003.png,0,98,98,2,"[1, 0]",left,1,99,21,f,y,y,2019_Jul_15_1435,2AFC_task,59.95361338240629,
stimuli/rgb_scene000150_render000001.png,stimuli/rgb_scene000150_render000006.png,0,99,99,115,"[1, 0]",left,1,99,21,f,y,y,2019_Jul_15_1435,2AFC_task,59.95361338240629,
stimuli/rgb_scene000150_render000003.png,stimuli/rgb_scene000150_render000005.png,0,100,100,121,"[0, 1]",right,1,99,21,f,y,y,2019_Jul_15_1435,2AFC_task,59.95361338240629,
stimuli/rgb_scene000047_render000001.png,stimuli/rgb_scene000047_render000004.png,0,101,101,29,"[0, 1]",right,1,99,21,f,y,y,2019_Jul_15_1435,2AFC_task,59.95361338240629,
stimuli/rgb_scene000047_render000001.png,stimuli/rgb_scene000047_render000006.png,0,102,102,31,"[0, 1]",right,1,99,21,f,y,y,2019_Jul_15_1435,2AFC_task,59.95361338240629,
stimuli/rgb_scene000160_render000003.png,stimuli/rgb_scene000160_render000006.png,0,103,103,143,"[1, 0]",left,1,99,21,f,y,y,2019_Jul_15_1435,2AFC_task,59.95361338240629,
stimuli/rgb_scene000066_render000003.png,stimuli/rgb_scene000066_render000004.png,0,104,104,78,"[1, 0]",left,1,99,21,f,y,y,2019_Jul_15_1435,2AFC_task,59.95361338240629,
stimuli/rgb_scene000169_render000000.png,stimuli/rgb_scene000169_render000002.png,0,105,105,169,"[1, 0]",left,1,99,21,f,y,y,2019_Jul_15_1435,2AFC_task,59.95361338240629,
stimuli/rgb_scene000056_render000004.png,stimuli/rgb_scene000056_render000006.png,0,106,106,61,"[1, 0]",left,1,99,21,f,y,y,2019_Jul_15_1435,2AFC_task,59.95361338240629,
stimuli/rgb_scene000042_render000000.png,stimuli/rgb_scene000042_render000004.png,0,107,107,3,"[0, 1]",right,1,99,21,f,y,y,2019_Jul_15_1435,2AFC_task,59.95361338240629,
stimuli/rgb_scene000056_render000002.png,stimuli/rgb_scene000056_render000003.png,0,108,108,53,"[0, 1]",right,1,99,21,f,y,y,2019_Jul_15_1435,2AFC_task,59.95361338240629,
stimuli/rgb_scene000150_render000005.png,stimuli/rgb_scene000150_render000006.png,0,109,109,125,"[0, 1]",right,1,99,21,f,y,y,2019_Jul_15_1435,2AFC_task,59.95361338240629,
stimuli/rgb_scene000165_render000000.png,stimuli/rgb_scene000165_render000002.png,0,110,110,148,"[1, 0]",left,1,99,21,f,y,y,2019_Jul_15_1435,2AFC_task,59.95361338240629,
stimuli/rgb_scene000169_render000002.png,stimuli/rgb_scene000169_render000006.png,0,111,111,182,"[0, 1]",right,1,99,21,f,y,y,2019_Jul_15_1435,2AFC_task,59.95361338240629,
stimuli/rgb_scene000165_render000001.png,stimuli/rgb_scene000165_render000006.png,0,112,112,157,"[0, 1]",right,1,99,21,f,y,y,2019_Jul_15_1435,2AFC_task,59.95361338240629,
stimuli/rgb_scene000169_render000000.png,stimuli/rgb_scene000169_render000006.png,0,113,113,173,"[0, 1]",right,1,99,21,f,y,y,2019_Jul_15_1435,2AFC_task,59.95361338240629,
stimuli/rgb_scene000056_render000001.png,stimuli/rgb_scene000056_render000006.png,0,114,114,52,"[1, 0]",left,1,99,21,f,y,y,2019_Jul_15_1435,2AFC_task,59.95361338240629,
stimuli/rgb_scene000042_render000000.png,stimuli/rgb_scene000042_render000002.png,0,115,115,1,"[0, 1]",right,1,99,21,f,y,y,2019_Jul_15_1435,2AFC_task,59.95361338240629,
stimuli/rgb_scene000147_render000005.png,stimuli/rgb_scene000147_render000006.png,0,116,116,104,"[1, 0]",left,1,99,21,f,y,y,2019_Jul_15_1435,2AFC_task,59.95361338240629,
stimuli/rgb_scene000196_render000002.png,stimuli/rgb_scene000196_render000005.png,0,117,117,202,"[1, 0]",right,0,99,21,f,y,y,2019_Jul_15_1435,2AFC_task,59.95361338240629,
stimuli/rgb_scene000165_render000002.png,stimuli/rgb_scene000165_render000005.png,0,118,118,160,"[0, 1]",right,1,99,21,f,y,y,2019_Jul_15_1435,2AFC_task,59.95361338240629,
stimuli/rgb_scene000066_render000000.png,stimuli/rgb_scene000066_render000003.png,0,119,119,65,"[0, 1]",right,1,99,21,f,y,y,2019_Jul_15_1435,2AFC_task,59.95361338240629,
stimuli/rgb_scene000147_render000000.png,stimuli/rgb_scene000147_render000006.png,0,120,120,89,"[0, 1]",right,1,99,21,f,y,y,2019_Jul_15_1435,2AFC_task,59.95361338240629,
stimuli/rgb_scene000150_render000001.png,stimuli/rgb_scene000150_render000002.png,0,121,121,111,"[0, 1]",right,1,99,21,f,y,y,2019_Jul_15_1435,2AFC_task,59.95361338240629,
stimuli/rgb_scene000056_render000000.png,stimuli/rgb_scene000056_render000004.png,0,122,122,45,"[0, 1]",right,1,99,21,f,y,y,2019_Jul_15_1435,2AFC_task,59.95361338240629,
stimuli/rgb_scene000196_render000000.png,stimuli/rgb_scene000196_render000005.png,0,123,123,193,"[0, 1]",right,1,99,21,f,y,y,2019_Jul_15_1435,2AFC_task,59.95361338240629,
stimuli/rgb_scene000169_render000003.png,stimuli/rgb_scene000169_render000004.png,0,124,124,183,"[0, 1]",right,1,99,21,f,y,y,2019_Jul_15_1435,2AFC_task,59.95361338240629,
stimuli/rgb_scene000169_render000000.png,stimuli/rgb_scene000169_render000004.png,0,125,125,171,"[1, 0]",left,1,99,21,f,y,y,2019_Jul_15_1435,2AFC_task,59.95361338240629,
stimuli/rgb_scene000056_render000000.png,stimuli/rgb_scene000056_render000005.png,0,126,126,46,"[0, 1]",right,1,99,21,f,y,y,2019_Jul_15_1435,2AFC_task,59.95361338240629,
stimuli/rgb_scene000160_render000000.png,stimuli/rgb_scene000160_render000001.png,0,127,127,126,"[1, 0]",left,1,99,21,f,y,y,2019_Jul_15_1435,2AFC_task,59.95361338240629,
stimuli/rgb_scene000066_render000001.png,stimuli/rgb_scene000066_render000002.png,0,128,128,69,"[1, 0]",left,1,99,21,f,y,y,2019_Jul_15_1435,2AFC_task,59.95361338240629,
stimuli/rgb_scene000196_render000002.png,stimuli/rgb_scene000196_render000006.png,0,129,129,203,"[0, 1]",left,0,99,21,f,y,y,2019_Jul_15_1435,2AFC_task,59.95361338240629,
stimuli/rgb_scene000165_render000000.png,stimuli/rgb_scene000165_render000001.png,0,130,130,147,"[0, 1]",right,1,99,21,f,y,y,2019_Jul_15_1435,2AFC_task,59.95361338240629,
stimuli/rgb_scene000047_render000002.png,stimuli/rgb_scene000047_render000006.png,0,131,131,35,"[1, 0]",left,1,99,21,f,y,y,2019_Jul_15_1435,2AFC_task,59.95361338240629,
stimuli/rgb_scene000147_render000000.png,stimuli/rgb_scene000147_render000003.png,0,132,132,86,"[0, 1]",right,1,99,21,f,y,y,2019_Jul_15_1435,2AFC_task,59.95361338240629,
stimuli/rgb_scene000150_render000002.png,stimuli/rgb_scene000150_render000005.png,0,133,133,118,"[0, 1]",right,1,99,21,f,y,y,2019_Jul_15_1435,2AFC_task,59.95361338240629,
stimuli/rgb_scene000047_render000000.png,stimuli/rgb_scene000047_render000006.png,0,134,134,26,"[1, 0]",left,1,99,21,f,y,y,2019_Jul_15_1435,2AFC_task,59.95361338240629,
stimuli/rgb_scene000047_render000003.png,stimuli/rgb_scene000047_render000005.png,0,135,135,37,"[0, 1]",right,1,99,21,f,y,y,2019_Jul_15_1435,2AFC_task,59.95361338240629,
stimuli/rgb_scene000047_render000001.png,stimuli/rgb_scene000047_render000002.png,0,136,136,27,"[0, 1]",right,1,99,21,f,y,y,2019_Jul_15_1435,2AFC_task,59.95361338240629,
stimuli/rgb_scene000169_render000004.png,stimuli/rgb_scene000169_render000006.png,0,137,137,187,"[0, 1]",right,1,99,21,f,y,y,2019_Jul_15_1435,2AFC_task,59.95361338240629,
stimuli/rgb_scene000066_render000004.png,stimuli/rgb_scene000066_render000006.png,0,138,138,82,"[1, 0]",left,1,99,21,f,y,y,2019_Jul_15_1435,2AFC_task,59.95361338240629,
stimuli/rgb_scene000066_render000001.png,stimuli/rgb_scene000066_render000006.png,0,139,139,73,"[0, 1]",right,1,99,21,f,y,y,2019_Jul_15_1435,2AFC_task,59.95361338240629,
stimuli/rgb_scene000150_render000000.png,stimuli/rgb_scene000150_render000001.png,0,140,140,105,"[0, 1]",right,1,99,21,f,y,y,2019_Jul_15_1435,2AFC_task,59.95361338240629,
stimuli/rgb_scene000169_render000004.png,stimuli/rgb_scene000169_render000005.png,0,141,141,186,"[1, 0]",left,1,99,21,f,y,y,2019_Jul_15_1435,2AFC_task,59.95361338240629,
stimuli/rgb_scene000196_render000001.png,stimuli/rgb_scene000196_render000005.png,0,142,142,198,"[0, 1]",right,1,99,21,f,y,y,2019_Jul_15_1435,2AFC_task,59.95361338240629,
stimuli/rgb_scene000066_render000000.png,stimuli/rgb_scene000066_render000001.png,0,143,143,63,"[0, 1]",right,1,99,21,f,y,y,2019_Jul_15_1435,2AFC_task,59.95361338240629,
stimuli/rgb_scene000042_render000001.png,stimuli/rgb_scene000042_render000006.png,0,144,144,10,"[0, 1]",right,1,99,21,f,y,y,2019_Jul_15_1435,2AFC_task,59.95361338240629,
stimuli/rgb_scene000147_render000002.png,stimuli/rgb_scene000147_render000006.png,0,145,145,98,"[0, 1]",right,1,99,21,f,y,y,2019_Jul_15_1435,2AFC_task,59.95361338240629,
stimuli/rgb_scene000042_render000001.png,stimuli/rgb_scene000042_render000005.png,0,146,146,9,"[0, 1]",right,1,99,21,f,y,y,2019_Jul_15_1435,2AFC_task,59.95361338240629,
stimuli/rgb_scene000169_render000001.png,stimuli/rgb_scene000169_render000002.png,0,147,147,174,"[1, 0]",left,1,99,21,f,y,y,2019_Jul_15_1435,2AFC_task,59.95361338240629,
stimuli/rgb_scene000165_render000001.png,stimuli/rgb_scene000165_render000005.png,0,148,148,156,"[1, 0]",left,1,99,21,f,y,y,2019_Jul_15_1435,2AFC_task,59.95361338240629,
stimuli/rgb_scene000196_render000000.png,stimuli/rgb_scene000196_render000006.png,0,149,149,194,"[1, 0]",left,1,99,21,f,y,y,2019_Jul_15_1435,2AFC_task,59.95361338240629,
stimuli/rgb_scene000165_render000004.png,stimuli/rgb_scene000165_render000006.png,0,150,150,166,"[1, 0]",left,1,99,21,f,y,y,2019_Jul_15_1435,2AFC_task,59.95361338240629,
stimuli/rgb_scene000056_render000002.png,stimuli/rgb_scene000056_render000006.png,0,151,151,56,"[1, 0]",left,1,99,21,f,y,y,2019_Jul_15_1435,2AFC_task,59.95361338240629,
stimuli/rgb_scene000042_render000001.png,stimuli/rgb_scene000042_render000004.png,0,152,152,8,"[1, 0]",left,1,99,21,f,y,y,2019_Jul_15_1435,2AFC_task,59.95361338240629,
stimuli/rgb_scene000056_render000003.png,stimuli/rgb_scene000056_render000006.png,0,153,153,59,"[0, 1]",right,1,99,21,f,y,y,2019_Jul_15_1435,2AFC_task,59.95361338240629,
stimuli/rgb_scene000169_render000005.png,stimuli/rgb_scene000169_render000006.png,0,154,154,188,"[1, 0]",left,1,99,21,f,y,y,2019_Jul_15_1435,2AFC_task,59.95361338240629,
stimuli/rgb_scene000047_render000004.png,stimuli/rgb_scene000047_render000005.png,0,155,155,39,"[0, 1]",right,1,99,21,f,y,y,2019_Jul_15_1435,2AFC_task,59.95361338240629,
stimuli/rgb_scene000150_render000003.png,stimuli/rgb_scene000150_render000006.png,0,156,156,122,"[0, 1]",right,1,99,21,f,y,y,2019_Jul_15_1435,2AFC_task,59.95361338240629,
stimuli/rgb_scene000042_render000001.png,stimuli/rgb_scene000042_render000003.png,0,157,157,7,"[1, 0]",left,1,99,21,f,y,y,2019_Jul_15_1435,2AFC_task,59.95361338240629,
stimuli/rgb_scene000042_render000005.png,stimuli/rgb_scene000042_render000006.png,0,158,158,20,"[1, 0]",left,1,99,21,f,y,y,2019_Jul_15_1435,2AFC_task,59.95361338240629,
stimuli/rgb_scene000196_render000004.png,stimuli/rgb_scene000196_render000005.png,0,159,159,207,"[1, 0]",right,0,99,21,f,y,y,2019_Jul_15_1435,2AFC_task,59.95361338240629,
stimuli/rgb_scene000160_render000001.png,stimuli/rgb_scene000160_render000006.png,0,160,160,136,"[0, 1]",right,1,99,21,f,y,y,2019_Jul_15_1435,2AFC_task,59.95361338240629,
stimuli/rgb_scene000056_render000001.png,stimuli/rgb_scene000056_render000003.png,0,161,161,49,"[0, 1]",right,1,99,21,f,y,y,2019_Jul_15_1435,2AFC_task,59.95361338240629,
stimuli/rgb_scene000147_render000002.png,stimuli/rgb_scene000147_render000003.png,0,162,162,95,"[1, 0]",left,1,99,21,f,y,y,2019_Jul_15_1435,2AFC_task,59.95361338240629,
stimuli/rgb_scene000042_render000000.png,stimuli/rgb_scene000042_render000005.png,0,163,163,4,"[1, 0]",left,1,99,21,f,y,y,2019_Jul_15_1435,2AFC_task,59.95361338240629,
stimuli/rgb_scene000047_render000001.png,stimuli/rgb_scene000047_render000003.png,0,164,164,28,"[1, 0]",left,1,99,21,f,y,y,2019_Jul_15_1435,2AFC_task,59.95361338240629,
stimuli/rgb_scene000150_render000000.png,stimuli/rgb_scene000150_render000005.png,0,165,165,109,"[0, 1]",right,1,99,21,f,y,y,2019_Jul_15_1435,2AFC_task,59.95361338240629,
stimuli/rgb_scene000047_render000001.png,stimuli/rgb_scene000047_render000005.png,0,166,166,30,"[1, 0]",left,1,99,21,f,y,y,2019_Jul_15_1435,2AFC_task,59.95361338240629,
stimuli/rgb_scene000042_render000002.png,stimuli/rgb_scene000042_render000006.png,0,167,167,14,"[1, 0]",left,1,99,21,f,y,y,2019_Jul_15_1435,2AFC_task,59.95361338240629,
stimuli/rgb_scene000066_render000000.png,stimuli/rgb_scene000066_render000004.png,0,168,168,66,"[1, 0]",left,1,99,21,f,y,y,2019_Jul_15_1435,2AFC_task,59.95361338240629,
stimuli/rgb_scene000160_render000002.png,stimuli/rgb_scene000160_render000005.png,0,169,169,139,"[1, 0]",left,1,99,21,f,y,y,2019_Jul_15_1435,2AFC_task,59.95361338240629,
stimuli/rgb_scene000169_render000001.png,stimuli/rgb_scene000169_render000006.png,0,170,170,178,"[0, 1]",right,1,99,21,f,y,y,2019_Jul_15_1435,2AFC_task,59.95361338240629,
stimuli/rgb_scene000150_render000002.png,stimuli/rgb_scene000150_render000006.png,0,171,171,119,"[0, 1]",right,1,99,21,f,y,y,2019_Jul_15_1435,2AFC_task,59.95361338240629,
stimuli/rgb_scene000169_render000001.png,stimuli/rgb_scene000169_render000003.png,0,172,172,175,"[1, 0]",left,1,99,21,f,y,y,2019_Jul_15_1435,2AFC_task,59.95361338240629,
stimuli/rgb_scene000165_render000000.png,stimuli/rgb_scene000165_render000006.png,0,173,173,152,"[0, 1]",right,1,99,21,f,y,y,2019_Jul_15_1435,2AFC_task,59.95361338240629,
stimuli/rgb_scene000147_render000002.png,stimuli/rgb_scene000147_render000005.png,0,174,174,97,"[1, 0]",left,1,99,21,f,y,y,2019_Jul_15_1435,2AFC_task,59.95361338240629,
stimuli/rgb_scene000056_render000005.png,stimuli/rgb_scene000056_render000006.png,0,175,175,62,"[0, 1]",right,1,99,21,f,y,y,2019_Jul_15_1435,2AFC_task,59.95361338240629,
stimuli/rgb_scene000047_render000002.png,stimuli/rgb_scene000047_render000004.png,0,176,176,33,"[1, 0]",left,1,99,21,f,y,y,2019_Jul_15_1435,2AFC_task,59.95361338240629,
stimuli/rgb_scene000066_render000001.png,stimuli/rgb_scene000066_render000004.png,0,177,177,71,"[0, 1]",right,1,99,21,f,y,y,2019_Jul_15_1435,2AFC_task,59.95361338240629,
stimuli/rgb_scene000169_render000000.png,stimuli/rgb_scene000169_render000003.png,0,178,178,170,"[1, 0]",left,1,99,21,f,y,y,2019_Jul_15_1435,2AFC_task,59.95361338240629,
stimuli/rgb_scene000066_render000002.png,stimuli/rgb_scene000066_render000005.png,0,179,179,76,"[1, 0]",left,1,99,21,f,y,y,2019_Jul_15_1435,2AFC_task,59.95361338240629,
stimuli/rgb_scene000147_render000004.png,stimuli/rgb_scene000147_render000006.png,0,180,180,103,"[1, 0]",left,1,99,21,f,y,y,2019_Jul_15_1435,2AFC_task,59.95361338240629,
stimuli/rgb_scene000196_render000002.png,stimuli/rgb_scene000196_render000004.png,0,181,181,201,"[0, 1]",right,1,99,21,f,y,y,2019_Jul_15_1435,2AFC_task,59.95361338240629,
stimuli/rgb_scene000047_render000000.png,stimuli/rgb_scene000047_render000004.png,0,182,182,24,"[0, 1]",right,1,99,21,f,y,y,2019_Jul_15_1435,2AFC_task,59.95361338240629,
stimuli/rgb_scene000165_render000002.png,stimuli/rgb_scene000165_render000004.png,0,183,183,159,"[1, 0]",left,1,99,21,f,y,y,2019_Jul_15_1435,2AFC_task,59.95361338240629,
stimuli/rgb_scene000150_render000003.png,stimuli/rgb_scene000150_render000004.png,0,184,184,120,"[0, 1]",right,1,99,21,f,y,y,2019_Jul_15_1435,2AFC_task,59.95361338240629,
stimuli/rgb_scene000196_render000000.png,stimuli/rgb_scene000196_render000002.png,0,185,185,190,"[1, 0]",left,1,99,21,f,y,y,2019_Jul_15_1435,2AFC_task,59.95361338240629,
stimuli/rgb_scene000150_render000000.png,stimuli/rgb_scene000150_render000002.png,0,186,186,106,"[1, 0]",left,1,99,21,f,y,y,2019_Jul_15_1435,2AFC_task,59.95361338240629,
stimuli/rgb_scene000147_render000001.png,stimuli/rgb_scene000147_render000002.png,0,187,187,90,"[1, 0]",left,1,99,21,f,y,y,2019_Jul_15_1435,2AFC_task,59.95361338240629,
stimuli/rgb_scene000160_render000000.png,stimuli/rgb_scene000160_render000006.png,0,188,188,131,"[0, 1]",right,1,99,21,f,y,y,2019_Jul_15_1435,2AFC_task,59.95361338240629,
stimuli/rgb_scene000147_render000001.png,stimuli/rgb_scene000147_render000005.png,0,189,189,93,"[0, 1]",right,1,99,21,f,y,y,2019_Jul_15_1435,2AFC_task,59.95361338240629,
stimuli/rgb_scene000066_render000000.png,stimuli/rgb_scene000066_render000002.png,0,190,190,64,"[1, 0]",left,1,99,21,f,y,y,2019_Jul_15_1435,2AFC_task,59.95361338240629,
stimuli/rgb_scene000047_render000004.png,stimuli/rgb_scene000047_render000006.png,0,191,191,40,"[0, 1]",right,1,99,21,f,y,y,2019_Jul_15_1435,2AFC_task,59.95361338240629,
stimuli/rgb_scene000150_render000002.png,stimuli/rgb_scene000150_render000004.png,0,192,192,117,"[0, 1]",right,1,99,21,f,y,y,2019_Jul_15_1435,2AFC_task,59.95361338240629,
stimuli/rgb_scene000056_render000000.png,stimuli/rgb_scene000056_render000002.png,0,193,193,43,"[1, 0]",left,1,99,21,f,y,y,2019_Jul_15_1435,2AFC_task,59.95361338240629,
stimuli/rgb_scene000196_render000000.png,stimuli/rgb_scene000196_render000004.png,0,194,194,192,"[0, 1]",right,1,99,21,f,y,y,2019_Jul_15_1435,2AFC_task,59.95361338240629,
stimuli/rgb_scene000169_render000000.png,stimuli/rgb_scene000169_render000001.png,0,195,195,168,"[1, 0]",right,0,99,21,f,y,y,2019_Jul_15_1435,2AFC_task,59.95361338240629,
stimuli/rgb_scene000165_render000002.png,stimuli/rgb_scene000165_render000003.png,0,196,196,158,"[1, 0]",left,1,99,21,f,y,y,2019_Jul_15_1435,2AFC_task,59.95361338240629,
stimuli/rgb_scene000169_render000000.png,stimuli/rgb_scene000169_render000005.png,0,197,197,172,"[1, 0]",left,1,99,21,f,y,y,2019_Jul_15_1435,2AFC_task,59.95361338240629,
stimuli/rgb_scene000066_render000004.png,stimuli/rgb_scene000066_render000005.png,0,198,198,81,"[0, 1]",right,1,99,21,f,y,y,2019_Jul_15_1435,2AFC_task,59.95361338240629,
stimuli/rgb_scene000147_render000000.png,stimuli/rgb_scene000147_render000005.png,0,199,199,88,"[0, 1]",right,1,99,21,f,y,y,2019_Jul_15_1435,2AFC_task,59.95361338240629,
stimuli/rgb_scene000160_render000003.png,stimuli/rgb_scene000160_render000005.png,0,200,200,142,"[1, 0]",left,1,99,21,f,y,y,2019_Jul_15_1435,2AFC_task,59.95361338240629,
stimuli/rgb_scene000066_render000002.png,stimuli/rgb_scene000066_render000004.png,0,201,201,75,"[1, 0]",left,1,99,21,f,y,y,2019_Jul_15_1435,2AFC_task,59.95361338240629,
stimuli/rgb_scene000047_render000000.png,stimuli/rgb_scene000047_render000001.png,0,202,202,21,"[0, 1]",right,1,99,21,f,y,y,2019_Jul_15_1435,2AFC_task,59.95361338240629,
stimuli/rgb_scene000147_render000003.png,stimuli/rgb_scene000147_render000004.png,0,203,203,99,"[1, 0]",left,1,99,21,f,y,y,2019_Jul_15_1435,2AFC_task,59.95361338240629,
stimuli/rgb_scene000147_render000000.png,stimuli/rgb_scene000147_render000001.png,0,204,204,84,"[1, 0]",left,1,99,21,f,y,y,2019_Jul_15_1435,2AFC_task,59.95361338240629,
stimuli/rgb_scene000165_render000000.png,stimuli/rgb_scene000165_render000003.png,0,205,205,149,"[0, 1]",right,1,99,21,f,y,y,2019_Jul_15_1435,2AFC_task,59.95361338240629,
stimuli/rgb_scene000150_render000000.png,stimuli/rgb_scene000150_render000003.png,0,206,206,107,"[1, 0]",left,1,99,21,f,y,y,2019_Jul_15_1435,2AFC_task,59.95361338240629,
stimuli/rgb_scene000150_render000000.png,stimuli/rgb_scene000150_render000004.png,0,207,207,108,"[0, 1]",right,1,99,21,f,y,y,2019_Jul_15_1435,2AFC_task,59.95361338240629,
stimuli/rgb_scene000165_render000001.png,stimuli/rgb_scene000165_render000002.png,0,208,208,153,"[0, 1]",right,1,99,21,f,y,y,2019_Jul_15_1435,2AFC_task,59.95361338240629,
stimuli/rgb_scene000147_render000003.png,stimuli/rgb_scene000147_render000005.png,0,209,209,100,"[1, 0]",left,1,99,21,f,y,y,2019_Jul_15_1435,2AFC_task,59.95361338240629,
stimuli/rgb_scene000196_render000001.png,stimuli/rgb_scene000196_render000005.png,1,0,210,198,"[1, 0]",left,1,99,21,f,y,y,2019_Jul_15_1435,2AFC_task,59.95361338240629,
stimuli/rgb_scene000150_render000002.png,stimuli/rgb_scene000150_render000006.png,1,1,211,119,"[0, 1]",right,1,99,21,f,y,y,2019_Jul_15_1435,2AFC_task,59.95361338240629,
stimuli/rgb_scene000056_render000003.png,stimuli/rgb_scene000056_render000006.png,1,2,212,59,"[0, 1]",right,1,99,21,f,y,y,2019_Jul_15_1435,2AFC_task,59.95361338240629,
stimuli/rgb_scene000066_render000001.png,stimuli/rgb_scene000066_render000003.png,1,3,213,70,"[1, 0]",left,1,99,21,f,y,y,2019_Jul_15_1435,2AFC_task,59.95361338240629,
stimuli/rgb_scene000042_render000001.png,stimuli/rgb_scene000042_render000005.png,1,4,214,9,"[1, 0]",left,1,99,21,f,y,y,2019_Jul_15_1435,2AFC_task,59.95361338240629,
stimuli/rgb_scene000196_render000002.png,stimuli/rgb_scene000196_render000003.png,1,5,215,200,"[0, 1]",right,1,99,21,f,y,y,2019_Jul_15_1435,2AFC_task,59.95361338240629,
stimuli/rgb_scene000147_render000000.png,stimuli/rgb_scene000147_render000002.png,1,6,216,85,"[1, 0]",left,1,99,21,f,y,y,2019_Jul_15_1435,2AFC_task,59.95361338240629,
stimuli/rgb_scene000066_render000002.png,stimuli/rgb_scene000066_render000003.png,1,7,217,74,"[1, 0]",left,1,99,21,f,y,y,2019_Jul_15_1435,2AFC_task,59.95361338240629,
stimuli/rgb_scene000047_render000001.png,stimuli/rgb_scene000047_render000005.png,1,8,218,30,"[0, 1]",right,1,99,21,f,y,y,2019_Jul_15_1435,2AFC_task,59.95361338240629,
stimuli/rgb_scene000150_render000002.png,stimuli/rgb_scene000150_render000004.png,1,9,219,117,"[0, 1]",right,1,99,21,f,y,y,2019_Jul_15_1435,2AFC_task,59.95361338240629,
stimuli/rgb_scene000196_render000004.png,stimuli/rgb_scene000196_render000005.png,1,10,220,207,"[1, 0]",left,1,99,21,f,y,y,2019_Jul_15_1435,2AFC_task,59.95361338240629,
stimuli/rgb_scene000169_render000004.png,stimuli/rgb_scene000169_render000006.png,1,11,221,187,"[0, 1]",right,1,99,21,f,y,y,2019_Jul_15_1435,2AFC_task,59.95361338240629,
stimuli/rgb_scene000066_render000004.png,stimuli/rgb_scene000066_render000005.png,1,12,222,81,"[0, 1]",right,1,99,21,f,y,y,2019_Jul_15_1435,2AFC_task,59.95361338240629,
stimuli/rgb_scene000150_render000003.png,stimuli/rgb_scene000150_render000005.png,1,13,223,121,"[0, 1]",right,1,99,21,f,y,y,2019_Jul_15_1435,2AFC_task,59.95361338240629,
stimuli/rgb_scene000147_render000005.png,stimuli/rgb_scene000147_render000006.png,1,14,224,104,"[1, 0]",left,1,99,21,f,y,y,2019_Jul_15_1435,2AFC_task,59.95361338240629,
stimuli/rgb_scene000169_render000001.png,stimuli/rgb_scene000169_render000006.png,1,15,225,178,"[0, 1]",right,1,99,21,f,y,y,2019_Jul_15_1435,2AFC_task,59.95361338240629,
stimuli/rgb_scene000160_render000001.png,stimuli/rgb_scene000160_render000003.png,1,16,226,133,"[1, 0]",left,1,99,21,f,y,y,2019_Jul_15_1435,2AFC_task,59.95361338240629,
stimuli/rgb_scene000196_render000001.png,stimuli/rgb_scene000196_render000003.png,1,17,227,196,"[1, 0]",left,1,99,21,f,y,y,2019_Jul_15_1435,2AFC_task,59.95361338240629,
stimuli/rgb_scene000165_render000000.png,stimuli/rgb_scene000165_render000004.png,1,18,228,150,"[0, 1]",right,1,99,21,f,y,y,2019_Jul_15_1435,2AFC_task,59.95361338240629,
stimuli/rgb_scene000150_render000005.png,stimuli/rgb_scene000150_render000006.png,1,19,229,125,"[1, 0]",left,1,99,21,f,y,y,2019_Jul_15_1435,2AFC_task,59.95361338240629,
stimuli/rgb_scene000066_render000000.png,stimuli/rgb_scene000066_render000002.png,1,20,230,64,"[0, 1]",right,1,99,21,f,y,y,2019_Jul_15_1435,2AFC_task,59.95361338240629,
stimuli/rgb_scene000042_render000004.png,stimuli/rgb_scene000042_render000005.png,1,21,231,18,"[0, 1]",right,1,99,21,f,y,y,2019_Jul_15_1435,2AFC_task,59.95361338240629,
stimuli/rgb_scene000066_render000003.png,stimuli/rgb_scene000066_render000005.png,1,22,232,79,"[1, 0]",left,1,99,21,f,y,y,2019_Jul_15_1435,2AFC_task,59.95361338240629,
stimuli/rgb_scene000196_render000000.png,stimuli/rgb_scene000196_render000001.png,1,23,233,189,"[0, 1]",right,1,99,21,f,y,y,2019_Jul_15_1435,2AFC_task,59.95361338240629,
stimuli/rgb_scene000150_render000001.png,stimuli/rgb_scene000150_render000006.png,1,24,234,115,"[1, 0]",left,1,99,21,f,y,y,2019_Jul_15_1435,2AFC_task,59.95361338240629,
stimuli/rgb_scene000169_render000000.png,stimuli/rgb_scene000169_render000001.png,1,25,235,168,"[0, 1]",right,1,99,21,f,y,y,2019_Jul_15_1435,2AFC_task,59.95361338240629,
stimuli/rgb_scene000196_render000000.png,stimuli/rgb_scene000196_render000002.png,1,26,236,190,"[0, 1]",right,1,99,21,f,y,y,2019_Jul_15_1435,2AFC_task,59.95361338240629,
stimuli/rgb_scene000165_render000003.png,stimuli/rgb_scene000165_render000004.png,1,27,237,162,"[0, 1]",right,1,99,21,f,y,y,2019_Jul_15_1435,2AFC_task,59.95361338240629,
stimuli/rgb_scene000047_render000003.png,stimuli/rgb_scene000047_render000005.png,1,28,238,37,"[0, 1]",right,1,99,21,f,y,y,2019_Jul_15_1435,2AFC_task,59.95361338240629,
stimuli/rgb_scene000056_render000002.png,stimuli/rgb_scene000056_render000004.png,1,29,239,54,"[0, 1]",right,1,99,21,f,y,y,2019_Jul_15_1435,2AFC_task,59.95361338240629,
stimuli/rgb_scene000047_render000002.png,stimuli/rgb_scene000047_render000004.png,1,30,240,33,"[0, 1]",right,1,99,21,f,y,y,2019_Jul_15_1435,2AFC_task,59.95361338240629,
stimuli/rgb_scene000042_render000005.png,stimuli/rgb_scene000042_render000006.png,1,31,241,20,"[0, 1]",right,1,99,21,f,y,y,2019_Jul_15_1435,2AFC_task,59.95361338240629,
stimuli/rgb_scene000160_render000000.png,stimuli/rgb_scene000160_render000005.png,1,32,242,130,"[1, 0]",left,1,99,21,f,y,y,2019_Jul_15_1435,2AFC_task,59.95361338240629,
stimuli/rgb_scene000160_render000002.png,stimuli/rgb_scene000160_render000005.png,1,33,243,139,"[1, 0]",left,1,99,21,f,y,y,2019_Jul_15_1435,2AFC_task,59.95361338240629,
stimuli/rgb_scene000047_render000001.png,stimuli/rgb_scene000047_render000003.png,1,34,244,28,"[0, 1]",right,1,99,21,f,y,y,2019_Jul_15_1435,2AFC_task,59.95361338240629,
stimuli/rgb_scene000147_render000000.png,stimuli/rgb_scene000147_render000005.png,1,35,245,88,"[0, 1]",right,1,99,21,f,y,y,2019_Jul_15_1435,2AFC_task,59.95361338240629,
stimuli/rgb_scene000169_render000003.png,stimuli/rgb_scene000169_render000005.png,1,36,246,184,"[0, 1]",right,1,99,21,f,y,y,2019_Jul_15_1435,2AFC_task,59.95361338240629,
stimuli/rgb_scene000150_render000001.png,stimuli/rgb_scene000150_render000004.png,1,37,247,113,"[0, 1]",right,1,99,21,f,y,y,2019_Jul_15_1435,2AFC_task,59.95361338240629,
stimuli/rgb_scene000169_render000000.png,stimuli/rgb_scene000169_render000006.png,1,38,248,173,"[1, 0]",left,1,99,21,f,y,y,2019_Jul_15_1435,2AFC_task,59.95361338240629,
stimuli/rgb_scene000160_render000003.png,stimuli/rgb_scene000160_render000006.png,1,39,249,143,"[1, 0]",left,1,99,21,f,y,y,2019_Jul_15_1435,2AFC_task,59.95361338240629,
stimuli/rgb_scene000160_render000003.png,stimuli/rgb_scene000160_render000005.png,1,40,250,142,"[1, 0]",left,1,99,21,f,y,y,2019_Jul_15_1435,2AFC_task,59.95361338240629,
stimuli/rgb_scene000042_render000002.png,stimuli/rgb_scene000042_render000004.png,1,41,251,12,"[1, 0]",left,1,99,21,f,y,y,2019_Jul_15_1435,2AFC_task,59.95361338240629,
stimuli/rgb_scene000165_render000001.png,stimuli/rgb_scene000165_render000005.png,1,42,252,156,"[0, 1]",right,1,99,21,f,y,y,2019_Jul_15_1435,2AFC_task,59.95361338240629,
stimuli/rgb_scene000165_render000001.png,stimuli/rgb_scene000165_render000004.png,1,43,253,155,"[1, 0]",left,1,99,21,f,y,y,2019_Jul_15_1435,2AFC_task,59.95361338240629,
stimuli/rgb_scene000047_render000002.png,stimuli/rgb_scene000047_render000003.png,1,44,254,32,"[1, 0]",left,1,99,21,f,y,y,2019_Jul_15_1435,2AFC_task,59.95361338240629,
stimuli/rgb_scene000169_render000004.png,stimuli/rgb_scene000169_render000005.png,1,45,255,186,"[1, 0]",left,1,99,21,f,y,y,2019_Jul_15_1435,2AFC_task,59.95361338240629,
stimuli/rgb_scene000056_render000001.png,stimuli/rgb_scene000056_render000005.png,1,46,256,51,"[0, 1]",right,1,99,21,f,y,y,2019_Jul_15_1435,2AFC_task,59.95361338240629,
stimuli/rgb_scene000160_render000001.png,stimuli/rgb_scene000160_render000006.png,1,47,257,136,"[0, 1]",right,1,99,21,f,y,y,2019_Jul_15_1435,2AFC_task,59.95361338240629,
stimuli/rgb_scene000042_render000002.png,stimuli/rgb_scene000042_render000006.png,1,48,258,14,"[0, 1]",right,1,99,21,f,y,y,2019_Jul_15_1435,2AFC_task,59.95361338240629,
stimuli/rgb_scene000042_render000003.png,stimuli/rgb_scene000042_render000005.png,1,49,259,16,"[1, 0]",left,1,99,21,f,y,y,2019_Jul_15_1435,2AFC_task,59.95361338240629,
stimuli/rgb_scene000196_render000000.png,stimuli/rgb_scene000196_render000006.png,1,50,260,194,"[0, 1]",right,1,99,21,f,y,y,2019_Jul_15_1435,2AFC_task,59.95361338240629,
stimuli/rgb_scene000160_render000005.png,stimuli/rgb_scene000160_render000006.png,1,51,261,146,"[0, 1]",right,1,99,21,f,y,y,2019_Jul_15_1435,2AFC_task,59.95361338240629,
stimuli/rgb_scene000047_render000000.png,stimuli/rgb_scene000047_render000001.png,1,52,262,21,"[1, 0]",left,1,99,21,f,y,y,2019_Jul_15_1435,2AFC_task,59.95361338240629,
stimuli/rgb_scene000042_render000000.png,stimuli/rgb_scene000042_render000001.png,1,53,263,0,"[0, 1]",right,1,99,21,f,y,y,2019_Jul_15_1435,2AFC_task,59.95361338240629,
stimuli/rgb_scene000047_render000001.png,stimuli/rgb_scene000047_render000002.png,1,54,264,27,"[1, 0]",left,1,99,21,f,y,y,2019_Jul_15_1435,2AFC_task,59.95361338240629,
stimuli/rgb_scene000160_render000002.png,stimuli/rgb_scene000160_render000004.png,1,55,265,138,"[1, 0]",left,1,99,21,f,y,y,2019_Jul_15_1435,2AFC_task,59.95361338240629,
stimuli/rgb_scene000066_render000000.png,stimuli/rgb_scene000066_render000004.png,1,56,266,66,"[0, 1]",right,1,99,21,f,y,y,2019_Jul_15_1435,2AFC_task,59.95361338240629,
stimuli/rgb_scene000056_render000000.png,stimuli/rgb_scene000056_render000006.png,1,57,267,47,"[1, 0]",left,1,99,21,f,y,y,2019_Jul_15_1435,2AFC_task,59.95361338240629,
stimuli/rgb_scene000042_render000000.png,stimuli/rgb_scene000042_render000003.png,1,58,268,2,"[1, 0]",left,1,99,21,f,y,y,2019_Jul_15_1435,2AFC_task,59.95361338240629,
stimuli/rgb_scene000165_render000002.png,stimuli/rgb_scene000165_render000004.png,1,59,269,159,"[0, 1]",right,1,99,21,f,y,y,2019_Jul_15_1435,2AFC_task,59.95361338240629,
stimuli/rgb_scene000056_render000000.png,stimuli/rgb_scene000056_render000003.png,1,60,270,44,"[0, 1]",right,1,99,21,f,y,y,2019_Jul_15_1435,2AFC_task,59.95361338240629,
stimuli/rgb_scene000160_render000004.png,stimuli/rgb_scene000160_render000005.png,1,61,271,144,"[1, 0]",left,1,99,21,f,y,y,2019_Jul_15_1435,2AFC_task,59.95361338240629,
stimuli/rgb_scene000169_render000002.png,stimuli/rgb_scene000169_render000006.png,1,62,272,182,"[0, 1]",right,1,99,21,f,y,y,2019_Jul_15_1435,2AFC_task,59.95361338240629,
stimuli/rgb_scene000042_render000004.png,stimuli/rgb_scene000042_render000006.png,1,63,273,19,"[0, 1]",right,1,99,21,f,y,y,2019_Jul_15_1435,2AFC_task,59.95361338240629,
stimuli/rgb_scene000066_render000004.png,stimuli/rgb_scene000066_render000006.png,1,64,274,82,"[0, 1]",right,1,99,21,f,y,y,2019_Jul_15_1435,2AFC_task,59.95361338240629,
stimuli/rgb_scene000042_render000000.png,stimuli/rgb_scene000042_render000005.png,1,65,275,4,"[0, 1]",right,1,99,21,f,y,y,2019_Jul_15_1435,2AFC_task,59.95361338240629,
stimuli/rgb_scene000160_render000001.png,stimuli/rgb_scene000160_render000005.png,1,66,276,135,"[1, 0]",left,1,99,21,f,y,y,2019_Jul_15_1435,2AFC_task,59.95361338240629,
stimuli/rgb_scene000047_render000000.png,stimuli/rgb_scene000047_render000006.png,1,67,277,26,"[0, 1]",right,1,99,21,f,y,y,2019_Jul_15_1435,2AFC_task,59.95361338240629,
stimuli/rgb_scene000160_render000000.png,stimuli/rgb_scene000160_render000002.png,1,68,278,127,"[0, 1]",right,1,99,21,f,y,y,2019_Jul_15_1435,2AFC_task,59.95361338240629,
stimuli/rgb_scene000042_render000001.png,stimuli/rgb_scene000042_render000004.png,1,69,279,8,"[0, 1]",right,1,99,21,f,y,y,2019_Jul_15_1435,2AFC_task,59.95361338240629,
stimuli/rgb_scene000165_render000000.png,stimuli/rgb_scene000165_render000001.png,1,70,280,147,"[0, 1]",right,1,99,21,f,y,y,2019_Jul_15_1435,2AFC_task,59.95361338240629,
stimuli/rgb_scene000150_render000003.png,stimuli/rgb_scene000150_render000006.png,1,71,281,122,"[0, 1]",right,1,99,21,f,y,y,2019_Jul_15_1435,2AFC_task,59.95361338240629,
stimuli/rgb_scene000165_render000000.png,stimuli/rgb_scene000165_render000005.png,1,72,282,151,"[1, 0]",left,1,99,21,f,y,y,2019_Jul_15_1435,2AFC_task,59.95361338240629,
stimuli/rgb_scene000066_render000002.png,stimuli/rgb_scene000066_render000004.png,1,73,283,75,"[1, 0]",left,1,99,21,f,y,y,2019_Jul_15_1435,2AFC_task,59.95361338240629,
stimuli/rgb_scene000147_render000001.png,stimuli/rgb_scene000147_render000002.png,1,74,284,90,"[1, 0]",left,1,99,21,f,y,y,2019_Jul_15_1435,2AFC_task,59.95361338240629,
stimuli/rgb_scene000047_render000004.png,stimuli/rgb_scene000047_render000006.png,1,75,285,40,"[0, 1]",right,1,99,21,f,y,y,2019_Jul_15_1435,2AFC_task,59.95361338240629,
stimuli/rgb_scene000056_render000000.png,stimuli/rgb_scene000056_render000004.png,1,76,286,45,"[0, 1]",right,1,99,21,f,y,y,2019_Jul_15_1435,2AFC_task,59.95361338240629,
stimuli/rgb_scene000042_render000002.png,stimuli/rgb_scene000042_render000005.png,1,77,287,13,"[1, 0]",left,1,99,21,f,y,y,2019_Jul_15_1435,2AFC_task,59.95361338240629,
stimuli/rgb_scene000047_render000001.png,stimuli/rgb_scene000047_render000004.png,1,78,288,29,"[1, 0]",left,1,99,21,f,y,y,2019_Jul_15_1435,2AFC_task,59.95361338240629,
stimuli/rgb_scene000047_render000000.png,stimuli/rgb_scene000047_render000003.png,1,79,289,23,"[0, 1]",right,1,99,21,f,y,y,2019_Jul_15_1435,2AFC_task,59.95361338240629,
stimuli/rgb_scene000169_render000003.png,stimuli/rgb_scene000169_render000004.png,1,80,290,183,"[0, 1]",right,1,99,21,f,y,y,2019_Jul_15_1435,2AFC_task,59.95361338240629,
stimuli/rgb_scene000056_render000002.png,stimuli/rgb_scene000056_render000003.png,1,81,291,53,"[1, 0]",left,1,99,21,f,y,y,2019_Jul_15_1435,2AFC_task,59.95361338240629,
stimuli/rgb_scene000066_render000000.png,stimuli/rgb_scene000066_render000006.png,1,82,292,68,"[1, 0]",left,1,99,21,f,y,y,2019_Jul_15_1435,2AFC_task,59.95361338240629,
stimuli/rgb_scene000056_render000001.png,stimuli/rgb_scene000056_render000003.png,1,83,293,49,"[1, 0]",left,1,99,21,f,y,y,2019_Jul_15_1435,2AFC_task,59.95361338240629,
stimuli/rgb_scene000042_render000003.png,stimuli/rgb_scene000042_render000006.png,1,84,294,17,"[1, 0]",left,1,99,21,f,y,y,2019_Jul_15_1435,2AFC_task,59.95361338240629,
stimuli/rgb_scene000066_render000005.png,stimuli/rgb_scene000066_render000006.png,1,85,295,83,"[0, 1]",right,1,99,21,f,y,y,2019_Jul_15_1435,2AFC_task,59.95361338240629,
stimuli/rgb_scene000056_render000003.png,stimuli/rgb_scene000056_render000005.png,1,86,296,58,"[0, 1]",right,1,99,21,f,y,y,2019_Jul_15_1435,2AFC_task,59.95361338240629,
stimuli/rgb_scene000196_render000001.png,stimuli/rgb_scene000196_render000006.png,1,87,297,199,"[0, 1]",right,1,99,21,f,y,y,2019_Jul_15_1435,2AFC_task,59.95361338240629,
stimuli/rgb_scene000056_render000005.png,stimuli/rgb_scene000056_render000006.png,1,88,298,62,"[1, 0]",left,1,99,21,f,y,y,2019_Jul_15_1435,2AFC_task,59.95361338240629,
stimuli/rgb_scene000150_render000002.png,stimuli/rgb_scene000150_render000005.png,1,89,299,118,"[1, 0]",left,1,99,21,f,y,y,2019_Jul_15_1435,2AFC_task,59.95361338240629,
stimuli/rgb_scene000165_render000004.png,stimuli/rgb_scene000165_render000006.png,1,90,300,166,"[1, 0]",left,1,99,21,f,y,y,2019_Jul_15_1435,2AFC_task,59.95361338240629,
stimuli/rgb_scene000150_render000002.png,stimuli/rgb_scene000150_render000003.png,1,91,301,116,"[1, 0]",left,1,99,21,f,y,y,2019_Jul_15_1435,2AFC_task,59.95361338240629,
stimuli/rgb_scene000047_render000004.png,stimuli/rgb_scene000047_render000005.png,1,92,302,39,"[0, 1]",right,1,99,21,f,y,y,2019_Jul_15_1435,2AFC_task,59.95361338240629,
stimuli/rgb_scene000056_render000001.png,stimuli/rgb_scene000056_render000006.png,1,93,303,52,"[0, 1]",right,1,99,21,f,y,y,2019_Jul_15_1435,2AFC_task,59.95361338240629,
stimuli/rgb_scene000196_render000003.png,stimuli/rgb_scene000196_render000004.png,1,94,304,204,"[1, 0]",left,1,99,21,f,y,y,2019_Jul_15_1435,2AFC_task,59.95361338240629,
stimuli/rgb_scene000169_render000002.png,stimuli/rgb_scene000169_render000003.png,1,95,305,179,"[1, 0]",left,1,99,21,f,y,y,2019_Jul_15_1435,2AFC_task,59.95361338240629,
stimuli/rgb_scene000165_render000001.png,stimuli/rgb_scene000165_render000003.png,1,96,306,154,"[1, 0]",left,1,99,21,f,y,y,2019_Jul_15_1435,2AFC_task,59.95361338240629,
stimuli/rgb_scene000147_render000000.png,stimuli/rgb_scene000147_render000004.png,1,97,307,87,"[0, 1]",right,1,99,21,f,y,y,2019_Jul_15_1435,2AFC_task,59.95361338240629,
stimuli/rgb_scene000196_render000002.png,stimuli/rgb_scene000196_render000005.png,1,98,308,202,"[1, 0]",left,1,99,21,f,y,y,2019_Jul_15_1435,2AFC_task,59.95361338240629,
stimuli/rgb_scene000047_render000003.png,stimuli/rgb_scene000047_render000006.png,1,99,309,38,"[1, 0]",left,1,99,21,f,y,y,2019_Jul_15_1435,2AFC_task,59.95361338240629,
stimuli/rgb_scene000165_render000005.png,stimuli/rgb_scene000165_render000006.png,1,100,310,167,"[0, 1]",right,1,99,21,f,y,y,2019_Jul_15_1435,2AFC_task,59.95361338240629,
stimuli/rgb_scene000147_render000000.png,stimuli/rgb_scene000147_render000006.png,1,101,311,89,"[0, 1]",right,1,99,21,f,y,y,2019_Jul_15_1435,2AFC_task,59.95361338240629,
stimuli/rgb_scene000150_render000000.png,stimuli/rgb_scene000150_render000001.png,1,102,312,105,"[1, 0]",left,1,99,21,f,y,y,2019_Jul_15_1435,2AFC_task,59.95361338240629,
stimuli/rgb_scene000169_render000002.png,stimuli/rgb_scene000169_render000005.png,1,103,313,181,"[0, 1]",right,1,99,21,f,y,y,2019_Jul_15_1435,2AFC_task,59.95361338240629,
stimuli/rgb_scene000160_render000001.png,stimuli/rgb_scene000160_render000004.png,1,104,314,134,"[1, 0]",left,1,99,21,f,y,y,2019_Jul_15_1435,2AFC_task,59.95361338240629,
stimuli/rgb_scene000147_render000000.png,stimuli/rgb_scene000147_render000001.png,1,105,315,84,"[0, 1]",right,1,99,21,f,y,y,2019_Jul_15_1435,2AFC_task,59.95361338240629,
stimuli/rgb_scene000066_render000001.png,stimuli/rgb_scene000066_render000002.png,1,106,316,69,"[0, 1]",right,1,99,21,f,y,y,2019_Jul_15_1435,2AFC_task,59.95361338240629,
stimuli/rgb_scene000147_render000003.png,stimuli/rgb_scene000147_render000004.png,1,107,317,99,"[0, 1]",right,1,99,21,f,y,y,2019_Jul_15_1435,2AFC_task,59.95361338240629,
stimuli/rgb_scene000056_render000003.png,stimuli/rgb_scene000056_render000004.png,1,108,318,57,"[1, 0]",left,1,99,21,f,y,y,2019_Jul_15_1435,2AFC_task,59.95361338240629,
stimuli/rgb_scene000169_render000000.png,stimuli/rgb_scene000169_render000005.png,1,109,319,172,"[1, 0]",left,1,99,21,f,y,y,2019_Jul_15_1435,2AFC_task,59.95361338240629,
stimuli/rgb_scene000150_render000003.png,stimuli/rgb_scene000150_render000004.png,1,110,320,120,"[0, 1]",right,1,99,21,f,y,y,2019_Jul_15_1435,2AFC_task,59.95361338240629,
stimuli/rgb_scene000150_render000000.png,stimuli/rgb_scene000150_render000002.png,1,111,321,106,"[0, 1]",right,1,99,21,f,y,y,2019_Jul_15_1435,2AFC_task,59.95361338240629,
stimuli/rgb_scene000150_render000001.png,stimuli/rgb_scene000150_render000003.png,1,112,322,112,"[1, 0]",left,1,99,21,f,y,y,2019_Jul_15_1435,2AFC_task,59.95361338240629,
stimuli/rgb_scene000066_render000000.png,stimuli/rgb_scene000066_render000005.png,1,113,323,67,"[0, 1]",right,1,99,21,f,y,y,2019_Jul_15_1435,2AFC_task,59.95361338240629,
stimuli/rgb_scene000169_render000005.png,stimuli/rgb_scene000169_render000006.png,1,114,324,188,"[0, 1]",right,1,99,21,f,y,y,2019_Jul_15_1435,2AFC_task,59.95361338240629,
stimuli/rgb_scene000196_render000001.png,stimuli/rgb_scene000196_render000004.png,1,115,325,197,"[0, 1]",right,1,99,21,f,y,y,2019_Jul_15_1435,2AFC_task,59.95361338240629,
stimuli/rgb_scene000165_render000003.png,stimuli/rgb_scene000165_render000005.png,1,116,326,163,"[1, 0]",left,1,99,21,f,y,y,2019_Jul_15_1435,2AFC_task,59.95361338240629,
stimuli/rgb_scene000169_render000000.png,stimuli/rgb_scene000169_render000004.png,1,117,327,171,"[0, 1]",right,1,99,21,f,y,y,2019_Jul_15_1435,2AFC_task,59.95361338240629,
stimuli/rgb_scene000160_render000002.png,stimuli/rgb_scene000160_render000006.png,1,118,328,140,"[1, 0]",left,1,99,21,f,y,y,2019_Jul_15_1435,2AFC_task,59.95361338240629,
stimuli/rgb_scene000165_render000002.png,stimuli/rgb_scene000165_render000005.png,1,119,329,160,"[0, 1]",right,1,99,21,f,y,y,2019_Jul_15_1435,2AFC_task,59.95361338240629,
stimuli/rgb_scene000042_render000003.png,stimuli/rgb_scene000042_render000004.png,1,120,330,15,"[0, 1]",right,1,99,21,f,y,y,2019_Jul_15_1435,2AFC_task,59.95361338240629,
stimuli/rgb_scene000066_render000001.png,stimuli/rgb_scene000066_render000005.png,1,121,331,72,"[0, 1]",right,1,99,21,f,y,y,2019_Jul_15_1435,2AFC_task,59.95361338240629,
stimuli/rgb_scene000165_render000001.png,stimuli/rgb_scene000165_render000006.png,1,122,332,157,"[0, 1]",right,1,99,21,f,y,y,2019_Jul_15_1435,2AFC_task,59.95361338240629,
stimuli/rgb_scene000169_render000001.png,stimuli/rgb_scene000169_render000005.png,1,123,333,177,"[0, 1]",right,1,99,21,f,y,y,2019_Jul_15_1435,2AFC_task,59.95361338240629,
stimuli/rgb_scene000047_render000005.png,stimuli/rgb_scene000047_render000006.png,1,124,334,41,"[1, 0]",left,1,99,21,f,y,y,2019_Jul_15_1435,2AFC_task,59.95361338240629,
stimuli/rgb_scene000169_render000001.png,stimuli/rgb_scene000169_render000004.png,1,125,335,176,"[1, 0]",left,1,99,21,f,y,y,2019_Jul_15_1435,2AFC_task,59.95361338240629,
stimuli/rgb_scene000147_render000004.png,stimuli/rgb_scene000147_render000006.png,1,126,336,103,"[1, 0]",left,1,99,21,f,y,y,2019_Jul_15_1435,2AFC_task,59.95361338240629,
stimuli/rgb_scene000160_render000000.png,stimuli/rgb_scene000160_render000001.png,1,127,337,126,"[0, 1]",right,1,99,21,f,y,y,2019_Jul_15_1435,2AFC_task,59.95361338240629,
stimuli/rgb_scene000066_render000001.png,stimuli/rgb_scene000066_render000004.png,1,128,338,71,"[0, 1]",right,1,99,21,f,y,y,2019_Jul_15_1435,2AFC_task,59.95361338240629,
stimuli/rgb_scene000165_render000002.png,stimuli/rgb_scene000165_render000003.png,1,129,339,158,"[1, 0]",left,1,99,21,f,y,y,2019_Jul_15_1435,2AFC_task,59.95361338240629,
stimuli/rgb_scene000196_render000002.png,stimuli/rgb_scene000196_render000006.png,1,130,340,203,"[0, 1]",right,1,99,21,f,y,y,2019_Jul_15_1435,2AFC_task,59.95361338240629,
stimuli/rgb_scene000066_render000002.png,stimuli/rgb_scene000066_render000005.png,1,131,341,76,"[1, 0]",left,1,99,21,f,y,y,2019_Jul_15_1435,2AFC_task,59.95361338240629,
stimuli/rgb_scene000196_render000000.png,stimuli/rgb_scene000196_render000003.png,1,132,342,191,"[1, 0]",left,1,99,21,f,y,y,2019_Jul_15_1435,2AFC_task,59.95361338240629,
stimuli/rgb_scene000042_render000000.png,stimuli/rgb_scene000042_render000004.png,1,133,343,3,"[1, 0]",left,1,99,21,f,y,y,2019_Jul_15_1435,2AFC_task,59.95361338240629,
stimuli/rgb_scene000196_render000004.png,stimuli/rgb_scene000196_render000006.png,1,134,344,208,"[1, 0]",right,0,99,21,f,y,y,2019_Jul_15_1435,2AFC_task,59.95361338240629,
stimuli/rgb_scene000147_render000002.png,stimuli/rgb_scene000147_render000003.png,1,135,345,95,"[1, 0]",left,1,99,21,f,y,y,2019_Jul_15_1435,2AFC_task,59.95361338240629,
stimuli/rgb_scene000042_render000002.png,stimuli/rgb_scene000042_render000003.png,1,136,346,11,"[1, 0]",left,1,99,21,f,y,y,2019_Jul_15_1435,2AFC_task,59.95361338240629,
stimuli/rgb_scene000042_render000000.png,stimuli/rgb_scene000042_render000006.png,1,137,347,5,"[0, 1]",right,1,99,21,f,y,y,2019_Jul_15_1435,2AFC_task,59.95361338240629,
stimuli/rgb_scene000196_render000003.png,stimuli/rgb_scene000196_render000005.png,1,138,348,205,"[0, 1]",left,0,99,21,f,y,y,2019_Jul_15_1435,2AFC_task,59.95361338240629,
stimuli/rgb_scene000147_render000001.png,stimuli/rgb_scene000147_render000006.png,1,139,349,94,"[0, 1]",right,1,99,21,f,y,y,2019_Jul_15_1435,2AFC_task,59.95361338240629,
stimuli/rgb_scene000066_render000002.png,stimuli/rgb_scene000066_render000006.png,1,140,350,77,"[1, 0]",left,1,99,21,f,y,y,2019_Jul_15_1435,2AFC_task,59.95361338240629,
stimuli/rgb_scene000056_render000000.png,stimuli/rgb_scene000056_render000005.png,1,141,351,46,"[0, 1]",right,1,99,21,f,y,y,2019_Jul_15_1435,2AFC_task,59.95361338240629,
stimuli/rgb_scene000160_render000000.png,stimuli/rgb_scene000160_render000003.png,1,142,352,128,"[0, 1]",right,1,99,21,f,y,y,2019_Jul_15_1435,2AFC_task,59.95361338240629,
stimuli/rgb_scene000150_render000001.png,stimuli/rgb_scene000150_render000002.png,1,143,353,111,"[1, 0]",left,1,99,21,f,y,y,2019_Jul_15_1435,2AFC_task,59.95361338240629,
stimuli/rgb_scene000165_render000000.png,stimuli/rgb_scene000165_render000006.png,1,144,354,152,"[0, 1]",right,1,99,21,f,y,y,2019_Jul_15_1435,2AFC_task,59.95361338240629,
stimuli/rgb_scene000147_render000001.png,stimuli/rgb_scene000147_render000004.png,1,145,355,92,"[0, 1]",right,1,99,21,f,y,y,2019_Jul_15_1435,2AFC_task,59.95361338240629,
stimuli/rgb_scene000056_render000002.png,stimuli/rgb_scene000056_render000006.png,1,146,356,56,"[1, 0]",left,1,99,21,f,y,y,2019_Jul_15_1435,2AFC_task,59.95361338240629,
stimuli/rgb_scene000150_render000000.png,stimuli/rgb_scene000150_render000004.png,1,147,357,108,"[0, 1]",right,1,99,21,f,y,y,2019_Jul_15_1435,2AFC_task,59.95361338240629,
stimuli/rgb_scene000196_render000001.png,stimuli/rgb_scene000196_render000002.png,1,148,358,195,"[1, 0]",left,1,99,21,f,y,y,2019_Jul_15_1435,2AFC_task,59.95361338240629,
stimuli/rgb_scene000160_render000004.png,stimuli/rgb_scene000160_render000006.png,1,149,359,145,"[0, 1]",right,1,99,21,f,y,y,2019_Jul_15_1435,2AFC_task,59.95361338240629,
stimuli/rgb_scene000147_render000004.png,stimuli/rgb_scene000147_render000005.png,1,150,360,102,"[1, 0]",left,1,99,21,f,y,y,2019_Jul_15_1435,2AFC_task,59.95361338240629,
stimuli/rgb_scene000165_render000000.png,stimuli/rgb_scene000165_render000002.png,1,151,361,148,"[1, 0]",left,1,99,21,f,y,y,2019_Jul_15_1435,2AFC_task,59.95361338240629,
stimuli/rgb_scene000042_render000000.png,stimuli/rgb_scene000042_render000002.png,1,152,362,1,"[1, 0]",left,1,99,21,f,y,y,2019_Jul_15_1435,2AFC_task,59.95361338240629,
stimuli/rgb_scene000196_render000000.png,stimuli/rgb_scene000196_render000004.png,1,153,363,192,"[1, 0]",left,1,99,21,f,y,y,2019_Jul_15_1435,2AFC_task,59.95361338240629,
stimuli/rgb_scene000150_render000004.png,stimuli/rgb_scene000150_render000006.png,1,154,364,124,"[0, 1]",right,1,99,21,f,y,y,2019_Jul_15_1435,2AFC_task,59.95361338240629,
stimuli/rgb_scene000150_render000004.png,stimuli/rgb_scene000150_render000005.png,1,155,365,123,"[0, 1]",right,1,99,21,f,y,y,2019_Jul_15_1435,2AFC_task,59.95361338240629,
stimuli/rgb_scene000160_render000000.png,stimuli/rgb_scene000160_render000004.png,1,156,366,129,"[0, 1]",right,1,99,21,f,y,y,2019_Jul_15_1435,2AFC_task,59.95361338240629,
stimuli/rgb_scene000147_render000002.png,stimuli/rgb_scene000147_render000005.png,1,157,367,97,"[0, 1]",right,1,99,21,f,y,y,2019_Jul_15_1435,2AFC_task,59.95361338240629,
stimuli/rgb_scene000147_render000001.png,stimuli/rgb_scene000147_render000003.png,1,158,368,91,"[0, 1]",right,1,99,21,f,y,y,2019_Jul_15_1435,2AFC_task,59.95361338240629,
stimuli/rgb_scene000066_render000000.png,stimuli/rgb_scene000066_render000003.png,1,159,369,65,"[0, 1]",right,1,99,21,f,y,y,2019_Jul_15_1435,2AFC_task,59.95361338240629,
stimuli/rgb_scene000165_render000001.png,stimuli/rgb_scene000165_render000002.png,1,160,370,153,"[1, 0]",left,1,99,21,f,y,y,2019_Jul_15_1435,2AFC_task,59.95361338240629,
stimuli/rgb_scene000147_render000000.png,stimuli/rgb_scene000147_render000003.png,1,161,371,86,"[1, 0]",left,1,99,21,f,y,y,2019_Jul_15_1435,2AFC_task,59.95361338240629,
stimuli/rgb_scene000056_render000004.png,stimuli/rgb_scene000056_render000005.png,1,162,372,60,"[0, 1]",right,1,99,21,f,y,y,2019_Jul_15_1435,2AFC_task,59.95361338240629,
stimuli/rgb_scene000047_render000002.png,stimuli/rgb_scene000047_render000006.png,1,163,373,35,"[1, 0]",left,1,99,21,f,y,y,2019_Jul_15_1435,2AFC_task,59.95361338240629,
stimuli/rgb_scene000150_render000000.png,stimuli/rgb_scene000150_render000003.png,1,164,374,107,"[1, 0]",left,1,99,21,f,y,y,2019_Jul_15_1435,2AFC_task,59.95361338240629,
stimuli/rgb_scene000196_render000002.png,stimuli/rgb_scene000196_render000004.png,1,165,375,201,"[0, 1]",right,1,99,21,f,y,y,2019_Jul_15_1435,2AFC_task,59.95361338240629,
stimuli/rgb_scene000047_render000000.png,stimuli/rgb_scene000047_render000002.png,1,166,376,22,"[1, 0]",left,1,99,21,f,y,y,2019_Jul_15_1435,2AFC_task,59.95361338240629,
stimuli/rgb_scene000165_render000004.png,stimuli/rgb_scene000165_render000005.png,1,167,377,165,"[0, 1]",right,1,99,21,f,y,y,2019_Jul_15_1435,2AFC_task,59.95361338240629,
stimuli/rgb_scene000056_render000001.png,stimuli/rgb_scene000056_render000004.png,1,168,378,50,"[0, 1]",right,1,99,21,f,y,y,2019_Jul_15_1435,2AFC_task,59.95361338240629,
stimuli/rgb_scene000056_render000004.png,stimuli/rgb_scene000056_render000006.png,1,169,379,61,"[0, 1]",right,1,99,21,f,y,y,2019_Jul_15_1435,2AFC_task,59.95361338240629,
stimuli/rgb_scene000066_render000000.png,stimuli/rgb_scene000066_render000001.png,1,170,380,63,"[1, 0]",left,1,99,21,f,y,y,2019_Jul_15_1435,2AFC_task,59.95361338240629,
stimuli/rgb_scene000066_render000003.png,stimuli/rgb_scene000066_render000006.png,1,171,381,80,"[0, 1]",right,1,99,21,f,y,y,2019_Jul_15_1435,2AFC_task,59.95361338240629,
stimuli/rgb_scene000165_render000002.png,stimuli/rgb_scene000165_render000006.png,1,172,382,161,"[1, 0]",left,1,99,21,f,y,y,2019_Jul_15_1435,2AFC_task,59.95361338240629,
stimuli/rgb_scene000056_render000002.png,stimuli/rgb_scene000056_render000005.png,1,173,383,55,"[1, 0]",left,1,99,21,f,y,y,2019_Jul_15_1435,2AFC_task,59.95361338240629,
stimuli/rgb_scene000169_render000001.png,stimuli/rgb_scene000169_render000003.png,1,174,384,175,"[1, 0]",left,1,99,21,f,y,y,2019_Jul_15_1435,2AFC_task,59.95361338240629,
stimuli/rgb_scene000147_render000001.png,stimuli/rgb_scene000147_render000005.png,1,175,385,93,"[1, 0]",left,1,99,21,f,y,y,2019_Jul_15_1435,2AFC_task,59.95361338240629,
stimuli/rgb_scene000147_render000002.png,stimuli/rgb_scene000147_render000006.png,1,176,386,98,"[1, 0]",left,1,99,21,f,y,y,2019_Jul_15_1435,2AFC_task,59.95361338240629,
stimuli/rgb_scene000047_render000000.png,stimuli/rgb_scene000047_render000004.png,1,177,387,24,"[1, 0]",left,1,99,21,f,y,y,2019_Jul_15_1435,2AFC_task,59.95361338240629,
stimuli/rgb_scene000147_render000002.png,stimuli/rgb_scene000147_render000004.png,1,178,388,96,"[0, 1]",right,1,99,21,f,y,y,2019_Jul_15_1435,2AFC_task,59.95361338240629,
stimuli/rgb_scene000165_render000000.png,stimuli/rgb_scene000165_render000003.png,1,179,389,149,"[1, 0]",left,1,99,21,f,y,y,2019_Jul_15_1435,2AFC_task,59.95361338240629,
stimuli/rgb_scene000196_render000000.png,stimuli/rgb_scene000196_render000005.png,1,180,390,193,"[1, 0]",left,1,99,21,f,y,y,2019_Jul_15_1435,2AFC_task,59.95361338240629,
stimuli/rgb_scene000169_render000001.png,stimuli/rgb_scene000169_render000002.png,1,181,391,174,"[0, 1]",right,1,99,21,f,y,y,2019_Jul_15_1435,2AFC_task,59.95361338240629,
stimuli/rgb_scene000169_render000000.png,stimuli/rgb_scene000169_render000002.png,1,182,392,169,"[1, 0]",left,1,99,21,f,y,y,2019_Jul_15_1435,2AFC_task,59.95361338240629,
stimuli/rgb_scene000047_render000000.png,stimuli/rgb_scene000047_render000005.png,1,183,393,25,"[0, 1]",right,1,99,21,f,y,y,2019_Jul_15_1435,2AFC_task,59.95361338240629,
stimuli/rgb_scene000042_render000001.png,stimuli/rgb_scene000042_render000006.png,1,184,394,10,"[0, 1]",right,1,99,21,f,y,y,2019_Jul_15_1435,2AFC_task,59.95361338240629,
stimuli/rgb_scene000160_render000000.png,stimuli/rgb_scene000160_render000006.png,1,185,395,131,"[1, 0]",left,1,99,21,f,y,y,2019_Jul_15_1435,2AFC_task,59.95361338240629,
stimuli/rgb_scene000066_render000003.png,stimuli/rgb_scene000066_render000004.png,1,186,396,78,"[0, 1]",right,1,99,21,f,y,y,2019_Jul_15_1435,2AFC_task,59.95361338240629,
stimuli/rgb_scene000042_render000001.png,stimuli/rgb_scene000042_render000003.png,1,187,397,7,"[1, 0]",left,1,99,21,f,y,y,2019_Jul_15_1435,2AFC_task,59.95361338240629,
stimuli/rgb_scene000165_render000003.png,stimuli/rgb_scene000165_render000006.png,1,188,398,164,"[0, 1]",right,1,99,21,f,y,y,2019_Jul_15_1435,2AFC_task,59.95361338240629,
stimuli/rgb_scene000150_render000001.png,stimuli/rgb_scene000150_render000005.png,1,189,399,114,"[1, 0]",right,0,99,21,f,y,y,2019_Jul_15_1435,2AFC_task,59.95361338240629,
stimuli/rgb_scene000042_render000001.png,stimuli/rgb_scene000042_render000002.png,1,190,400,6,"[1, 0]",left,1,99,21,f,y,y,2019_Jul_15_1435,2AFC_task,59.95361338240629,
stimuli/rgb_scene000150_render000000.png,stimuli/rgb_scene000150_render000006.png,1,191,401,110,"[0, 1]",right,1,99,21,f,y,y,2019_Jul_15_1435,2AFC_task,59.95361338240629,
stimuli/rgb_scene000160_render000001.png,stimuli/rgb_scene000160_render000002.png,1,192,402,132,"[1, 0]",left,1,99,21,f,y,y,2019_Jul_15_1435,2AFC_task,59.95361338240629,
stimuli/rgb_scene000047_render000002.png,stimuli/rgb_scene000047_render000005.png,1,193,403,34,"[0, 1]",right,1,99,21,f,y,y,2019_Jul_15_1435,2AFC_task,59.95361338240629,
stimuli/rgb_scene000160_render000003.png,stimuli/rgb_scene000160_render000004.png,1,194,404,141,"[0, 1]",right,1,99,21,f,y,y,2019_Jul_15_1435,2AFC_task,59.95361338240629,
stimuli/rgb_scene000169_render000002.png,stimuli/rgb_scene000169_render000004.png,1,195,405,180,"[1, 0]",left,1,99,21,f,y,y,2019_Jul_15_1435,2AFC_task,59.95361338240629,
stimuli/rgb_scene000147_render000003.png,stimuli/rgb_scene000147_render000006.png,1,196,406,101,"[1, 0]",left,1,99,21,f,y,y,2019_Jul_15_1435,2AFC_task,59.95361338240629,
stimuli/rgb_scene000047_render000003.png,stimuli/rgb_scene000047_render000004.png,1,197,407,36,"[0, 1]",right,1,99,21,f,y,y,2019_Jul_15_1435,2AFC_task,59.95361338240629,
stimuli/rgb_scene000056_render000000.png,stimuli/rgb_scene000056_render000002.png,1,198,408,43,"[0, 1]",right,1,99,21,f,y,y,2019_Jul_15_1435,2AFC_task,59.95361338240629,
stimuli/rgb_scene000047_render000001.png,stimuli/rgb_scene000047_render000006.png,1,199,409,31,"[0, 1]",right,1,99,21,f,y,y,2019_Jul_15_1435,2AFC_task,59.95361338240629,
stimuli/rgb_scene000066_render000001.png,stimuli/rgb_scene000066_render000006.png,1,200,410,73,"[0, 1]",right,1,99,21,f,y,y,2019_Jul_15_1435,2AFC_task,59.95361338240629,
stimuli/rgb_scene000147_render000003.png,stimuli/rgb_scene000147_render000005.png,1,201,411,100,"[0, 1]",right,1,99,21,f,y,y,2019_Jul_15_1435,2AFC_task,59.95361338240629,
stimuli/rgb_scene000056_render000001.png,stimuli/rgb_scene000056_render000002.png,1,202,412,48,"[0, 1]",right,1,99,21,f,y,y,2019_Jul_15_1435,2AFC_task,59.95361338240629,
stimuli/rgb_scene000169_render000003.png,stimuli/rgb_scene000169_render000006.png,1,203,413,185,"[0, 1]",right,1,99,21,f,y,y,2019_Jul_15_1435,2AFC_task,59.95361338240629,
stimuli/rgb_scene000169_render000000.png,stimuli/rgb_scene000169_render000003.png,1,204,414,170,"[1, 0]",left,1,99,21,f,y,y,2019_Jul_15_1435,2AFC_task,59.95361338240629,
stimuli/rgb_scene000056_render000000.png,stimuli/rgb_scene000056_render000001.png,1,205,415,42,"[1, 0]",left,1,99,21,f,y,y,2019_Jul_15_1435,2AFC_task,59.95361338240629,
stimuli/rgb_scene000150_render000000.png,stimuli/rgb_scene000150_render000005.png,1,206,416,109,"[0, 1]",right,1,99,21,f,y,y,2019_Jul_15_1435,2AFC_task,59.95361338240629,
stimuli/rgb_scene000196_render000005.png,stimuli/rgb_scene000196_render000006.png,1,207,417,209,"[0, 1]",left,0,99,21,f,y,y,2019_Jul_15_1435,2AFC_task,59.95361338240629,
stimuli/rgb_scene000196_render000003.png,stimuli/rgb_scene000196_render000006.png,1,208,418,206,"[1, 0]",left,1,99,21,f,y,y,2019_Jul_15_1435,2AFC_task,59.95361338240629,
stimuli/rgb_scene000160_render000002.png,stimuli/rgb_scene000160_render000003.png,1,209,419,137,"[1, 0]",left,1,99,21,f,y,y,2019_Jul_15_1435,2AFC_task,59.95361338240629,
