stimOne,stimTwo,trials_1.thisRepN,trials_1.thisTrialN,trials_1.thisN,trials_1.thisIndex,presentation_positions,resp_key,corresponding_image,participant ID (two digits, e.g. 01),age,gender (m/f/-),normal or corrected-to-normal vision (y/n),normal colour vision (y/n),date,expName,frameRate,
stimuli/hdri_light_05_a.png,stimuli/hdri_light_05_b.png,0,0,0,14,"[1, 0]",right,0,01,35,m,y,n,2019_Jul_12_1221,2AFC_task,59.985051725635984,
stimuli/hdri_bump_07_a.png,stimuli/hdri_bump_07_b.png,0,1,1,6,"[0, 1]",right,1,01,35,m,y,n,2019_Jul_12_1221,2AFC_task,59.985051725635984,
stimuli/lamp_light_01_a.png,stimuli/lamp_light_01_b.png,0,2,2,30,"[1, 0]",left,1,01,35,m,y,n,2019_Jul_12_1221,2AFC_task,59.985051725635984,
stimuli/lamp_bump_01_a.png,stimuli/lamp_bump_01_b.png,0,3,3,20,"[1, 0]",left,1,01,35,m,y,n,2019_Jul_12_1221,2AFC_task,59.985051725635984,
stimuli/hdri_light_02_a.png,stimuli/hdri_light_02_b.png,0,4,4,11,"[1, 0]",right,0,01,35,m,y,n,2019_Jul_12_1221,2AFC_task,59.985051725635984,
stimuli/hdri_light_03_a.png,stimuli/hdri_light_03_b.png,0,5,5,12,"[0, 1]",left,0,01,35,m,y,n,2019_Jul_12_1221,2AFC_task,59.985051725635984,
stimuli/lamp_light_09_a.png,stimuli/lamp_light_09_b.png,0,6,6,38,"[1, 0]",left,1,01,35,m,y,n,2019_Jul_12_1221,2AFC_task,59.985051725635984,
stimuli/hdri_bump_04_a.png,stimuli/hdri_bump_04_b.png,0,7,7,3,"[0, 1]",right,1,01,35,m,y,n,2019_Jul_12_1221,2AFC_task,59.985051725635984,
stimuli/hdri_bump_06_a.png,stimuli/hdri_bump_06_b.png,0,8,8,5,"[0, 1]",right,1,01,35,m,y,n,2019_Jul_12_1221,2AFC_task,59.985051725635984,
stimuli/lamp_bump_07_a.png,stimuli/lamp_bump_07_b.png,0,9,9,26,"[1, 0]",left,1,01,35,m,y,n,2019_Jul_12_1221,2AFC_task,59.985051725635984,
stimuli/hdri_light_04_a.png,stimuli/hdri_light_04_b.png,0,10,10,13,"[0, 1]",left,0,01,35,m,y,n,2019_Jul_12_1221,2AFC_task,59.985051725635984,
stimuli/hdri_light_10_a.png,stimuli/hdri_light_10_b.png,0,11,11,19,"[1, 0]",left,1,01,35,m,y,n,2019_Jul_12_1221,2AFC_task,59.985051725635984,
stimuli/hdri_bump_09_a.png,stimuli/hdri_bump_09_b.png,0,12,12,8,"[1, 0]",left,1,01,35,m,y,n,2019_Jul_12_1221,2AFC_task,59.985051725635984,
stimuli/hdri_light_09_a.png,stimuli/hdri_light_09_b.png,0,13,13,18,"[0, 1]",left,0,01,35,m,y,n,2019_Jul_12_1221,2AFC_task,59.985051725635984,
stimuli/hdri_light_07_a.png,stimuli/hdri_light_07_b.png,0,14,14,16,"[0, 1]",right,1,01,35,m,y,n,2019_Jul_12_1221,2AFC_task,59.985051725635984,
stimuli/lamp_light_07_a.png,stimuli/lamp_light_07_b.png,0,15,15,36,"[0, 1]",right,1,01,35,m,y,n,2019_Jul_12_1221,2AFC_task,59.985051725635984,
stimuli/lamp_bump_05_a.png,stimuli/lamp_bump_05_b.png,0,16,16,24,"[1, 0]",left,1,01,35,m,y,n,2019_Jul_12_1221,2AFC_task,59.985051725635984,
stimuli/lamp_light_08_a.png,stimuli/lamp_light_08_b.png,0,17,17,37,"[1, 0]",left,1,01,35,m,y,n,2019_Jul_12_1221,2AFC_task,59.985051725635984,
stimuli/lamp_light_04_a.png,stimuli/lamp_light_04_b.png,0,18,18,33,"[0, 1]",right,1,01,35,m,y,n,2019_Jul_12_1221,2AFC_task,59.985051725635984,
stimuli/lamp_bump_09_a.png,stimuli/lamp_bump_09_b.png,0,19,19,28,"[1, 0]",left,1,01,35,m,y,n,2019_Jul_12_1221,2AFC_task,59.985051725635984,
stimuli/lamp_bump_06_a.png,stimuli/lamp_bump_06_b.png,0,20,20,25,"[0, 1]",right,1,01,35,m,y,n,2019_Jul_12_1221,2AFC_task,59.985051725635984,
stimuli/hdri_light_06_a.png,stimuli/hdri_light_06_b.png,0,21,21,15,"[1, 0]",right,0,01,35,m,y,n,2019_Jul_12_1221,2AFC_task,59.985051725635984,
stimuli/lamp_bump_04_a.png,stimuli/lamp_bump_04_b.png,0,22,22,23,"[1, 0]",left,1,01,35,m,y,n,2019_Jul_12_1221,2AFC_task,59.985051725635984,
stimuli/hdri_bump_10_a.png,stimuli/hdri_bump_10_b.png,0,23,23,9,"[0, 1]",right,1,01,35,m,y,n,2019_Jul_12_1221,2AFC_task,59.985051725635984,
stimuli/lamp_light_02_a.png,stimuli/lamp_light_02_b.png,0,24,24,31,"[1, 0]",left,1,01,35,m,y,n,2019_Jul_12_1221,2AFC_task,59.985051725635984,
stimuli/lamp_light_10_a.png,stimuli/lamp_light_10_b.png,0,25,25,39,"[1, 0]",left,1,01,35,m,y,n,2019_Jul_12_1221,2AFC_task,59.985051725635984,
stimuli/hdri_bump_03_a.png,stimuli/hdri_bump_03_b.png,0,26,26,2,"[1, 0]",left,1,01,35,m,y,n,2019_Jul_12_1221,2AFC_task,59.985051725635984,
stimuli/lamp_light_06_a.png,stimuli/lamp_light_06_b.png,0,27,27,35,"[1, 0]",left,1,01,35,m,y,n,2019_Jul_12_1221,2AFC_task,59.985051725635984,
stimuli/lamp_bump_02_a.png,stimuli/lamp_bump_02_b.png,0,28,28,21,"[1, 0]",left,1,01,35,m,y,n,2019_Jul_12_1221,2AFC_task,59.985051725635984,
stimuli/lamp_bump_08_a.png,stimuli/lamp_bump_08_b.png,0,29,29,27,"[1, 0]",left,1,01,35,m,y,n,2019_Jul_12_1221,2AFC_task,59.985051725635984,
stimuli/hdri_bump_01_a.png,stimuli/hdri_bump_01_b.png,0,30,30,0,"[0, 1]",right,1,01,35,m,y,n,2019_Jul_12_1221,2AFC_task,59.985051725635984,
stimuli/hdri_bump_05_a.png,stimuli/hdri_bump_05_b.png,0,31,31,4,"[1, 0]",left,1,01,35,m,y,n,2019_Jul_12_1221,2AFC_task,59.985051725635984,
stimuli/hdri_light_01_a.png,stimuli/hdri_light_01_b.png,0,32,32,10,"[1, 0]",right,0,01,35,m,y,n,2019_Jul_12_1221,2AFC_task,59.985051725635984,
stimuli/lamp_light_03_a.png,stimuli/lamp_light_03_b.png,0,33,33,32,"[1, 0]",left,1,01,35,m,y,n,2019_Jul_12_1221,2AFC_task,59.985051725635984,
stimuli/lamp_light_05_a.png,stimuli/lamp_light_05_b.png,0,34,34,34,"[0, 1]",right,1,01,35,m,y,n,2019_Jul_12_1221,2AFC_task,59.985051725635984,
stimuli/hdri_light_08_a.png,stimuli/hdri_light_08_b.png,0,35,35,17,"[0, 1]",right,1,01,35,m,y,n,2019_Jul_12_1221,2AFC_task,59.985051725635984,
stimuli/hdri_bump_08_a.png,stimuli/hdri_bump_08_b.png,0,36,36,7,"[1, 0]",left,1,01,35,m,y,n,2019_Jul_12_1221,2AFC_task,59.985051725635984,
stimuli/lamp_bump_03_a.png,stimuli/lamp_bump_03_b.png,0,37,37,22,"[0, 1]",right,1,01,35,m,y,n,2019_Jul_12_1221,2AFC_task,59.985051725635984,
stimuli/lamp_bump_10_a.png,stimuli/lamp_bump_10_b.png,0,38,38,29,"[0, 1]",right,1,01,35,m,y,n,2019_Jul_12_1221,2AFC_task,59.985051725635984,
stimuli/hdri_bump_02_a.png,stimuli/hdri_bump_02_b.png,0,39,39,1,"[1, 0]",left,1,01,35,m,y,n,2019_Jul_12_1221,2AFC_task,59.985051725635984,
stimuli/lamp_bump_08_a.png,stimuli/lamp_bump_08_b.png,1,0,40,27,"[0, 1]",right,1,01,35,m,y,n,2019_Jul_12_1221,2AFC_task,59.985051725635984,
stimuli/hdri_bump_09_a.png,stimuli/hdri_bump_09_b.png,1,1,41,8,"[0, 1]",right,1,01,35,m,y,n,2019_Jul_12_1221,2AFC_task,59.985051725635984,
stimuli/lamp_bump_04_a.png,stimuli/lamp_bump_04_b.png,1,2,42,23,"[1, 0]",left,1,01,35,m,y,n,2019_Jul_12_1221,2AFC_task,59.985051725635984,
stimuli/hdri_light_08_a.png,stimuli/hdri_light_08_b.png,1,3,43,17,"[1, 0]",left,1,01,35,m,y,n,2019_Jul_12_1221,2AFC_task,59.985051725635984,
stimuli/hdri_light_07_a.png,stimuli/hdri_light_07_b.png,1,4,44,16,"[1, 0]",left,1,01,35,m,y,n,2019_Jul_12_1221,2AFC_task,59.985051725635984,
stimuli/lamp_bump_10_a.png,stimuli/lamp_bump_10_b.png,1,5,45,29,"[0, 1]",right,1,01,35,m,y,n,2019_Jul_12_1221,2AFC_task,59.985051725635984,
stimuli/lamp_bump_01_a.png,stimuli/lamp_bump_01_b.png,1,6,46,20,"[1, 0]",left,1,01,35,m,y,n,2019_Jul_12_1221,2AFC_task,59.985051725635984,
stimuli/hdri_bump_08_a.png,stimuli/hdri_bump_08_b.png,1,7,47,7,"[0, 1]",right,1,01,35,m,y,n,2019_Jul_12_1221,2AFC_task,59.985051725635984,
stimuli/hdri_bump_10_a.png,stimuli/hdri_bump_10_b.png,1,8,48,9,"[1, 0]",left,1,01,35,m,y,n,2019_Jul_12_1221,2AFC_task,59.985051725635984,
stimuli/hdri_light_06_a.png,stimuli/hdri_light_06_b.png,1,9,49,15,"[0, 1]",left,0,01,35,m,y,n,2019_Jul_12_1221,2AFC_task,59.985051725635984,
stimuli/lamp_bump_03_a.png,stimuli/lamp_bump_03_b.png,1,10,50,22,"[0, 1]",right,1,01,35,m,y,n,2019_Jul_12_1221,2AFC_task,59.985051725635984,
stimuli/lamp_light_10_a.png,stimuli/lamp_light_10_b.png,1,11,51,39,"[1, 0]",left,1,01,35,m,y,n,2019_Jul_12_1221,2AFC_task,59.985051725635984,
stimuli/lamp_light_03_a.png,stimuli/lamp_light_03_b.png,1,12,52,32,"[1, 0]",left,1,01,35,m,y,n,2019_Jul_12_1221,2AFC_task,59.985051725635984,
stimuli/hdri_light_04_a.png,stimuli/hdri_light_04_b.png,1,13,53,13,"[1, 0]",right,0,01,35,m,y,n,2019_Jul_12_1221,2AFC_task,59.985051725635984,
stimuli/lamp_light_06_a.png,stimuli/lamp_light_06_b.png,1,14,54,35,"[1, 0]",left,1,01,35,m,y,n,2019_Jul_12_1221,2AFC_task,59.985051725635984,
stimuli/lamp_bump_02_a.png,stimuli/lamp_bump_02_b.png,1,15,55,21,"[0, 1]",right,1,01,35,m,y,n,2019_Jul_12_1221,2AFC_task,59.985051725635984,
stimuli/lamp_light_02_a.png,stimuli/lamp_light_02_b.png,1,16,56,31,"[1, 0]",right,0,01,35,m,y,n,2019_Jul_12_1221,2AFC_task,59.985051725635984,
stimuli/lamp_bump_09_a.png,stimuli/lamp_bump_09_b.png,1,17,57,28,"[0, 1]",right,1,01,35,m,y,n,2019_Jul_12_1221,2AFC_task,59.985051725635984,
stimuli/hdri_bump_02_a.png,stimuli/hdri_bump_02_b.png,1,18,58,1,"[1, 0]",left,1,01,35,m,y,n,2019_Jul_12_1221,2AFC_task,59.985051725635984,
stimuli/hdri_bump_03_a.png,stimuli/hdri_bump_03_b.png,1,19,59,2,"[1, 0]",left,1,01,35,m,y,n,2019_Jul_12_1221,2AFC_task,59.985051725635984,
stimuli/hdri_light_03_a.png,stimuli/hdri_light_03_b.png,1,20,60,12,"[0, 1]",left,0,01,35,m,y,n,2019_Jul_12_1221,2AFC_task,59.985051725635984,
stimuli/lamp_bump_06_a.png,stimuli/lamp_bump_06_b.png,1,21,61,25,"[1, 0]",left,1,01,35,m,y,n,2019_Jul_12_1221,2AFC_task,59.985051725635984,
stimuli/hdri_bump_04_a.png,stimuli/hdri_bump_04_b.png,1,22,62,3,"[1, 0]",left,1,01,35,m,y,n,2019_Jul_12_1221,2AFC_task,59.985051725635984,
stimuli/hdri_light_02_a.png,stimuli/hdri_light_02_b.png,1,23,63,11,"[1, 0]",right,0,01,35,m,y,n,2019_Jul_12_1221,2AFC_task,59.985051725635984,
stimuli/hdri_bump_07_a.png,stimuli/hdri_bump_07_b.png,1,24,64,6,"[1, 0]",left,1,01,35,m,y,n,2019_Jul_12_1221,2AFC_task,59.985051725635984,
stimuli/hdri_bump_01_a.png,stimuli/hdri_bump_01_b.png,1,25,65,0,"[0, 1]",right,1,01,35,m,y,n,2019_Jul_12_1221,2AFC_task,59.985051725635984,
stimuli/hdri_light_10_a.png,stimuli/hdri_light_10_b.png,1,26,66,19,"[0, 1]",right,1,01,35,m,y,n,2019_Jul_12_1221,2AFC_task,59.985051725635984,
stimuli/hdri_bump_05_a.png,stimuli/hdri_bump_05_b.png,1,27,67,4,"[1, 0]",left,1,01,35,m,y,n,2019_Jul_12_1221,2AFC_task,59.985051725635984,
stimuli/lamp_light_08_a.png,stimuli/lamp_light_08_b.png,1,28,68,37,"[1, 0]",right,0,01,35,m,y,n,2019_Jul_12_1221,2AFC_task,59.985051725635984,
stimuli/lamp_light_04_a.png,stimuli/lamp_light_04_b.png,1,29,69,33,"[0, 1]",right,1,01,35,m,y,n,2019_Jul_12_1221,2AFC_task,59.985051725635984,
stimuli/lamp_light_05_a.png,stimuli/lamp_light_05_b.png,1,30,70,34,"[0, 1]",right,1,01,35,m,y,n,2019_Jul_12_1221,2AFC_task,59.985051725635984,
stimuli/hdri_light_01_a.png,stimuli/hdri_light_01_b.png,1,31,71,10,"[0, 1]",left,0,01,35,m,y,n,2019_Jul_12_1221,2AFC_task,59.985051725635984,
stimuli/lamp_light_01_a.png,stimuli/lamp_light_01_b.png,1,32,72,30,"[1, 0]",left,1,01,35,m,y,n,2019_Jul_12_1221,2AFC_task,59.985051725635984,
stimuli/hdri_light_09_a.png,stimuli/hdri_light_09_b.png,1,33,73,18,"[0, 1]",left,0,01,35,m,y,n,2019_Jul_12_1221,2AFC_task,59.985051725635984,
stimuli/lamp_bump_05_a.png,stimuli/lamp_bump_05_b.png,1,34,74,24,"[0, 1]",right,1,01,35,m,y,n,2019_Jul_12_1221,2AFC_task,59.985051725635984,
stimuli/hdri_light_05_a.png,stimuli/hdri_light_05_b.png,1,35,75,14,"[1, 0]",right,0,01,35,m,y,n,2019_Jul_12_1221,2AFC_task,59.985051725635984,
stimuli/lamp_light_09_a.png,stimuli/lamp_light_09_b.png,1,36,76,38,"[0, 1]",right,1,01,35,m,y,n,2019_Jul_12_1221,2AFC_task,59.985051725635984,
stimuli/lamp_light_07_a.png,stimuli/lamp_light_07_b.png,1,37,77,36,"[1, 0]",left,1,01,35,m,y,n,2019_Jul_12_1221,2AFC_task,59.985051725635984,
stimuli/hdri_bump_06_a.png,stimuli/hdri_bump_06_b.png,1,38,78,5,"[0, 1]",right,1,01,35,m,y,n,2019_Jul_12_1221,2AFC_task,59.985051725635984,
stimuli/lamp_bump_07_a.png,stimuli/lamp_bump_07_b.png,1,39,79,26,"[0, 1]",right,1,01,35,m,y,n,2019_Jul_12_1221,2AFC_task,59.985051725635984,
stimuli/lamp_light_04_a.png,stimuli/lamp_light_04_b.png,2,0,80,33,"[1, 0]",right,0,01,35,m,y,n,2019_Jul_12_1221,2AFC_task,59.985051725635984,
stimuli/hdri_bump_09_a.png,stimuli/hdri_bump_09_b.png,2,1,81,8,"[0, 1]",right,1,01,35,m,y,n,2019_Jul_12_1221,2AFC_task,59.985051725635984,
stimuli/lamp_bump_03_a.png,stimuli/lamp_bump_03_b.png,2,2,82,22,"[1, 0]",left,1,01,35,m,y,n,2019_Jul_12_1221,2AFC_task,59.985051725635984,
stimuli/hdri_light_04_a.png,stimuli/hdri_light_04_b.png,2,3,83,13,"[0, 1]",left,0,01,35,m,y,n,2019_Jul_12_1221,2AFC_task,59.985051725635984,
stimuli/lamp_light_10_a.png,stimuli/lamp_light_10_b.png,2,4,84,39,"[0, 1]",right,1,01,35,m,y,n,2019_Jul_12_1221,2AFC_task,59.985051725635984,
stimuli/hdri_light_08_a.png,stimuli/hdri_light_08_b.png,2,5,85,17,"[0, 1]",right,1,01,35,m,y,n,2019_Jul_12_1221,2AFC_task,59.985051725635984,
stimuli/hdri_bump_10_a.png,stimuli/hdri_bump_10_b.png,2,6,86,9,"[1, 0]",left,1,01,35,m,y,n,2019_Jul_12_1221,2AFC_task,59.985051725635984,
stimuli/lamp_bump_07_a.png,stimuli/lamp_bump_07_b.png,2,7,87,26,"[0, 1]",right,1,01,35,m,y,n,2019_Jul_12_1221,2AFC_task,59.985051725635984,
stimuli/lamp_bump_08_a.png,stimuli/lamp_bump_08_b.png,2,8,88,27,"[1, 0]",left,1,01,35,m,y,n,2019_Jul_12_1221,2AFC_task,59.985051725635984,
stimuli/lamp_bump_01_a.png,stimuli/lamp_bump_01_b.png,2,9,89,20,"[1, 0]",left,1,01,35,m,y,n,2019_Jul_12_1221,2AFC_task,59.985051725635984,
stimuli/lamp_bump_04_a.png,stimuli/lamp_bump_04_b.png,2,10,90,23,"[1, 0]",left,1,01,35,m,y,n,2019_Jul_12_1221,2AFC_task,59.985051725635984,
stimuli/lamp_light_08_a.png,stimuli/lamp_light_08_b.png,2,11,91,37,"[0, 1]",right,1,01,35,m,y,n,2019_Jul_12_1221,2AFC_task,59.985051725635984,
stimuli/hdri_bump_07_a.png,stimuli/hdri_bump_07_b.png,2,12,92,6,"[0, 1]",right,1,01,35,m,y,n,2019_Jul_12_1221,2AFC_task,59.985051725635984,
stimuli/lamp_light_09_a.png,stimuli/lamp_light_09_b.png,2,13,93,38,"[0, 1]",right,1,01,35,m,y,n,2019_Jul_12_1221,2AFC_task,59.985051725635984,
stimuli/hdri_light_03_a.png,stimuli/hdri_light_03_b.png,2,14,94,12,"[1, 0]",right,0,01,35,m,y,n,2019_Jul_12_1221,2AFC_task,59.985051725635984,
stimuli/hdri_bump_05_a.png,stimuli/hdri_bump_05_b.png,2,15,95,4,"[0, 1]",right,1,01,35,m,y,n,2019_Jul_12_1221,2AFC_task,59.985051725635984,
stimuli/hdri_light_02_a.png,stimuli/hdri_light_02_b.png,2,16,96,11,"[0, 1]",left,0,01,35,m,y,n,2019_Jul_12_1221,2AFC_task,59.985051725635984,
stimuli/lamp_light_07_a.png,stimuli/lamp_light_07_b.png,2,17,97,36,"[0, 1]",right,1,01,35,m,y,n,2019_Jul_12_1221,2AFC_task,59.985051725635984,
stimuli/hdri_bump_08_a.png,stimuli/hdri_bump_08_b.png,2,18,98,7,"[0, 1]",right,1,01,35,m,y,n,2019_Jul_12_1221,2AFC_task,59.985051725635984,
stimuli/hdri_bump_02_a.png,stimuli/hdri_bump_02_b.png,2,19,99,1,"[0, 1]",right,1,01,35,m,y,n,2019_Jul_12_1221,2AFC_task,59.985051725635984,
stimuli/lamp_bump_06_a.png,stimuli/lamp_bump_06_b.png,2,20,100,25,"[1, 0]",left,1,01,35,m,y,n,2019_Jul_12_1221,2AFC_task,59.985051725635984,
stimuli/lamp_light_03_a.png,stimuli/lamp_light_03_b.png,2,21,101,32,"[0, 1]",left,0,01,35,m,y,n,2019_Jul_12_1221,2AFC_task,59.985051725635984,
stimuli/hdri_bump_01_a.png,stimuli/hdri_bump_01_b.png,2,22,102,0,"[0, 1]",right,1,01,35,m,y,n,2019_Jul_12_1221,2AFC_task,59.985051725635984,
stimuli/hdri_light_05_a.png,stimuli/hdri_light_05_b.png,2,23,103,14,"[0, 1]",left,0,01,35,m,y,n,2019_Jul_12_1221,2AFC_task,59.985051725635984,
stimuli/hdri_light_09_a.png,stimuli/hdri_light_09_b.png,2,24,104,18,"[1, 0]",right,0,01,35,m,y,n,2019_Jul_12_1221,2AFC_task,59.985051725635984,
stimuli/hdri_light_10_a.png,stimuli/hdri_light_10_b.png,2,25,105,19,"[0, 1]",right,1,01,35,m,y,n,2019_Jul_12_1221,2AFC_task,59.985051725635984,
stimuli/lamp_bump_10_a.png,stimuli/lamp_bump_10_b.png,2,26,106,29,"[1, 0]",left,1,01,35,m,y,n,2019_Jul_12_1221,2AFC_task,59.985051725635984,
stimuli/lamp_light_01_a.png,stimuli/lamp_light_01_b.png,2,27,107,30,"[0, 1]",right,1,01,35,m,y,n,2019_Jul_12_1221,2AFC_task,59.985051725635984,
stimuli/hdri_bump_04_a.png,stimuli/hdri_bump_04_b.png,2,28,108,3,"[0, 1]",right,1,01,35,m,y,n,2019_Jul_12_1221,2AFC_task,59.985051725635984,
stimuli/lamp_bump_02_a.png,stimuli/lamp_bump_02_b.png,2,29,109,21,"[0, 1]",right,1,01,35,m,y,n,2019_Jul_12_1221,2AFC_task,59.985051725635984,
stimuli/hdri_light_07_a.png,stimuli/hdri_light_07_b.png,2,30,110,16,"[1, 0]",left,1,01,35,m,y,n,2019_Jul_12_1221,2AFC_task,59.985051725635984,
stimuli/lamp_light_06_a.png,stimuli/lamp_light_06_b.png,2,31,111,35,"[1, 0]",left,1,01,35,m,y,n,2019_Jul_12_1221,2AFC_task,59.985051725635984,
stimuli/lamp_bump_09_a.png,stimuli/lamp_bump_09_b.png,2,32,112,28,"[0, 1]",right,1,01,35,m,y,n,2019_Jul_12_1221,2AFC_task,59.985051725635984,
stimuli/hdri_bump_03_a.png,stimuli/hdri_bump_03_b.png,2,33,113,2,"[0, 1]",right,1,01,35,m,y,n,2019_Jul_12_1221,2AFC_task,59.985051725635984,
stimuli/lamp_light_05_a.png,stimuli/lamp_light_05_b.png,2,34,114,34,"[0, 1]",right,1,01,35,m,y,n,2019_Jul_12_1221,2AFC_task,59.985051725635984,
stimuli/hdri_bump_06_a.png,stimuli/hdri_bump_06_b.png,2,35,115,5,"[1, 0]",left,1,01,35,m,y,n,2019_Jul_12_1221,2AFC_task,59.985051725635984,
stimuli/lamp_bump_05_a.png,stimuli/lamp_bump_05_b.png,2,36,116,24,"[0, 1]",right,1,01,35,m,y,n,2019_Jul_12_1221,2AFC_task,59.985051725635984,
stimuli/lamp_light_02_a.png,stimuli/lamp_light_02_b.png,2,37,117,31,"[1, 0]",left,1,01,35,m,y,n,2019_Jul_12_1221,2AFC_task,59.985051725635984,
stimuli/hdri_light_01_a.png,stimuli/hdri_light_01_b.png,2,38,118,10,"[1, 0]",right,0,01,35,m,y,n,2019_Jul_12_1221,2AFC_task,59.985051725635984,
stimuli/hdri_light_06_a.png,stimuli/hdri_light_06_b.png,2,39,119,15,"[0, 1]",left,0,01,35,m,y,n,2019_Jul_12_1221,2AFC_task,59.985051725635984,
stimuli/hdri_light_10_a.png,stimuli/hdri_light_10_b.png,3,0,120,19,"[1, 0]",left,1,01,35,m,y,n,2019_Jul_12_1221,2AFC_task,59.985051725635984,
stimuli/lamp_bump_10_a.png,stimuli/lamp_bump_10_b.png,3,1,121,29,"[1, 0]",left,1,01,35,m,y,n,2019_Jul_12_1221,2AFC_task,59.985051725635984,
stimuli/lamp_light_08_a.png,stimuli/lamp_light_08_b.png,3,2,122,37,"[0, 1]",left,0,01,35,m,y,n,2019_Jul_12_1221,2AFC_task,59.985051725635984,
stimuli/lamp_light_04_a.png,stimuli/lamp_light_04_b.png,3,3,123,33,"[0, 1]",left,0,01,35,m,y,n,2019_Jul_12_1221,2AFC_task,59.985051725635984,
stimuli/lamp_bump_07_a.png,stimuli/lamp_bump_07_b.png,3,4,124,26,"[1, 0]",left,1,01,35,m,y,n,2019_Jul_12_1221,2AFC_task,59.985051725635984,
stimuli/lamp_bump_05_a.png,stimuli/lamp_bump_05_b.png,3,5,125,24,"[0, 1]",right,1,01,35,m,y,n,2019_Jul_12_1221,2AFC_task,59.985051725635984,
stimuli/hdri_bump_06_a.png,stimuli/hdri_bump_06_b.png,3,6,126,5,"[0, 1]",right,1,01,35,m,y,n,2019_Jul_12_1221,2AFC_task,59.985051725635984,
stimuli/hdri_light_09_a.png,stimuli/hdri_light_09_b.png,3,7,127,18,"[1, 0]",right,0,01,35,m,y,n,2019_Jul_12_1221,2AFC_task,59.985051725635984,
stimuli/lamp_bump_02_a.png,stimuli/lamp_bump_02_b.png,3,8,128,21,"[0, 1]",right,1,01,35,m,y,n,2019_Jul_12_1221,2AFC_task,59.985051725635984,
stimuli/hdri_bump_05_a.png,stimuli/hdri_bump_05_b.png,3,9,129,4,"[1, 0]",left,1,01,35,m,y,n,2019_Jul_12_1221,2AFC_task,59.985051725635984,
stimuli/lamp_light_10_a.png,stimuli/lamp_light_10_b.png,3,10,130,39,"[1, 0]",left,1,01,35,m,y,n,2019_Jul_12_1221,2AFC_task,59.985051725635984,
stimuli/hdri_light_01_a.png,stimuli/hdri_light_01_b.png,3,11,131,10,"[1, 0]",right,0,01,35,m,y,n,2019_Jul_12_1221,2AFC_task,59.985051725635984,
stimuli/lamp_light_02_a.png,stimuli/lamp_light_02_b.png,3,12,132,31,"[1, 0]",right,0,01,35,m,y,n,2019_Jul_12_1221,2AFC_task,59.985051725635984,
stimuli/lamp_bump_06_a.png,stimuli/lamp_bump_06_b.png,3,13,133,25,"[0, 1]",right,1,01,35,m,y,n,2019_Jul_12_1221,2AFC_task,59.985051725635984,
stimuli/hdri_light_08_a.png,stimuli/hdri_light_08_b.png,3,14,134,17,"[0, 1]",right,1,01,35,m,y,n,2019_Jul_12_1221,2AFC_task,59.985051725635984,
stimuli/hdri_light_02_a.png,stimuli/hdri_light_02_b.png,3,15,135,11,"[0, 1]",left,0,01,35,m,y,n,2019_Jul_12_1221,2AFC_task,59.985051725635984,
stimuli/hdri_bump_02_a.png,stimuli/hdri_bump_02_b.png,3,16,136,1,"[0, 1]",right,1,01,35,m,y,n,2019_Jul_12_1221,2AFC_task,59.985051725635984,
stimuli/hdri_bump_10_a.png,stimuli/hdri_bump_10_b.png,3,17,137,9,"[0, 1]",right,1,01,35,m,y,n,2019_Jul_12_1221,2AFC_task,59.985051725635984,
stimuli/hdri_bump_04_a.png,stimuli/hdri_bump_04_b.png,3,18,138,3,"[0, 1]",right,1,01,35,m,y,n,2019_Jul_12_1221,2AFC_task,59.985051725635984,
stimuli/lamp_light_06_a.png,stimuli/lamp_light_06_b.png,3,19,139,35,"[0, 1]",right,1,01,35,m,y,n,2019_Jul_12_1221,2AFC_task,59.985051725635984,
stimuli/hdri_light_05_a.png,stimuli/hdri_light_05_b.png,3,20,140,14,"[0, 1]",left,0,01,35,m,y,n,2019_Jul_12_1221,2AFC_task,59.985051725635984,
stimuli/lamp_light_01_a.png,stimuli/lamp_light_01_b.png,3,21,141,30,"[1, 0]",right,0,01,35,m,y,n,2019_Jul_12_1221,2AFC_task,59.985051725635984,
stimuli/hdri_bump_07_a.png,stimuli/hdri_bump_07_b.png,3,22,142,6,"[0, 1]",right,1,01,35,m,y,n,2019_Jul_12_1221,2AFC_task,59.985051725635984,
stimuli/lamp_bump_09_a.png,stimuli/lamp_bump_09_b.png,3,23,143,28,"[0, 1]",right,1,01,35,m,y,n,2019_Jul_12_1221,2AFC_task,59.985051725635984,
stimuli/hdri_light_04_a.png,stimuli/hdri_light_04_b.png,3,24,144,13,"[0, 1]",left,0,01,35,m,y,n,2019_Jul_12_1221,2AFC_task,59.985051725635984,
stimuli/hdri_bump_08_a.png,stimuli/hdri_bump_08_b.png,3,25,145,7,"[0, 1]",right,1,01,35,m,y,n,2019_Jul_12_1221,2AFC_task,59.985051725635984,
stimuli/hdri_light_07_a.png,stimuli/hdri_light_07_b.png,3,26,146,16,"[1, 0]",left,1,01,35,m,y,n,2019_Jul_12_1221,2AFC_task,59.985051725635984,
stimuli/lamp_bump_03_a.png,stimuli/lamp_bump_03_b.png,3,27,147,22,"[0, 1]",right,1,01,35,m,y,n,2019_Jul_12_1221,2AFC_task,59.985051725635984,
stimuli/lamp_bump_08_a.png,stimuli/lamp_bump_08_b.png,3,28,148,27,"[1, 0]",left,1,01,35,m,y,n,2019_Jul_12_1221,2AFC_task,59.985051725635984,
stimuli/lamp_bump_01_a.png,stimuli/lamp_bump_01_b.png,3,29,149,20,"[0, 1]",right,1,01,35,m,y,n,2019_Jul_12_1221,2AFC_task,59.985051725635984,
stimuli/lamp_bump_04_a.png,stimuli/lamp_bump_04_b.png,3,30,150,23,"[1, 0]",left,1,01,35,m,y,n,2019_Jul_12_1221,2AFC_task,59.985051725635984,
stimuli/hdri_bump_03_a.png,stimuli/hdri_bump_03_b.png,3,31,151,2,"[1, 0]",left,1,01,35,m,y,n,2019_Jul_12_1221,2AFC_task,59.985051725635984,
stimuli/lamp_light_03_a.png,stimuli/lamp_light_03_b.png,3,32,152,32,"[0, 1]",left,0,01,35,m,y,n,2019_Jul_12_1221,2AFC_task,59.985051725635984,
stimuli/lamp_light_09_a.png,stimuli/lamp_light_09_b.png,3,33,153,38,"[1, 0]",left,1,01,35,m,y,n,2019_Jul_12_1221,2AFC_task,59.985051725635984,
stimuli/hdri_light_03_a.png,stimuli/hdri_light_03_b.png,3,34,154,12,"[1, 0]",right,0,01,35,m,y,n,2019_Jul_12_1221,2AFC_task,59.985051725635984,
stimuli/lamp_light_07_a.png,stimuli/lamp_light_07_b.png,3,35,155,36,"[1, 0]",left,1,01,35,m,y,n,2019_Jul_12_1221,2AFC_task,59.985051725635984,
stimuli/hdri_bump_09_a.png,stimuli/hdri_bump_09_b.png,3,36,156,8,"[1, 0]",left,1,01,35,m,y,n,2019_Jul_12_1221,2AFC_task,59.985051725635984,
stimuli/lamp_light_05_a.png,stimuli/lamp_light_05_b.png,3,37,157,34,"[1, 0]",left,1,01,35,m,y,n,2019_Jul_12_1221,2AFC_task,59.985051725635984,
stimuli/hdri_bump_01_a.png,stimuli/hdri_bump_01_b.png,3,38,158,0,"[1, 0]",left,1,01,35,m,y,n,2019_Jul_12_1221,2AFC_task,59.985051725635984,
stimuli/hdri_light_06_a.png,stimuli/hdri_light_06_b.png,3,39,159,15,"[1, 0]",right,0,01,35,m,y,n,2019_Jul_12_1221,2AFC_task,59.985051725635984,
stimuli/lamp_light_03_a.png,stimuli/lamp_light_03_b.png,4,0,160,32,"[0, 1]",right,1,01,35,m,y,n,2019_Jul_12_1221,2AFC_task,59.985051725635984,
stimuli/lamp_bump_09_a.png,stimuli/lamp_bump_09_b.png,4,1,161,28,"[1, 0]",left,1,01,35,m,y,n,2019_Jul_12_1221,2AFC_task,59.985051725635984,
stimuli/hdri_light_10_a.png,stimuli/hdri_light_10_b.png,4,2,162,19,"[1, 0]",left,1,01,35,m,y,n,2019_Jul_12_1221,2AFC_task,59.985051725635984,
stimuli/hdri_bump_05_a.png,stimuli/hdri_bump_05_b.png,4,3,163,4,"[0, 1]",right,1,01,35,m,y,n,2019_Jul_12_1221,2AFC_task,59.985051725635984,
stimuli/lamp_bump_03_a.png,stimuli/lamp_bump_03_b.png,4,4,164,22,"[1, 0]",left,1,01,35,m,y,n,2019_Jul_12_1221,2AFC_task,59.985051725635984,
stimuli/hdri_light_09_a.png,stimuli/hdri_light_09_b.png,4,5,165,18,"[0, 1]",left,0,01,35,m,y,n,2019_Jul_12_1221,2AFC_task,59.985051725635984,
stimuli/hdri_light_02_a.png,stimuli/hdri_light_02_b.png,4,6,166,11,"[1, 0]",right,0,01,35,m,y,n,2019_Jul_12_1221,2AFC_task,59.985051725635984,
stimuli/hdri_light_06_a.png,stimuli/hdri_light_06_b.png,4,7,167,15,"[1, 0]",right,0,01,35,m,y,n,2019_Jul_12_1221,2AFC_task,59.985051725635984,
stimuli/lamp_bump_07_a.png,stimuli/lamp_bump_07_b.png,4,8,168,26,"[0, 1]",right,1,01,35,m,y,n,2019_Jul_12_1221,2AFC_task,59.985051725635984,
stimuli/lamp_light_07_a.png,stimuli/lamp_light_07_b.png,4,9,169,36,"[1, 0]",left,1,01,35,m,y,n,2019_Jul_12_1221,2AFC_task,59.985051725635984,
stimuli/lamp_light_05_a.png,stimuli/lamp_light_05_b.png,4,10,170,34,"[1, 0]",left,1,01,35,m,y,n,2019_Jul_12_1221,2AFC_task,59.985051725635984,
stimuli/hdri_light_07_a.png,stimuli/hdri_light_07_b.png,4,11,171,16,"[1, 0]",left,1,01,35,m,y,n,2019_Jul_12_1221,2AFC_task,59.985051725635984,
stimuli/hdri_bump_03_a.png,stimuli/hdri_bump_03_b.png,4,12,172,2,"[1, 0]",left,1,01,35,m,y,n,2019_Jul_12_1221,2AFC_task,59.985051725635984,
stimuli/hdri_light_04_a.png,stimuli/hdri_light_04_b.png,4,13,173,13,"[1, 0]",right,0,01,35,m,y,n,2019_Jul_12_1221,2AFC_task,59.985051725635984,
stimuli/lamp_light_01_a.png,stimuli/lamp_light_01_b.png,4,14,174,30,"[0, 1]",left,0,01,35,m,y,n,2019_Jul_12_1221,2AFC_task,59.985051725635984,
stimuli/lamp_bump_01_a.png,stimuli/lamp_bump_01_b.png,4,15,175,20,"[1, 0]",left,1,01,35,m,y,n,2019_Jul_12_1221,2AFC_task,59.985051725635984,
stimuli/lamp_bump_04_a.png,stimuli/lamp_bump_04_b.png,4,16,176,23,"[0, 1]",right,1,01,35,m,y,n,2019_Jul_12_1221,2AFC_task,59.985051725635984,
stimuli/lamp_light_06_a.png,stimuli/lamp_light_06_b.png,4,17,177,35,"[0, 1]",right,1,01,35,m,y,n,2019_Jul_12_1221,2AFC_task,59.985051725635984,
stimuli/hdri_bump_06_a.png,stimuli/hdri_bump_06_b.png,4,18,178,5,"[1, 0]",left,1,01,35,m,y,n,2019_Jul_12_1221,2AFC_task,59.985051725635984,
stimuli/lamp_light_09_a.png,stimuli/lamp_light_09_b.png,4,19,179,38,"[1, 0]",left,1,01,35,m,y,n,2019_Jul_12_1221,2AFC_task,59.985051725635984,
stimuli/hdri_light_08_a.png,stimuli/hdri_light_08_b.png,4,20,180,17,"[0, 1]",right,1,01,35,m,y,n,2019_Jul_12_1221,2AFC_task,59.985051725635984,
stimuli/hdri_light_01_a.png,stimuli/hdri_light_01_b.png,4,21,181,10,"[0, 1]",left,0,01,35,m,y,n,2019_Jul_12_1221,2AFC_task,59.985051725635984,
stimuli/hdri_bump_07_a.png,stimuli/hdri_bump_07_b.png,4,22,182,6,"[0, 1]",right,1,01,35,m,y,n,2019_Jul_12_1221,2AFC_task,59.985051725635984,
stimuli/lamp_bump_02_a.png,stimuli/lamp_bump_02_b.png,4,23,183,21,"[1, 0]",left,1,01,35,m,y,n,2019_Jul_12_1221,2AFC_task,59.985051725635984,
stimuli/hdri_bump_08_a.png,stimuli/hdri_bump_08_b.png,4,24,184,7,"[0, 1]",right,1,01,35,m,y,n,2019_Jul_12_1221,2AFC_task,59.985051725635984,
stimuli/lamp_bump_06_a.png,stimuli/lamp_bump_06_b.png,4,25,185,25,"[0, 1]",right,1,01,35,m,y,n,2019_Jul_12_1221,2AFC_task,59.985051725635984,
stimuli/hdri_light_05_a.png,stimuli/hdri_light_05_b.png,4,26,186,14,"[1, 0]",right,0,01,35,m,y,n,2019_Jul_12_1221,2AFC_task,59.985051725635984,
stimuli/hdri_bump_10_a.png,stimuli/hdri_bump_10_b.png,4,27,187,9,"[0, 1]",right,1,01,35,m,y,n,2019_Jul_12_1221,2AFC_task,59.985051725635984,
stimuli/lamp_bump_05_a.png,stimuli/lamp_bump_05_b.png,4,28,188,24,"[0, 1]",right,1,01,35,m,y,n,2019_Jul_12_1221,2AFC_task,59.985051725635984,
stimuli/lamp_light_08_a.png,stimuli/lamp_light_08_b.png,4,29,189,37,"[0, 1]",right,1,01,35,m,y,n,2019_Jul_12_1221,2AFC_task,59.985051725635984,
stimuli/hdri_light_03_a.png,stimuli/hdri_light_03_b.png,4,30,190,12,"[1, 0]",right,0,01,35,m,y,n,2019_Jul_12_1221,2AFC_task,59.985051725635984,
stimuli/lamp_bump_10_a.png,stimuli/lamp_bump_10_b.png,4,31,191,29,"[0, 1]",right,1,01,35,m,y,n,2019_Jul_12_1221,2AFC_task,59.985051725635984,
stimuli/lamp_light_02_a.png,stimuli/lamp_light_02_b.png,4,32,192,31,"[0, 1]",left,0,01,35,m,y,n,2019_Jul_12_1221,2AFC_task,59.985051725635984,
stimuli/hdri_bump_02_a.png,stimuli/hdri_bump_02_b.png,4,33,193,1,"[0, 1]",right,1,01,35,m,y,n,2019_Jul_12_1221,2AFC_task,59.985051725635984,
stimuli/hdri_bump_04_a.png,stimuli/hdri_bump_04_b.png,4,34,194,3,"[0, 1]",right,1,01,35,m,y,n,2019_Jul_12_1221,2AFC_task,59.985051725635984,
stimuli/lamp_light_10_a.png,stimuli/lamp_light_10_b.png,4,35,195,39,"[1, 0]",left,1,01,35,m,y,n,2019_Jul_12_1221,2AFC_task,59.985051725635984,
stimuli/lamp_bump_08_a.png,stimuli/lamp_bump_08_b.png,4,36,196,27,"[0, 1]",right,1,01,35,m,y,n,2019_Jul_12_1221,2AFC_task,59.985051725635984,
stimuli/hdri_bump_01_a.png,stimuli/hdri_bump_01_b.png,4,37,197,0,"[0, 1]",right,1,01,35,m,y,n,2019_Jul_12_1221,2AFC_task,59.985051725635984,
stimuli/hdri_bump_09_a.png,stimuli/hdri_bump_09_b.png,4,38,198,8,"[0, 1]",right,1,01,35,m,y,n,2019_Jul_12_1221,2AFC_task,59.985051725635984,
stimuli/lamp_light_04_a.png,stimuli/lamp_light_04_b.png,4,39,199,33,"[0, 1]",left,0,01,35,m,y,n,2019_Jul_12_1221,2AFC_task,59.985051725635984,
stimuli/hdri_bump_09_a.png,stimuli/hdri_bump_09_b.png,5,0,200,8,"[0, 1]",right,1,01,35,m,y,n,2019_Jul_12_1221,2AFC_task,59.985051725635984,
stimuli/lamp_light_08_a.png,stimuli/lamp_light_08_b.png,5,1,201,37,"[1, 0]",left,1,01,35,m,y,n,2019_Jul_12_1221,2AFC_task,59.985051725635984,
stimuli/lamp_light_02_a.png,stimuli/lamp_light_02_b.png,5,2,202,31,"[0, 1]",left,0,01,35,m,y,n,2019_Jul_12_1221,2AFC_task,59.985051725635984,
stimuli/lamp_bump_02_a.png,stimuli/lamp_bump_02_b.png,5,3,203,21,"[0, 1]",right,1,01,35,m,y,n,2019_Jul_12_1221,2AFC_task,59.985051725635984,
stimuli/lamp_bump_06_a.png,stimuli/lamp_bump_06_b.png,5,4,204,25,"[0, 1]",right,1,01,35,m,y,n,2019_Jul_12_1221,2AFC_task,59.985051725635984,
stimuli/hdri_bump_01_a.png,stimuli/hdri_bump_01_b.png,5,5,205,0,"[1, 0]",left,1,01,35,m,y,n,2019_Jul_12_1221,2AFC_task,59.985051725635984,
stimuli/lamp_light_05_a.png,stimuli/lamp_light_05_b.png,5,6,206,34,"[1, 0]",right,0,01,35,m,y,n,2019_Jul_12_1221,2AFC_task,59.985051725635984,
stimuli/lamp_bump_03_a.png,stimuli/lamp_bump_03_b.png,5,7,207,22,"[1, 0]",left,1,01,35,m,y,n,2019_Jul_12_1221,2AFC_task,59.985051725635984,
stimuli/lamp_light_04_a.png,stimuli/lamp_light_04_b.png,5,8,208,33,"[0, 1]",left,0,01,35,m,y,n,2019_Jul_12_1221,2AFC_task,59.985051725635984,
stimuli/hdri_light_09_a.png,stimuli/hdri_light_09_b.png,5,9,209,18,"[0, 1]",left,0,01,35,m,y,n,2019_Jul_12_1221,2AFC_task,59.985051725635984,
stimuli/lamp_bump_10_a.png,stimuli/lamp_bump_10_b.png,5,10,210,29,"[0, 1]",right,1,01,35,m,y,n,2019_Jul_12_1221,2AFC_task,59.985051725635984,
stimuli/hdri_bump_06_a.png,stimuli/hdri_bump_06_b.png,5,11,211,5,"[1, 0]",left,1,01,35,m,y,n,2019_Jul_12_1221,2AFC_task,59.985051725635984,
stimuli/lamp_bump_07_a.png,stimuli/lamp_bump_07_b.png,5,12,212,26,"[0, 1]",right,1,01,35,m,y,n,2019_Jul_12_1221,2AFC_task,59.985051725635984,
stimuli/hdri_light_03_a.png,stimuli/hdri_light_03_b.png,5,13,213,12,"[1, 0]",right,0,01,35,m,y,n,2019_Jul_12_1221,2AFC_task,59.985051725635984,
stimuli/hdri_light_04_a.png,stimuli/hdri_light_04_b.png,5,14,214,13,"[1, 0]",right,0,01,35,m,y,n,2019_Jul_12_1221,2AFC_task,59.985051725635984,
stimuli/hdri_light_01_a.png,stimuli/hdri_light_01_b.png,5,15,215,10,"[1, 0]",right,0,01,35,m,y,n,2019_Jul_12_1221,2AFC_task,59.985051725635984,
stimuli/lamp_light_06_a.png,stimuli/lamp_light_06_b.png,5,16,216,35,"[1, 0]",left,1,01,35,m,y,n,2019_Jul_12_1221,2AFC_task,59.985051725635984,
stimuli/lamp_bump_01_a.png,stimuli/lamp_bump_01_b.png,5,17,217,20,"[1, 0]",left,1,01,35,m,y,n,2019_Jul_12_1221,2AFC_task,59.985051725635984,
stimuli/hdri_light_06_a.png,stimuli/hdri_light_06_b.png,5,18,218,15,"[0, 1]",left,0,01,35,m,y,n,2019_Jul_12_1221,2AFC_task,59.985051725635984,
stimuli/hdri_bump_07_a.png,stimuli/hdri_bump_07_b.png,5,19,219,6,"[1, 0]",left,1,01,35,m,y,n,2019_Jul_12_1221,2AFC_task,59.985051725635984,
stimuli/hdri_bump_08_a.png,stimuli/hdri_bump_08_b.png,5,20,220,7,"[0, 1]",right,1,01,35,m,y,n,2019_Jul_12_1221,2AFC_task,59.985051725635984,
stimuli/hdri_light_08_a.png,stimuli/hdri_light_08_b.png,5,21,221,17,"[1, 0]",left,1,01,35,m,y,n,2019_Jul_12_1221,2AFC_task,59.985051725635984,
stimuli/lamp_light_09_a.png,stimuli/lamp_light_09_b.png,5,22,222,38,"[0, 1]",right,1,01,35,m,y,n,2019_Jul_12_1221,2AFC_task,59.985051725635984,
stimuli/lamp_light_01_a.png,stimuli/lamp_light_01_b.png,5,23,223,30,"[1, 0]",right,0,01,35,m,y,n,2019_Jul_12_1221,2AFC_task,59.985051725635984,
stimuli/hdri_bump_10_a.png,stimuli/hdri_bump_10_b.png,5,24,224,9,"[0, 1]",right,1,01,35,m,y,n,2019_Jul_12_1221,2AFC_task,59.985051725635984,
stimuli/lamp_bump_04_a.png,stimuli/lamp_bump_04_b.png,5,25,225,23,"[0, 1]",right,1,01,35,m,y,n,2019_Jul_12_1221,2AFC_task,59.985051725635984,
stimuli/lamp_bump_08_a.png,stimuli/lamp_bump_08_b.png,5,26,226,27,"[1, 0]",left,1,01,35,m,y,n,2019_Jul_12_1221,2AFC_task,59.985051725635984,
stimuli/hdri_light_07_a.png,stimuli/hdri_light_07_b.png,5,27,227,16,"[1, 0]",left,1,01,35,m,y,n,2019_Jul_12_1221,2AFC_task,59.985051725635984,
stimuli/hdri_light_02_a.png,stimuli/hdri_light_02_b.png,5,28,228,11,"[1, 0]",right,0,01,35,m,y,n,2019_Jul_12_1221,2AFC_task,59.985051725635984,
stimuli/lamp_bump_05_a.png,stimuli/lamp_bump_05_b.png,5,29,229,24,"[1, 0]",left,1,01,35,m,y,n,2019_Jul_12_1221,2AFC_task,59.985051725635984,
stimuli/hdri_bump_04_a.png,stimuli/hdri_bump_04_b.png,5,30,230,3,"[1, 0]",left,1,01,35,m,y,n,2019_Jul_12_1221,2AFC_task,59.985051725635984,
stimuli/lamp_light_07_a.png,stimuli/lamp_light_07_b.png,5,31,231,36,"[0, 1]",left,0,01,35,m,y,n,2019_Jul_12_1221,2AFC_task,59.985051725635984,
stimuli/hdri_bump_03_a.png,stimuli/hdri_bump_03_b.png,5,32,232,2,"[0, 1]",right,1,01,35,m,y,n,2019_Jul_12_1221,2AFC_task,59.985051725635984,
stimuli/lamp_light_10_a.png,stimuli/lamp_light_10_b.png,5,33,233,39,"[1, 0]",left,1,01,35,m,y,n,2019_Jul_12_1221,2AFC_task,59.985051725635984,
stimuli/lamp_light_03_a.png,stimuli/lamp_light_03_b.png,5,34,234,32,"[1, 0]",right,0,01,35,m,y,n,2019_Jul_12_1221,2AFC_task,59.985051725635984,
stimuli/hdri_bump_02_a.png,stimuli/hdri_bump_02_b.png,5,35,235,1,"[0, 1]",right,1,01,35,m,y,n,2019_Jul_12_1221,2AFC_task,59.985051725635984,
stimuli/hdri_light_05_a.png,stimuli/hdri_light_05_b.png,5,36,236,14,"[0, 1]",left,0,01,35,m,y,n,2019_Jul_12_1221,2AFC_task,59.985051725635984,
stimuli/lamp_bump_09_a.png,stimuli/lamp_bump_09_b.png,5,37,237,28,"[1, 0]",left,1,01,35,m,y,n,2019_Jul_12_1221,2AFC_task,59.985051725635984,
stimuli/hdri_bump_05_a.png,stimuli/hdri_bump_05_b.png,5,38,238,4,"[1, 0]",left,1,01,35,m,y,n,2019_Jul_12_1221,2AFC_task,59.985051725635984,
stimuli/hdri_light_10_a.png,stimuli/hdri_light_10_b.png,5,39,239,19,"[0, 1]",right,1,01,35,m,y,n,2019_Jul_12_1221,2AFC_task,59.985051725635984,
stimuli/hdri_bump_02_a.png,stimuli/hdri_bump_02_b.png,6,0,240,1,"[0, 1]",right,1,01,35,m,y,n,2019_Jul_12_1221,2AFC_task,59.985051725635984,
stimuli/hdri_bump_05_a.png,stimuli/hdri_bump_05_b.png,6,1,241,4,"[0, 1]",right,1,01,35,m,y,n,2019_Jul_12_1221,2AFC_task,59.985051725635984,
stimuli/hdri_light_01_a.png,stimuli/hdri_light_01_b.png,6,2,242,10,"[0, 1]",left,0,01,35,m,y,n,2019_Jul_12_1221,2AFC_task,59.985051725635984,
stimuli/hdri_light_10_a.png,stimuli/hdri_light_10_b.png,6,3,243,19,"[0, 1]",right,1,01,35,m,y,n,2019_Jul_12_1221,2AFC_task,59.985051725635984,
stimuli/hdri_light_07_a.png,stimuli/hdri_light_07_b.png,6,4,244,16,"[0, 1]",right,1,01,35,m,y,n,2019_Jul_12_1221,2AFC_task,59.985051725635984,
stimuli/lamp_light_03_a.png,stimuli/lamp_light_03_b.png,6,5,245,32,"[1, 0]",right,0,01,35,m,y,n,2019_Jul_12_1221,2AFC_task,59.985051725635984,
stimuli/hdri_light_06_a.png,stimuli/hdri_light_06_b.png,6,6,246,15,"[0, 1]",right,1,01,35,m,y,n,2019_Jul_12_1221,2AFC_task,59.985051725635984,
stimuli/hdri_light_09_a.png,stimuli/hdri_light_09_b.png,6,7,247,18,"[1, 0]",right,0,01,35,m,y,n,2019_Jul_12_1221,2AFC_task,59.985051725635984,
stimuli/lamp_bump_04_a.png,stimuli/lamp_bump_04_b.png,6,8,248,23,"[1, 0]",left,1,01,35,m,y,n,2019_Jul_12_1221,2AFC_task,59.985051725635984,
stimuli/lamp_bump_03_a.png,stimuli/lamp_bump_03_b.png,6,9,249,22,"[0, 1]",right,1,01,35,m,y,n,2019_Jul_12_1221,2AFC_task,59.985051725635984,
stimuli/lamp_bump_05_a.png,stimuli/lamp_bump_05_b.png,6,10,250,24,"[0, 1]",right,1,01,35,m,y,n,2019_Jul_12_1221,2AFC_task,59.985051725635984,
stimuli/lamp_light_04_a.png,stimuli/lamp_light_04_b.png,6,11,251,33,"[1, 0]",right,0,01,35,m,y,n,2019_Jul_12_1221,2AFC_task,59.985051725635984,
stimuli/hdri_bump_09_a.png,stimuli/hdri_bump_09_b.png,6,12,252,8,"[1, 0]",left,1,01,35,m,y,n,2019_Jul_12_1221,2AFC_task,59.985051725635984,
stimuli/hdri_bump_06_a.png,stimuli/hdri_bump_06_b.png,6,13,253,5,"[0, 1]",right,1,01,35,m,y,n,2019_Jul_12_1221,2AFC_task,59.985051725635984,
stimuli/lamp_light_05_a.png,stimuli/lamp_light_05_b.png,6,14,254,34,"[1, 0]",right,0,01,35,m,y,n,2019_Jul_12_1221,2AFC_task,59.985051725635984,
stimuli/hdri_light_03_a.png,stimuli/hdri_light_03_b.png,6,15,255,12,"[1, 0]",right,0,01,35,m,y,n,2019_Jul_12_1221,2AFC_task,59.985051725635984,
stimuli/lamp_bump_01_a.png,stimuli/lamp_bump_01_b.png,6,16,256,20,"[0, 1]",right,1,01,35,m,y,n,2019_Jul_12_1221,2AFC_task,59.985051725635984,
stimuli/lamp_bump_08_a.png,stimuli/lamp_bump_08_b.png,6,17,257,27,"[0, 1]",right,1,01,35,m,y,n,2019_Jul_12_1221,2AFC_task,59.985051725635984,
stimuli/lamp_light_02_a.png,stimuli/lamp_light_02_b.png,6,18,258,31,"[1, 0]",right,0,01,35,m,y,n,2019_Jul_12_1221,2AFC_task,59.985051725635984,
stimuli/lamp_bump_07_a.png,stimuli/lamp_bump_07_b.png,6,19,259,26,"[1, 0]",left,1,01,35,m,y,n,2019_Jul_12_1221,2AFC_task,59.985051725635984,
stimuli/hdri_light_08_a.png,stimuli/hdri_light_08_b.png,6,20,260,17,"[0, 1]",right,1,01,35,m,y,n,2019_Jul_12_1221,2AFC_task,59.985051725635984,
stimuli/lamp_bump_10_a.png,stimuli/lamp_bump_10_b.png,6,21,261,29,"[0, 1]",right,1,01,35,m,y,n,2019_Jul_12_1221,2AFC_task,59.985051725635984,
stimuli/hdri_bump_07_a.png,stimuli/hdri_bump_07_b.png,6,22,262,6,"[1, 0]",left,1,01,35,m,y,n,2019_Jul_12_1221,2AFC_task,59.985051725635984,
stimuli/lamp_bump_09_a.png,stimuli/lamp_bump_09_b.png,6,23,263,28,"[0, 1]",right,1,01,35,m,y,n,2019_Jul_12_1221,2AFC_task,59.985051725635984,
stimuli/hdri_light_04_a.png,stimuli/hdri_light_04_b.png,6,24,264,13,"[0, 1]",left,0,01,35,m,y,n,2019_Jul_12_1221,2AFC_task,59.985051725635984,
stimuli/lamp_bump_02_a.png,stimuli/lamp_bump_02_b.png,6,25,265,21,"[0, 1]",right,1,01,35,m,y,n,2019_Jul_12_1221,2AFC_task,59.985051725635984,
stimuli/lamp_light_08_a.png,stimuli/lamp_light_08_b.png,6,26,266,37,"[0, 1]",right,1,01,35,m,y,n,2019_Jul_12_1221,2AFC_task,59.985051725635984,
stimuli/lamp_bump_06_a.png,stimuli/lamp_bump_06_b.png,6,27,267,25,"[0, 1]",right,1,01,35,m,y,n,2019_Jul_12_1221,2AFC_task,59.985051725635984,
stimuli/hdri_bump_01_a.png,stimuli/hdri_bump_01_b.png,6,28,268,0,"[0, 1]",right,1,01,35,m,y,n,2019_Jul_12_1221,2AFC_task,59.985051725635984,
stimuli/hdri_light_02_a.png,stimuli/hdri_light_02_b.png,6,29,269,11,"[0, 1]",left,0,01,35,m,y,n,2019_Jul_12_1221,2AFC_task,59.985051725635984,
stimuli/hdri_bump_10_a.png,stimuli/hdri_bump_10_b.png,6,30,270,9,"[1, 0]",left,1,01,35,m,y,n,2019_Jul_12_1221,2AFC_task,59.985051725635984,
stimuli/hdri_bump_08_a.png,stimuli/hdri_bump_08_b.png,6,31,271,7,"[1, 0]",left,1,01,35,m,y,n,2019_Jul_12_1221,2AFC_task,59.985051725635984,
stimuli/lamp_light_07_a.png,stimuli/lamp_light_07_b.png,6,32,272,36,"[1, 0]",right,0,01,35,m,y,n,2019_Jul_12_1221,2AFC_task,59.985051725635984,
stimuli/hdri_bump_04_a.png,stimuli/hdri_bump_04_b.png,6,33,273,3,"[0, 1]",right,1,01,35,m,y,n,2019_Jul_12_1221,2AFC_task,59.985051725635984,
stimuli/lamp_light_01_a.png,stimuli/lamp_light_01_b.png,6,34,274,30,"[1, 0]",right,0,01,35,m,y,n,2019_Jul_12_1221,2AFC_task,59.985051725635984,
stimuli/lamp_light_06_a.png,stimuli/lamp_light_06_b.png,6,35,275,35,"[1, 0]",left,1,01,35,m,y,n,2019_Jul_12_1221,2AFC_task,59.985051725635984,
stimuli/hdri_light_05_a.png,stimuli/hdri_light_05_b.png,6,36,276,14,"[0, 1]",left,0,01,35,m,y,n,2019_Jul_12_1221,2AFC_task,59.985051725635984,
stimuli/lamp_light_10_a.png,stimuli/lamp_light_10_b.png,6,37,277,39,"[1, 0]",left,1,01,35,m,y,n,2019_Jul_12_1221,2AFC_task,59.985051725635984,
stimuli/hdri_bump_03_a.png,stimuli/hdri_bump_03_b.png,6,38,278,2,"[1, 0]",left,1,01,35,m,y,n,2019_Jul_12_1221,2AFC_task,59.985051725635984,
stimuli/lamp_light_09_a.png,stimuli/lamp_light_09_b.png,6,39,279,38,"[1, 0]",left,1,01,35,m,y,n,2019_Jul_12_1221,2AFC_task,59.985051725635984,
stimuli/lamp_bump_01_a.png,stimuli/lamp_bump_01_b.png,7,0,280,20,"[1, 0]",left,1,01,35,m,y,n,2019_Jul_12_1221,2AFC_task,59.985051725635984,
stimuli/hdri_bump_10_a.png,stimuli/hdri_bump_10_b.png,7,1,281,9,"[1, 0]",left,1,01,35,m,y,n,2019_Jul_12_1221,2AFC_task,59.985051725635984,
stimuli/lamp_bump_06_a.png,stimuli/lamp_bump_06_b.png,7,2,282,25,"[1, 0]",left,1,01,35,m,y,n,2019_Jul_12_1221,2AFC_task,59.985051725635984,
stimuli/hdri_light_05_a.png,stimuli/hdri_light_05_b.png,7,3,283,14,"[0, 1]",left,0,01,35,m,y,n,2019_Jul_12_1221,2AFC_task,59.985051725635984,
stimuli/hdri_light_08_a.png,stimuli/hdri_light_08_b.png,7,4,284,17,"[1, 0]",left,1,01,35,m,y,n,2019_Jul_12_1221,2AFC_task,59.985051725635984,
stimuli/lamp_bump_09_a.png,stimuli/lamp_bump_09_b.png,7,5,285,28,"[1, 0]",left,1,01,35,m,y,n,2019_Jul_12_1221,2AFC_task,59.985051725635984,
stimuli/hdri_light_07_a.png,stimuli/hdri_light_07_b.png,7,6,286,16,"[0, 1]",right,1,01,35,m,y,n,2019_Jul_12_1221,2AFC_task,59.985051725635984,
stimuli/lamp_light_06_a.png,stimuli/lamp_light_06_b.png,7,7,287,35,"[0, 1]",right,1,01,35,m,y,n,2019_Jul_12_1221,2AFC_task,59.985051725635984,
stimuli/lamp_light_09_a.png,stimuli/lamp_light_09_b.png,7,8,288,38,"[1, 0]",left,1,01,35,m,y,n,2019_Jul_12_1221,2AFC_task,59.985051725635984,
stimuli/lamp_light_04_a.png,stimuli/lamp_light_04_b.png,7,9,289,33,"[0, 1]",left,0,01,35,m,y,n,2019_Jul_12_1221,2AFC_task,59.985051725635984,
stimuli/hdri_bump_04_a.png,stimuli/hdri_bump_04_b.png,7,10,290,3,"[0, 1]",right,1,01,35,m,y,n,2019_Jul_12_1221,2AFC_task,59.985051725635984,
stimuli/hdri_light_10_a.png,stimuli/hdri_light_10_b.png,7,11,291,19,"[0, 1]",right,1,01,35,m,y,n,2019_Jul_12_1221,2AFC_task,59.985051725635984,
stimuli/hdri_bump_03_a.png,stimuli/hdri_bump_03_b.png,7,12,292,2,"[0, 1]",right,1,01,35,m,y,n,2019_Jul_12_1221,2AFC_task,59.985051725635984,
stimuli/hdri_bump_05_a.png,stimuli/hdri_bump_05_b.png,7,13,293,4,"[1, 0]",left,1,01,35,m,y,n,2019_Jul_12_1221,2AFC_task,59.985051725635984,
stimuli/lamp_bump_08_a.png,stimuli/lamp_bump_08_b.png,7,14,294,27,"[0, 1]",right,1,01,35,m,y,n,2019_Jul_12_1221,2AFC_task,59.985051725635984,
stimuli/lamp_light_01_a.png,stimuli/lamp_light_01_b.png,7,15,295,30,"[1, 0]",left,1,01,35,m,y,n,2019_Jul_12_1221,2AFC_task,59.985051725635984,
stimuli/hdri_light_02_a.png,stimuli/hdri_light_02_b.png,7,16,296,11,"[0, 1]",left,0,01,35,m,y,n,2019_Jul_12_1221,2AFC_task,59.985051725635984,
stimuli/lamp_light_03_a.png,stimuli/lamp_light_03_b.png,7,17,297,32,"[1, 0]",right,0,01,35,m,y,n,2019_Jul_12_1221,2AFC_task,59.985051725635984,
stimuli/lamp_bump_10_a.png,stimuli/lamp_bump_10_b.png,7,18,298,29,"[1, 0]",left,1,01,35,m,y,n,2019_Jul_12_1221,2AFC_task,59.985051725635984,
stimuli/hdri_light_04_a.png,stimuli/hdri_light_04_b.png,7,19,299,13,"[1, 0]",right,0,01,35,m,y,n,2019_Jul_12_1221,2AFC_task,59.985051725635984,
stimuli/lamp_light_05_a.png,stimuli/lamp_light_05_b.png,7,20,300,34,"[1, 0]",left,1,01,35,m,y,n,2019_Jul_12_1221,2AFC_task,59.985051725635984,
stimuli/hdri_bump_09_a.png,stimuli/hdri_bump_09_b.png,7,21,301,8,"[0, 1]",right,1,01,35,m,y,n,2019_Jul_12_1221,2AFC_task,59.985051725635984,
stimuli/hdri_bump_08_a.png,stimuli/hdri_bump_08_b.png,7,22,302,7,"[0, 1]",right,1,01,35,m,y,n,2019_Jul_12_1221,2AFC_task,59.985051725635984,
stimuli/hdri_bump_06_a.png,stimuli/hdri_bump_06_b.png,7,23,303,5,"[0, 1]",right,1,01,35,m,y,n,2019_Jul_12_1221,2AFC_task,59.985051725635984,
stimuli/hdri_light_06_a.png,stimuli/hdri_light_06_b.png,7,24,304,15,"[0, 1]",left,0,01,35,m,y,n,2019_Jul_12_1221,2AFC_task,59.985051725635984,
stimuli/lamp_light_10_a.png,stimuli/lamp_light_10_b.png,7,25,305,39,"[1, 0]",left,1,01,35,m,y,n,2019_Jul_12_1221,2AFC_task,59.985051725635984,
stimuli/lamp_light_02_a.png,stimuli/lamp_light_02_b.png,7,26,306,31,"[0, 1]",left,0,01,35,m,y,n,2019_Jul_12_1221,2AFC_task,59.985051725635984,
stimuli/hdri_bump_01_a.png,stimuli/hdri_bump_01_b.png,7,27,307,0,"[0, 1]",right,1,01,35,m,y,n,2019_Jul_12_1221,2AFC_task,59.985051725635984,
stimuli/lamp_bump_05_a.png,stimuli/lamp_bump_05_b.png,7,28,308,24,"[1, 0]",left,1,01,35,m,y,n,2019_Jul_12_1221,2AFC_task,59.985051725635984,
stimuli/hdri_bump_02_a.png,stimuli/hdri_bump_02_b.png,7,29,309,1,"[0, 1]",right,1,01,35,m,y,n,2019_Jul_12_1221,2AFC_task,59.985051725635984,
stimuli/lamp_bump_02_a.png,stimuli/lamp_bump_02_b.png,7,30,310,21,"[1, 0]",left,1,01,35,m,y,n,2019_Jul_12_1221,2AFC_task,59.985051725635984,
stimuli/hdri_light_03_a.png,stimuli/hdri_light_03_b.png,7,31,311,12,"[0, 1]",left,0,01,35,m,y,n,2019_Jul_12_1221,2AFC_task,59.985051725635984,
stimuli/hdri_light_01_a.png,stimuli/hdri_light_01_b.png,7,32,312,10,"[1, 0]",right,0,01,35,m,y,n,2019_Jul_12_1221,2AFC_task,59.985051725635984,
stimuli/hdri_bump_07_a.png,stimuli/hdri_bump_07_b.png,7,33,313,6,"[1, 0]",left,1,01,35,m,y,n,2019_Jul_12_1221,2AFC_task,59.985051725635984,
stimuli/lamp_bump_07_a.png,stimuli/lamp_bump_07_b.png,7,34,314,26,"[0, 1]",right,1,01,35,m,y,n,2019_Jul_12_1221,2AFC_task,59.985051725635984,
stimuli/lamp_bump_03_a.png,stimuli/lamp_bump_03_b.png,7,35,315,22,"[0, 1]",right,1,01,35,m,y,n,2019_Jul_12_1221,2AFC_task,59.985051725635984,
stimuli/lamp_light_07_a.png,stimuli/lamp_light_07_b.png,7,36,316,36,"[0, 1]",right,1,01,35,m,y,n,2019_Jul_12_1221,2AFC_task,59.985051725635984,
stimuli/lamp_light_08_a.png,stimuli/lamp_light_08_b.png,7,37,317,37,"[0, 1]",right,1,01,35,m,y,n,2019_Jul_12_1221,2AFC_task,59.985051725635984,
stimuli/lamp_bump_04_a.png,stimuli/lamp_bump_04_b.png,7,38,318,23,"[0, 1]",right,1,01,35,m,y,n,2019_Jul_12_1221,2AFC_task,59.985051725635984,
stimuli/hdri_light_09_a.png,stimuli/hdri_light_09_b.png,7,39,319,18,"[1, 0]",right,0,01,35,m,y,n,2019_Jul_12_1221,2AFC_task,59.985051725635984,
