stimOne,stimTwo,trials_1.thisRepN,trials_1.thisTrialN,trials_1.thisN,trials_1.thisIndex,presentation_positions,resp_key,corresponding_image,participant ID (two digits, e.g. 01),age,gender (m/f/-),normal or corrected-to-normal vision (y/n),normal colour vision (y/n),date,expName,frameRate,
stimuli/hdri_bump_10_a.png,stimuli/hdri_bump_10_b.png,0,0,0,9,"[1, 0]",left,1,11,22,f,y,y,2019_Jul_11_1000,2AFC_task,59.9020481224083,
stimuli/hdri_light_01_a.png,stimuli/hdri_light_01_b.png,0,1,1,10,"[0, 1]",left,0,11,22,f,y,y,2019_Jul_11_1000,2AFC_task,59.9020481224083,
stimuli/lamp_light_03_a.png,stimuli/lamp_light_03_b.png,0,2,2,32,"[1, 0]",left,1,11,22,f,y,y,2019_Jul_11_1000,2AFC_task,59.9020481224083,
stimuli/lamp_bump_05_a.png,stimuli/lamp_bump_05_b.png,0,3,3,24,"[0, 1]",right,1,11,22,f,y,y,2019_Jul_11_1000,2AFC_task,59.9020481224083,
stimuli/lamp_bump_08_a.png,stimuli/lamp_bump_08_b.png,0,4,4,27,"[1, 0]",left,1,11,22,f,y,y,2019_Jul_11_1000,2AFC_task,59.9020481224083,
stimuli/lamp_light_02_a.png,stimuli/lamp_light_02_b.png,0,5,5,31,"[0, 1]",right,1,11,22,f,y,y,2019_Jul_11_1000,2AFC_task,59.9020481224083,
stimuli/lamp_light_05_a.png,stimuli/lamp_light_05_b.png,0,6,6,34,"[0, 1]",right,1,11,22,f,y,y,2019_Jul_11_1000,2AFC_task,59.9020481224083,
stimuli/hdri_light_10_a.png,stimuli/hdri_light_10_b.png,0,7,7,19,"[0, 1]",right,1,11,22,f,y,y,2019_Jul_11_1000,2AFC_task,59.9020481224083,
stimuli/hdri_bump_07_a.png,stimuli/hdri_bump_07_b.png,0,8,8,6,"[0, 1]",left,0,11,22,f,y,y,2019_Jul_11_1000,2AFC_task,59.9020481224083,
stimuli/lamp_bump_02_a.png,stimuli/lamp_bump_02_b.png,0,9,9,21,"[0, 1]",left,0,11,22,f,y,y,2019_Jul_11_1000,2AFC_task,59.9020481224083,
stimuli/hdri_light_03_a.png,stimuli/hdri_light_03_b.png,0,10,10,12,"[0, 1]",left,0,11,22,f,y,y,2019_Jul_11_1000,2AFC_task,59.9020481224083,
stimuli/hdri_bump_08_a.png,stimuli/hdri_bump_08_b.png,0,11,11,7,"[0, 1]",right,1,11,22,f,y,y,2019_Jul_11_1000,2AFC_task,59.9020481224083,
stimuli/hdri_light_06_a.png,stimuli/hdri_light_06_b.png,0,12,12,15,"[0, 1]",left,0,11,22,f,y,y,2019_Jul_11_1000,2AFC_task,59.9020481224083,
stimuli/lamp_light_10_a.png,stimuli/lamp_light_10_b.png,0,13,13,39,"[0, 1]",right,1,11,22,f,y,y,2019_Jul_11_1000,2AFC_task,59.9020481224083,
stimuli/lamp_bump_07_a.png,stimuli/lamp_bump_07_b.png,0,14,14,26,"[0, 1]",left,0,11,22,f,y,y,2019_Jul_11_1000,2AFC_task,59.9020481224083,
stimuli/hdri_light_09_a.png,stimuli/hdri_light_09_b.png,0,15,15,18,"[0, 1]",left,0,11,22,f,y,y,2019_Jul_11_1000,2AFC_task,59.9020481224083,
stimuli/hdri_light_05_a.png,stimuli/hdri_light_05_b.png,0,16,16,14,"[1, 0]",right,0,11,22,f,y,y,2019_Jul_11_1000,2AFC_task,59.9020481224083,
stimuli/hdri_bump_01_a.png,stimuli/hdri_bump_01_b.png,0,17,17,0,"[0, 1]",right,1,11,22,f,y,y,2019_Jul_11_1000,2AFC_task,59.9020481224083,
stimuli/hdri_light_08_a.png,stimuli/hdri_light_08_b.png,0,18,18,17,"[0, 1]",right,1,11,22,f,y,y,2019_Jul_11_1000,2AFC_task,59.9020481224083,
stimuli/hdri_light_02_a.png,stimuli/hdri_light_02_b.png,0,19,19,11,"[1, 0]",right,0,11,22,f,y,y,2019_Jul_11_1000,2AFC_task,59.9020481224083,
stimuli/hdri_light_04_a.png,stimuli/hdri_light_04_b.png,0,20,20,13,"[1, 0]",right,0,11,22,f,y,y,2019_Jul_11_1000,2AFC_task,59.9020481224083,
stimuli/lamp_bump_01_a.png,stimuli/lamp_bump_01_b.png,0,21,21,20,"[1, 0]",right,0,11,22,f,y,y,2019_Jul_11_1000,2AFC_task,59.9020481224083,
stimuli/lamp_light_09_a.png,stimuli/lamp_light_09_b.png,0,22,22,38,"[1, 0]",left,1,11,22,f,y,y,2019_Jul_11_1000,2AFC_task,59.9020481224083,
stimuli/lamp_light_01_a.png,stimuli/lamp_light_01_b.png,0,23,23,30,"[1, 0]",left,1,11,22,f,y,y,2019_Jul_11_1000,2AFC_task,59.9020481224083,
stimuli/lamp_light_04_a.png,stimuli/lamp_light_04_b.png,0,24,24,33,"[1, 0]",left,1,11,22,f,y,y,2019_Jul_11_1000,2AFC_task,59.9020481224083,
stimuli/hdri_light_07_a.png,stimuli/hdri_light_07_b.png,0,25,25,16,"[0, 1]",right,1,11,22,f,y,y,2019_Jul_11_1000,2AFC_task,59.9020481224083,
stimuli/lamp_light_07_a.png,stimuli/lamp_light_07_b.png,0,26,26,36,"[0, 1]",right,1,11,22,f,y,y,2019_Jul_11_1000,2AFC_task,59.9020481224083,
stimuli/lamp_bump_03_a.png,stimuli/lamp_bump_03_b.png,0,27,27,22,"[1, 0]",left,1,11,22,f,y,y,2019_Jul_11_1000,2AFC_task,59.9020481224083,
stimuli/hdri_bump_02_a.png,stimuli/hdri_bump_02_b.png,0,28,28,1,"[0, 1]",right,1,11,22,f,y,y,2019_Jul_11_1000,2AFC_task,59.9020481224083,
stimuli/lamp_light_06_a.png,stimuli/lamp_light_06_b.png,0,29,29,35,"[1, 0]",left,1,11,22,f,y,y,2019_Jul_11_1000,2AFC_task,59.9020481224083,
stimuli/lamp_bump_09_a.png,stimuli/lamp_bump_09_b.png,0,30,30,28,"[1, 0]",left,1,11,22,f,y,y,2019_Jul_11_1000,2AFC_task,59.9020481224083,
stimuli/lamp_bump_04_a.png,stimuli/lamp_bump_04_b.png,0,31,31,23,"[0, 1]",right,1,11,22,f,y,y,2019_Jul_11_1000,2AFC_task,59.9020481224083,
stimuli/lamp_light_08_a.png,stimuli/lamp_light_08_b.png,0,32,32,37,"[0, 1]",right,1,11,22,f,y,y,2019_Jul_11_1000,2AFC_task,59.9020481224083,
stimuli/hdri_bump_06_a.png,stimuli/hdri_bump_06_b.png,0,33,33,5,"[0, 1]",right,1,11,22,f,y,y,2019_Jul_11_1000,2AFC_task,59.9020481224083,
stimuli/hdri_bump_05_a.png,stimuli/hdri_bump_05_b.png,0,34,34,4,"[0, 1]",right,1,11,22,f,y,y,2019_Jul_11_1000,2AFC_task,59.9020481224083,
stimuli/hdri_bump_03_a.png,stimuli/hdri_bump_03_b.png,0,35,35,2,"[0, 1]",right,1,11,22,f,y,y,2019_Jul_11_1000,2AFC_task,59.9020481224083,
stimuli/lamp_bump_10_a.png,stimuli/lamp_bump_10_b.png,0,36,36,29,"[0, 1]",right,1,11,22,f,y,y,2019_Jul_11_1000,2AFC_task,59.9020481224083,
stimuli/lamp_bump_06_a.png,stimuli/lamp_bump_06_b.png,0,37,37,25,"[1, 0]",right,0,11,22,f,y,y,2019_Jul_11_1000,2AFC_task,59.9020481224083,
stimuli/hdri_bump_04_a.png,stimuli/hdri_bump_04_b.png,0,38,38,3,"[0, 1]",right,1,11,22,f,y,y,2019_Jul_11_1000,2AFC_task,59.9020481224083,
stimuli/hdri_bump_09_a.png,stimuli/hdri_bump_09_b.png,0,39,39,8,"[0, 1]",right,1,11,22,f,y,y,2019_Jul_11_1000,2AFC_task,59.9020481224083,
stimuli/lamp_bump_10_a.png,stimuli/lamp_bump_10_b.png,1,0,40,29,"[1, 0]",left,1,11,22,f,y,y,2019_Jul_11_1000,2AFC_task,59.9020481224083,
stimuli/hdri_bump_07_a.png,stimuli/hdri_bump_07_b.png,1,1,41,6,"[0, 1]",right,1,11,22,f,y,y,2019_Jul_11_1000,2AFC_task,59.9020481224083,
stimuli/lamp_light_06_a.png,stimuli/lamp_light_06_b.png,1,2,42,35,"[0, 1]",right,1,11,22,f,y,y,2019_Jul_11_1000,2AFC_task,59.9020481224083,
stimuli/hdri_bump_09_a.png,stimuli/hdri_bump_09_b.png,1,3,43,8,"[0, 1]",left,0,11,22,f,y,y,2019_Jul_11_1000,2AFC_task,59.9020481224083,
stimuli/lamp_light_02_a.png,stimuli/lamp_light_02_b.png,1,4,44,31,"[0, 1]",right,1,11,22,f,y,y,2019_Jul_11_1000,2AFC_task,59.9020481224083,
stimuli/hdri_bump_03_a.png,stimuli/hdri_bump_03_b.png,1,5,45,2,"[1, 0]",left,1,11,22,f,y,y,2019_Jul_11_1000,2AFC_task,59.9020481224083,
stimuli/hdri_light_04_a.png,stimuli/hdri_light_04_b.png,1,6,46,13,"[1, 0]",right,0,11,22,f,y,y,2019_Jul_11_1000,2AFC_task,59.9020481224083,
stimuli/lamp_light_07_a.png,stimuli/lamp_light_07_b.png,1,7,47,36,"[0, 1]",right,1,11,22,f,y,y,2019_Jul_11_1000,2AFC_task,59.9020481224083,
stimuli/lamp_bump_09_a.png,stimuli/lamp_bump_09_b.png,1,8,48,28,"[1, 0]",right,0,11,22,f,y,y,2019_Jul_11_1000,2AFC_task,59.9020481224083,
stimuli/hdri_light_07_a.png,stimuli/hdri_light_07_b.png,1,9,49,16,"[0, 1]",right,1,11,22,f,y,y,2019_Jul_11_1000,2AFC_task,59.9020481224083,
stimuli/hdri_light_06_a.png,stimuli/hdri_light_06_b.png,1,10,50,15,"[0, 1]",left,0,11,22,f,y,y,2019_Jul_11_1000,2AFC_task,59.9020481224083,
stimuli/hdri_bump_05_a.png,stimuli/hdri_bump_05_b.png,1,11,51,4,"[1, 0]",left,1,11,22,f,y,y,2019_Jul_11_1000,2AFC_task,59.9020481224083,
stimuli/hdri_light_03_a.png,stimuli/hdri_light_03_b.png,1,12,52,12,"[1, 0]",right,0,11,22,f,y,y,2019_Jul_11_1000,2AFC_task,59.9020481224083,
stimuli/hdri_bump_10_a.png,stimuli/hdri_bump_10_b.png,1,13,53,9,"[0, 1]",right,1,11,22,f,y,y,2019_Jul_11_1000,2AFC_task,59.9020481224083,
stimuli/lamp_bump_06_a.png,stimuli/lamp_bump_06_b.png,1,14,54,25,"[0, 1]",left,0,11,22,f,y,y,2019_Jul_11_1000,2AFC_task,59.9020481224083,
stimuli/hdri_light_10_a.png,stimuli/hdri_light_10_b.png,1,15,55,19,"[0, 1]",right,1,11,22,f,y,y,2019_Jul_11_1000,2AFC_task,59.9020481224083,
stimuli/hdri_bump_02_a.png,stimuli/hdri_bump_02_b.png,1,16,56,1,"[1, 0]",left,1,11,22,f,y,y,2019_Jul_11_1000,2AFC_task,59.9020481224083,
stimuli/lamp_bump_03_a.png,stimuli/lamp_bump_03_b.png,1,17,57,22,"[1, 0]",left,1,11,22,f,y,y,2019_Jul_11_1000,2AFC_task,59.9020481224083,
stimuli/hdri_light_09_a.png,stimuli/hdri_light_09_b.png,1,18,58,18,"[1, 0]",right,0,11,22,f,y,y,2019_Jul_11_1000,2AFC_task,59.9020481224083,
stimuli/hdri_bump_06_a.png,stimuli/hdri_bump_06_b.png,1,19,59,5,"[1, 0]",left,1,11,22,f,y,y,2019_Jul_11_1000,2AFC_task,59.9020481224083,
stimuli/hdri_bump_01_a.png,stimuli/hdri_bump_01_b.png,1,20,60,0,"[0, 1]",right,1,11,22,f,y,y,2019_Jul_11_1000,2AFC_task,59.9020481224083,
stimuli/lamp_bump_04_a.png,stimuli/lamp_bump_04_b.png,1,21,61,23,"[0, 1]",left,0,11,22,f,y,y,2019_Jul_11_1000,2AFC_task,59.9020481224083,
stimuli/lamp_light_03_a.png,stimuli/lamp_light_03_b.png,1,22,62,32,"[1, 0]",right,0,11,22,f,y,y,2019_Jul_11_1000,2AFC_task,59.9020481224083,
stimuli/hdri_bump_08_a.png,stimuli/hdri_bump_08_b.png,1,23,63,7,"[1, 0]",left,1,11,22,f,y,y,2019_Jul_11_1000,2AFC_task,59.9020481224083,
stimuli/lamp_light_09_a.png,stimuli/lamp_light_09_b.png,1,24,64,38,"[1, 0]",left,1,11,22,f,y,y,2019_Jul_11_1000,2AFC_task,59.9020481224083,
stimuli/lamp_bump_01_a.png,stimuli/lamp_bump_01_b.png,1,25,65,20,"[0, 1]",left,0,11,22,f,y,y,2019_Jul_11_1000,2AFC_task,59.9020481224083,
stimuli/lamp_light_08_a.png,stimuli/lamp_light_08_b.png,1,26,66,37,"[1, 0]",left,1,11,22,f,y,y,2019_Jul_11_1000,2AFC_task,59.9020481224083,
stimuli/lamp_bump_05_a.png,stimuli/lamp_bump_05_b.png,1,27,67,24,"[1, 0]",left,1,11,22,f,y,y,2019_Jul_11_1000,2AFC_task,59.9020481224083,
stimuli/lamp_light_05_a.png,stimuli/lamp_light_05_b.png,1,28,68,34,"[1, 0]",left,1,11,22,f,y,y,2019_Jul_11_1000,2AFC_task,59.9020481224083,
stimuli/lamp_bump_08_a.png,stimuli/lamp_bump_08_b.png,1,29,69,27,"[0, 1]",left,0,11,22,f,y,y,2019_Jul_11_1000,2AFC_task,59.9020481224083,
stimuli/lamp_light_04_a.png,stimuli/lamp_light_04_b.png,1,30,70,33,"[0, 1]",right,1,11,22,f,y,y,2019_Jul_11_1000,2AFC_task,59.9020481224083,
stimuli/hdri_light_05_a.png,stimuli/hdri_light_05_b.png,1,31,71,14,"[1, 0]",right,0,11,22,f,y,y,2019_Jul_11_1000,2AFC_task,59.9020481224083,
stimuli/lamp_light_01_a.png,stimuli/lamp_light_01_b.png,1,32,72,30,"[1, 0]",left,1,11,22,f,y,y,2019_Jul_11_1000,2AFC_task,59.9020481224083,
stimuli/hdri_light_02_a.png,stimuli/hdri_light_02_b.png,1,33,73,11,"[1, 0]",right,0,11,22,f,y,y,2019_Jul_11_1000,2AFC_task,59.9020481224083,
stimuli/lamp_light_10_a.png,stimuli/lamp_light_10_b.png,1,34,74,39,"[0, 1]",right,1,11,22,f,y,y,2019_Jul_11_1000,2AFC_task,59.9020481224083,
stimuli/lamp_bump_02_a.png,stimuli/lamp_bump_02_b.png,1,35,75,21,"[1, 0]",left,1,11,22,f,y,y,2019_Jul_11_1000,2AFC_task,59.9020481224083,
stimuli/hdri_bump_04_a.png,stimuli/hdri_bump_04_b.png,1,36,76,3,"[1, 0]",left,1,11,22,f,y,y,2019_Jul_11_1000,2AFC_task,59.9020481224083,
stimuli/hdri_light_08_a.png,stimuli/hdri_light_08_b.png,1,37,77,17,"[0, 1]",right,1,11,22,f,y,y,2019_Jul_11_1000,2AFC_task,59.9020481224083,
stimuli/hdri_light_01_a.png,stimuli/hdri_light_01_b.png,1,38,78,10,"[1, 0]",right,0,11,22,f,y,y,2019_Jul_11_1000,2AFC_task,59.9020481224083,
stimuli/lamp_bump_07_a.png,stimuli/lamp_bump_07_b.png,1,39,79,26,"[1, 0]",left,1,11,22,f,y,y,2019_Jul_11_1000,2AFC_task,59.9020481224083,
stimuli/lamp_bump_10_a.png,stimuli/lamp_bump_10_b.png,2,0,80,29,"[1, 0]",left,1,11,22,f,y,y,2019_Jul_11_1000,2AFC_task,59.9020481224083,
stimuli/lamp_bump_02_a.png,stimuli/lamp_bump_02_b.png,2,1,81,21,"[0, 1]",right,1,11,22,f,y,y,2019_Jul_11_1000,2AFC_task,59.9020481224083,
stimuli/hdri_light_10_a.png,stimuli/hdri_light_10_b.png,2,2,82,19,"[1, 0]",left,1,11,22,f,y,y,2019_Jul_11_1000,2AFC_task,59.9020481224083,
stimuli/hdri_light_07_a.png,stimuli/hdri_light_07_b.png,2,3,83,16,"[1, 0]",left,1,11,22,f,y,y,2019_Jul_11_1000,2AFC_task,59.9020481224083,
stimuli/hdri_light_08_a.png,stimuli/hdri_light_08_b.png,2,4,84,17,"[0, 1]",right,1,11,22,f,y,y,2019_Jul_11_1000,2AFC_task,59.9020481224083,
stimuli/lamp_light_06_a.png,stimuli/lamp_light_06_b.png,2,5,85,35,"[1, 0]",left,1,11,22,f,y,y,2019_Jul_11_1000,2AFC_task,59.9020481224083,
stimuli/lamp_light_01_a.png,stimuli/lamp_light_01_b.png,2,6,86,30,"[1, 0]",left,1,11,22,f,y,y,2019_Jul_11_1000,2AFC_task,59.9020481224083,
stimuli/hdri_bump_01_a.png,stimuli/hdri_bump_01_b.png,2,7,87,0,"[0, 1]",right,1,11,22,f,y,y,2019_Jul_11_1000,2AFC_task,59.9020481224083,
stimuli/hdri_light_06_a.png,stimuli/hdri_light_06_b.png,2,8,88,15,"[1, 0]",right,0,11,22,f,y,y,2019_Jul_11_1000,2AFC_task,59.9020481224083,
stimuli/hdri_bump_09_a.png,stimuli/hdri_bump_09_b.png,2,9,89,8,"[1, 0]",left,1,11,22,f,y,y,2019_Jul_11_1000,2AFC_task,59.9020481224083,
stimuli/hdri_bump_08_a.png,stimuli/hdri_bump_08_b.png,2,10,90,7,"[1, 0]",left,1,11,22,f,y,y,2019_Jul_11_1000,2AFC_task,59.9020481224083,
stimuli/lamp_light_09_a.png,stimuli/lamp_light_09_b.png,2,11,91,38,"[0, 1]",right,1,11,22,f,y,y,2019_Jul_11_1000,2AFC_task,59.9020481224083,
stimuli/lamp_light_07_a.png,stimuli/lamp_light_07_b.png,2,12,92,36,"[0, 1]",right,1,11,22,f,y,y,2019_Jul_11_1000,2AFC_task,59.9020481224083,
stimuli/hdri_light_03_a.png,stimuli/hdri_light_03_b.png,2,13,93,12,"[1, 0]",left,1,11,22,f,y,y,2019_Jul_11_1000,2AFC_task,59.9020481224083,
stimuli/lamp_bump_05_a.png,stimuli/lamp_bump_05_b.png,2,14,94,24,"[1, 0]",right,0,11,22,f,y,y,2019_Jul_11_1000,2AFC_task,59.9020481224083,
stimuli/hdri_bump_05_a.png,stimuli/hdri_bump_05_b.png,2,15,95,4,"[0, 1]",right,1,11,22,f,y,y,2019_Jul_11_1000,2AFC_task,59.9020481224083,
stimuli/hdri_bump_07_a.png,stimuli/hdri_bump_07_b.png,2,16,96,6,"[0, 1]",right,1,11,22,f,y,y,2019_Jul_11_1000,2AFC_task,59.9020481224083,
stimuli/hdri_light_09_a.png,stimuli/hdri_light_09_b.png,2,17,97,18,"[1, 0]",right,0,11,22,f,y,y,2019_Jul_11_1000,2AFC_task,59.9020481224083,
stimuli/hdri_light_02_a.png,stimuli/hdri_light_02_b.png,2,18,98,11,"[1, 0]",left,1,11,22,f,y,y,2019_Jul_11_1000,2AFC_task,59.9020481224083,
stimuli/hdri_light_04_a.png,stimuli/hdri_light_04_b.png,2,19,99,13,"[1, 0]",right,0,11,22,f,y,y,2019_Jul_11_1000,2AFC_task,59.9020481224083,
stimuli/hdri_bump_10_a.png,stimuli/hdri_bump_10_b.png,2,20,100,9,"[0, 1]",right,1,11,22,f,y,y,2019_Jul_11_1000,2AFC_task,59.9020481224083,
stimuli/hdri_light_01_a.png,stimuli/hdri_light_01_b.png,2,21,101,10,"[0, 1]",left,0,11,22,f,y,y,2019_Jul_11_1000,2AFC_task,59.9020481224083,
stimuli/lamp_light_08_a.png,stimuli/lamp_light_08_b.png,2,22,102,37,"[0, 1]",right,1,11,22,f,y,y,2019_Jul_11_1000,2AFC_task,59.9020481224083,
stimuli/lamp_light_02_a.png,stimuli/lamp_light_02_b.png,2,23,103,31,"[1, 0]",left,1,11,22,f,y,y,2019_Jul_11_1000,2AFC_task,59.9020481224083,
stimuli/lamp_bump_04_a.png,stimuli/lamp_bump_04_b.png,2,24,104,23,"[0, 1]",left,0,11,22,f,y,y,2019_Jul_11_1000,2AFC_task,59.9020481224083,
stimuli/lamp_light_04_a.png,stimuli/lamp_light_04_b.png,2,25,105,33,"[1, 0]",left,1,11,22,f,y,y,2019_Jul_11_1000,2AFC_task,59.9020481224083,
stimuli/lamp_light_10_a.png,stimuli/lamp_light_10_b.png,2,26,106,39,"[1, 0]",left,1,11,22,f,y,y,2019_Jul_11_1000,2AFC_task,59.9020481224083,
stimuli/hdri_bump_04_a.png,stimuli/hdri_bump_04_b.png,2,27,107,3,"[1, 0]",left,1,11,22,f,y,y,2019_Jul_11_1000,2AFC_task,59.9020481224083,
stimuli/hdri_bump_03_a.png,stimuli/hdri_bump_03_b.png,2,28,108,2,"[0, 1]",right,1,11,22,f,y,y,2019_Jul_11_1000,2AFC_task,59.9020481224083,
stimuli/lamp_bump_03_a.png,stimuli/lamp_bump_03_b.png,2,29,109,22,"[1, 0]",left,1,11,22,f,y,y,2019_Jul_11_1000,2AFC_task,59.9020481224083,
stimuli/hdri_bump_02_a.png,stimuli/hdri_bump_02_b.png,2,30,110,1,"[1, 0]",left,1,11,22,f,y,y,2019_Jul_11_1000,2AFC_task,59.9020481224083,
stimuli/hdri_bump_06_a.png,stimuli/hdri_bump_06_b.png,2,31,111,5,"[1, 0]",right,0,11,22,f,y,y,2019_Jul_11_1000,2AFC_task,59.9020481224083,
stimuli/lamp_bump_06_a.png,stimuli/lamp_bump_06_b.png,2,32,112,25,"[0, 1]",left,0,11,22,f,y,y,2019_Jul_11_1000,2AFC_task,59.9020481224083,
stimuli/hdri_light_05_a.png,stimuli/hdri_light_05_b.png,2,33,113,14,"[0, 1]",left,0,11,22,f,y,y,2019_Jul_11_1000,2AFC_task,59.9020481224083,
stimuli/lamp_bump_08_a.png,stimuli/lamp_bump_08_b.png,2,34,114,27,"[0, 1]",right,1,11,22,f,y,y,2019_Jul_11_1000,2AFC_task,59.9020481224083,
stimuli/lamp_light_05_a.png,stimuli/lamp_light_05_b.png,2,35,115,34,"[0, 1]",right,1,11,22,f,y,y,2019_Jul_11_1000,2AFC_task,59.9020481224083,
stimuli/lamp_bump_01_a.png,stimuli/lamp_bump_01_b.png,2,36,116,20,"[1, 0]",left,1,11,22,f,y,y,2019_Jul_11_1000,2AFC_task,59.9020481224083,
stimuli/lamp_bump_07_a.png,stimuli/lamp_bump_07_b.png,2,37,117,26,"[0, 1]",left,0,11,22,f,y,y,2019_Jul_11_1000,2AFC_task,59.9020481224083,
stimuli/lamp_bump_09_a.png,stimuli/lamp_bump_09_b.png,2,38,118,28,"[0, 1]",right,1,11,22,f,y,y,2019_Jul_11_1000,2AFC_task,59.9020481224083,
stimuli/lamp_light_03_a.png,stimuli/lamp_light_03_b.png,2,39,119,32,"[1, 0]",left,1,11,22,f,y,y,2019_Jul_11_1000,2AFC_task,59.9020481224083,
stimuli/hdri_bump_03_a.png,stimuli/hdri_bump_03_b.png,3,0,120,2,"[0, 1]",left,0,11,22,f,y,y,2019_Jul_11_1000,2AFC_task,59.9020481224083,
stimuli/hdri_bump_01_a.png,stimuli/hdri_bump_01_b.png,3,1,121,0,"[0, 1]",right,1,11,22,f,y,y,2019_Jul_11_1000,2AFC_task,59.9020481224083,
stimuli/hdri_light_10_a.png,stimuli/hdri_light_10_b.png,3,2,122,19,"[0, 1]",right,1,11,22,f,y,y,2019_Jul_11_1000,2AFC_task,59.9020481224083,
stimuli/hdri_bump_04_a.png,stimuli/hdri_bump_04_b.png,3,3,123,3,"[1, 0]",left,1,11,22,f,y,y,2019_Jul_11_1000,2AFC_task,59.9020481224083,
stimuli/lamp_bump_09_a.png,stimuli/lamp_bump_09_b.png,3,4,124,28,"[0, 1]",left,0,11,22,f,y,y,2019_Jul_11_1000,2AFC_task,59.9020481224083,
stimuli/lamp_bump_03_a.png,stimuli/lamp_bump_03_b.png,3,5,125,22,"[0, 1]",right,1,11,22,f,y,y,2019_Jul_11_1000,2AFC_task,59.9020481224083,
stimuli/lamp_bump_02_a.png,stimuli/lamp_bump_02_b.png,3,6,126,21,"[1, 0]",left,1,11,22,f,y,y,2019_Jul_11_1000,2AFC_task,59.9020481224083,
stimuli/lamp_bump_01_a.png,stimuli/lamp_bump_01_b.png,3,7,127,20,"[0, 1]",left,0,11,22,f,y,y,2019_Jul_11_1000,2AFC_task,59.9020481224083,
stimuli/lamp_bump_10_a.png,stimuli/lamp_bump_10_b.png,3,8,128,29,"[0, 1]",right,1,11,22,f,y,y,2019_Jul_11_1000,2AFC_task,59.9020481224083,
stimuli/hdri_light_05_a.png,stimuli/hdri_light_05_b.png,3,9,129,14,"[0, 1]",left,0,11,22,f,y,y,2019_Jul_11_1000,2AFC_task,59.9020481224083,
stimuli/lamp_bump_06_a.png,stimuli/lamp_bump_06_b.png,3,10,130,25,"[0, 1]",left,0,11,22,f,y,y,2019_Jul_11_1000,2AFC_task,59.9020481224083,
stimuli/hdri_light_01_a.png,stimuli/hdri_light_01_b.png,3,11,131,10,"[0, 1]",left,0,11,22,f,y,y,2019_Jul_11_1000,2AFC_task,59.9020481224083,
stimuli/lamp_bump_05_a.png,stimuli/lamp_bump_05_b.png,3,12,132,24,"[1, 0]",left,1,11,22,f,y,y,2019_Jul_11_1000,2AFC_task,59.9020481224083,
stimuli/hdri_bump_10_a.png,stimuli/hdri_bump_10_b.png,3,13,133,9,"[1, 0]",left,1,11,22,f,y,y,2019_Jul_11_1000,2AFC_task,59.9020481224083,
stimuli/lamp_bump_07_a.png,stimuli/lamp_bump_07_b.png,3,14,134,26,"[1, 0]",right,0,11,22,f,y,y,2019_Jul_11_1000,2AFC_task,59.9020481224083,
stimuli/hdri_bump_09_a.png,stimuli/hdri_bump_09_b.png,3,15,135,8,"[1, 0]",right,0,11,22,f,y,y,2019_Jul_11_1000,2AFC_task,59.9020481224083,
stimuli/lamp_light_08_a.png,stimuli/lamp_light_08_b.png,3,16,136,37,"[1, 0]",left,1,11,22,f,y,y,2019_Jul_11_1000,2AFC_task,59.9020481224083,
stimuli/lamp_light_10_a.png,stimuli/lamp_light_10_b.png,3,17,137,39,"[1, 0]",left,1,11,22,f,y,y,2019_Jul_11_1000,2AFC_task,59.9020481224083,
stimuli/hdri_light_02_a.png,stimuli/hdri_light_02_b.png,3,18,138,11,"[1, 0]",right,0,11,22,f,y,y,2019_Jul_11_1000,2AFC_task,59.9020481224083,
stimuli/lamp_light_06_a.png,stimuli/lamp_light_06_b.png,3,19,139,35,"[1, 0]",left,1,11,22,f,y,y,2019_Jul_11_1000,2AFC_task,59.9020481224083,
stimuli/lamp_light_01_a.png,stimuli/lamp_light_01_b.png,3,20,140,30,"[1, 0]",right,0,11,22,f,y,y,2019_Jul_11_1000,2AFC_task,59.9020481224083,
stimuli/hdri_bump_08_a.png,stimuli/hdri_bump_08_b.png,3,21,141,7,"[0, 1]",right,1,11,22,f,y,y,2019_Jul_11_1000,2AFC_task,59.9020481224083,
stimuli/hdri_light_06_a.png,stimuli/hdri_light_06_b.png,3,22,142,15,"[0, 1]",left,0,11,22,f,y,y,2019_Jul_11_1000,2AFC_task,59.9020481224083,
stimuli/lamp_bump_04_a.png,stimuli/lamp_bump_04_b.png,3,23,143,23,"[1, 0]",right,0,11,22,f,y,y,2019_Jul_11_1000,2AFC_task,59.9020481224083,
stimuli/lamp_light_03_a.png,stimuli/lamp_light_03_b.png,3,24,144,32,"[0, 1]",left,0,11,22,f,y,y,2019_Jul_11_1000,2AFC_task,59.9020481224083,
stimuli/hdri_light_04_a.png,stimuli/hdri_light_04_b.png,3,25,145,13,"[1, 0]",right,0,11,22,f,y,y,2019_Jul_11_1000,2AFC_task,59.9020481224083,
stimuli/hdri_light_07_a.png,stimuli/hdri_light_07_b.png,3,26,146,16,"[0, 1]",right,1,11,22,f,y,y,2019_Jul_11_1000,2AFC_task,59.9020481224083,
stimuli/hdri_light_09_a.png,stimuli/hdri_light_09_b.png,3,27,147,18,"[1, 0]",right,0,11,22,f,y,y,2019_Jul_11_1000,2AFC_task,59.9020481224083,
stimuli/hdri_bump_02_a.png,stimuli/hdri_bump_02_b.png,3,28,148,1,"[0, 1]",right,1,11,22,f,y,y,2019_Jul_11_1000,2AFC_task,59.9020481224083,
stimuli/lamp_light_07_a.png,stimuli/lamp_light_07_b.png,3,29,149,36,"[0, 1]",right,1,11,22,f,y,y,2019_Jul_11_1000,2AFC_task,59.9020481224083,
stimuli/hdri_light_03_a.png,stimuli/hdri_light_03_b.png,3,30,150,12,"[1, 0]",right,0,11,22,f,y,y,2019_Jul_11_1000,2AFC_task,59.9020481224083,
stimuli/lamp_light_02_a.png,stimuli/lamp_light_02_b.png,3,31,151,31,"[0, 1]",right,1,11,22,f,y,y,2019_Jul_11_1000,2AFC_task,59.9020481224083,
stimuli/lamp_light_05_a.png,stimuli/lamp_light_05_b.png,3,32,152,34,"[0, 1]",right,1,11,22,f,y,y,2019_Jul_11_1000,2AFC_task,59.9020481224083,
stimuli/lamp_light_04_a.png,stimuli/lamp_light_04_b.png,3,33,153,33,"[0, 1]",right,1,11,22,f,y,y,2019_Jul_11_1000,2AFC_task,59.9020481224083,
stimuli/hdri_bump_05_a.png,stimuli/hdri_bump_05_b.png,3,34,154,4,"[0, 1]",right,1,11,22,f,y,y,2019_Jul_11_1000,2AFC_task,59.9020481224083,
stimuli/lamp_light_09_a.png,stimuli/lamp_light_09_b.png,3,35,155,38,"[1, 0]",left,1,11,22,f,y,y,2019_Jul_11_1000,2AFC_task,59.9020481224083,
stimuli/lamp_bump_08_a.png,stimuli/lamp_bump_08_b.png,3,36,156,27,"[0, 1]",right,1,11,22,f,y,y,2019_Jul_11_1000,2AFC_task,59.9020481224083,
stimuli/hdri_bump_06_a.png,stimuli/hdri_bump_06_b.png,3,37,157,5,"[0, 1]",left,0,11,22,f,y,y,2019_Jul_11_1000,2AFC_task,59.9020481224083,
stimuli/hdri_bump_07_a.png,stimuli/hdri_bump_07_b.png,3,38,158,6,"[0, 1]",left,0,11,22,f,y,y,2019_Jul_11_1000,2AFC_task,59.9020481224083,
stimuli/hdri_light_08_a.png,stimuli/hdri_light_08_b.png,3,39,159,17,"[1, 0]",left,1,11,22,f,y,y,2019_Jul_11_1000,2AFC_task,59.9020481224083,
stimuli/lamp_bump_07_a.png,stimuli/lamp_bump_07_b.png,4,0,160,26,"[1, 0]",right,0,11,22,f,y,y,2019_Jul_11_1000,2AFC_task,59.9020481224083,
stimuli/lamp_light_02_a.png,stimuli/lamp_light_02_b.png,4,1,161,31,"[0, 1]",right,1,11,22,f,y,y,2019_Jul_11_1000,2AFC_task,59.9020481224083,
stimuli/lamp_bump_06_a.png,stimuli/lamp_bump_06_b.png,4,2,162,25,"[0, 1]",left,0,11,22,f,y,y,2019_Jul_11_1000,2AFC_task,59.9020481224083,
stimuli/lamp_bump_02_a.png,stimuli/lamp_bump_02_b.png,4,3,163,21,"[0, 1]",left,0,11,22,f,y,y,2019_Jul_11_1000,2AFC_task,59.9020481224083,
stimuli/hdri_bump_08_a.png,stimuli/hdri_bump_08_b.png,4,4,164,7,"[0, 1]",right,1,11,22,f,y,y,2019_Jul_11_1000,2AFC_task,59.9020481224083,
stimuli/lamp_light_07_a.png,stimuli/lamp_light_07_b.png,4,5,165,36,"[0, 1]",right,1,11,22,f,y,y,2019_Jul_11_1000,2AFC_task,59.9020481224083,
stimuli/hdri_bump_05_a.png,stimuli/hdri_bump_05_b.png,4,6,166,4,"[0, 1]",right,1,11,22,f,y,y,2019_Jul_11_1000,2AFC_task,59.9020481224083,
stimuli/lamp_light_09_a.png,stimuli/lamp_light_09_b.png,4,7,167,38,"[1, 0]",left,1,11,22,f,y,y,2019_Jul_11_1000,2AFC_task,59.9020481224083,
stimuli/hdri_bump_06_a.png,stimuli/hdri_bump_06_b.png,4,8,168,5,"[1, 0]",left,1,11,22,f,y,y,2019_Jul_11_1000,2AFC_task,59.9020481224083,
stimuli/hdri_bump_01_a.png,stimuli/hdri_bump_01_b.png,4,9,169,0,"[1, 0]",left,1,11,22,f,y,y,2019_Jul_11_1000,2AFC_task,59.9020481224083,
stimuli/lamp_bump_01_a.png,stimuli/lamp_bump_01_b.png,4,10,170,20,"[1, 0]",right,0,11,22,f,y,y,2019_Jul_11_1000,2AFC_task,59.9020481224083,
stimuli/hdri_light_02_a.png,stimuli/hdri_light_02_b.png,4,11,171,11,"[1, 0]",right,0,11,22,f,y,y,2019_Jul_11_1000,2AFC_task,59.9020481224083,
stimuli/hdri_bump_07_a.png,stimuli/hdri_bump_07_b.png,4,12,172,6,"[1, 0]",right,0,11,22,f,y,y,2019_Jul_11_1000,2AFC_task,59.9020481224083,
stimuli/lamp_light_08_a.png,stimuli/lamp_light_08_b.png,4,13,173,37,"[1, 0]",left,1,11,22,f,y,y,2019_Jul_11_1000,2AFC_task,59.9020481224083,
stimuli/lamp_bump_05_a.png,stimuli/lamp_bump_05_b.png,4,14,174,24,"[1, 0]",right,0,11,22,f,y,y,2019_Jul_11_1000,2AFC_task,59.9020481224083,
stimuli/lamp_bump_03_a.png,stimuli/lamp_bump_03_b.png,4,15,175,22,"[1, 0]",left,1,11,22,f,y,y,2019_Jul_11_1000,2AFC_task,59.9020481224083,
stimuli/lamp_light_10_a.png,stimuli/lamp_light_10_b.png,4,16,176,39,"[0, 1]",right,1,11,22,f,y,y,2019_Jul_11_1000,2AFC_task,59.9020481224083,
stimuli/lamp_bump_08_a.png,stimuli/lamp_bump_08_b.png,4,17,177,27,"[1, 0]",left,1,11,22,f,y,y,2019_Jul_11_1000,2AFC_task,59.9020481224083,
stimuli/hdri_bump_10_a.png,stimuli/hdri_bump_10_b.png,4,18,178,9,"[0, 1]",left,0,11,22,f,y,y,2019_Jul_11_1000,2AFC_task,59.9020481224083,
stimuli/hdri_light_01_a.png,stimuli/hdri_light_01_b.png,4,19,179,10,"[0, 1]",left,0,11,22,f,y,y,2019_Jul_11_1000,2AFC_task,59.9020481224083,
stimuli/hdri_light_10_a.png,stimuli/hdri_light_10_b.png,4,20,180,19,"[1, 0]",left,1,11,22,f,y,y,2019_Jul_11_1000,2AFC_task,59.9020481224083,
stimuli/hdri_bump_04_a.png,stimuli/hdri_bump_04_b.png,4,21,181,3,"[1, 0]",left,1,11,22,f,y,y,2019_Jul_11_1000,2AFC_task,59.9020481224083,
stimuli/lamp_light_01_a.png,stimuli/lamp_light_01_b.png,4,22,182,30,"[1, 0]",left,1,11,22,f,y,y,2019_Jul_11_1000,2AFC_task,59.9020481224083,
stimuli/hdri_bump_09_a.png,stimuli/hdri_bump_09_b.png,4,23,183,8,"[0, 1]",left,0,11,22,f,y,y,2019_Jul_11_1000,2AFC_task,59.9020481224083,
stimuli/lamp_bump_04_a.png,stimuli/lamp_bump_04_b.png,4,24,184,23,"[0, 1]",left,0,11,22,f,y,y,2019_Jul_11_1000,2AFC_task,59.9020481224083,
stimuli/hdri_light_05_a.png,stimuli/hdri_light_05_b.png,4,25,185,14,"[0, 1]",left,0,11,22,f,y,y,2019_Jul_11_1000,2AFC_task,59.9020481224083,
stimuli/hdri_light_08_a.png,stimuli/hdri_light_08_b.png,4,26,186,17,"[1, 0]",left,1,11,22,f,y,y,2019_Jul_11_1000,2AFC_task,59.9020481224083,
stimuli/lamp_bump_09_a.png,stimuli/lamp_bump_09_b.png,4,27,187,28,"[1, 0]",left,1,11,22,f,y,y,2019_Jul_11_1000,2AFC_task,59.9020481224083,
stimuli/hdri_bump_02_a.png,stimuli/hdri_bump_02_b.png,4,28,188,1,"[0, 1]",right,1,11,22,f,y,y,2019_Jul_11_1000,2AFC_task,59.9020481224083,
stimuli/hdri_light_04_a.png,stimuli/hdri_light_04_b.png,4,29,189,13,"[0, 1]",left,0,11,22,f,y,y,2019_Jul_11_1000,2AFC_task,59.9020481224083,
stimuli/lamp_bump_10_a.png,stimuli/lamp_bump_10_b.png,4,30,190,29,"[0, 1]",right,1,11,22,f,y,y,2019_Jul_11_1000,2AFC_task,59.9020481224083,
stimuli/lamp_light_06_a.png,stimuli/lamp_light_06_b.png,4,31,191,35,"[1, 0]",left,1,11,22,f,y,y,2019_Jul_11_1000,2AFC_task,59.9020481224083,
stimuli/hdri_light_06_a.png,stimuli/hdri_light_06_b.png,4,32,192,15,"[1, 0]",right,0,11,22,f,y,y,2019_Jul_11_1000,2AFC_task,59.9020481224083,
stimuli/hdri_bump_03_a.png,stimuli/hdri_bump_03_b.png,4,33,193,2,"[1, 0]",left,1,11,22,f,y,y,2019_Jul_11_1000,2AFC_task,59.9020481224083,
stimuli/hdri_light_07_a.png,stimuli/hdri_light_07_b.png,4,34,194,16,"[0, 1]",right,1,11,22,f,y,y,2019_Jul_11_1000,2AFC_task,59.9020481224083,
stimuli/lamp_light_04_a.png,stimuli/lamp_light_04_b.png,4,35,195,33,"[0, 1]",left,0,11,22,f,y,y,2019_Jul_11_1000,2AFC_task,59.9020481224083,
stimuli/hdri_light_09_a.png,stimuli/hdri_light_09_b.png,4,36,196,18,"[1, 0]",right,0,11,22,f,y,y,2019_Jul_11_1000,2AFC_task,59.9020481224083,
stimuli/lamp_light_05_a.png,stimuli/lamp_light_05_b.png,4,37,197,34,"[0, 1]",right,1,11,22,f,y,y,2019_Jul_11_1000,2AFC_task,59.9020481224083,
stimuli/lamp_light_03_a.png,stimuli/lamp_light_03_b.png,4,38,198,32,"[0, 1]",right,1,11,22,f,y,y,2019_Jul_11_1000,2AFC_task,59.9020481224083,
stimuli/hdri_light_03_a.png,stimuli/hdri_light_03_b.png,4,39,199,12,"[0, 1]",left,0,11,22,f,y,y,2019_Jul_11_1000,2AFC_task,59.9020481224083,
stimuli/lamp_bump_08_a.png,stimuli/lamp_bump_08_b.png,5,0,200,27,"[1, 0]",right,0,11,22,f,y,y,2019_Jul_11_1000,2AFC_task,59.9020481224083,
stimuli/hdri_bump_05_a.png,stimuli/hdri_bump_05_b.png,5,1,201,4,"[0, 1]",right,1,11,22,f,y,y,2019_Jul_11_1000,2AFC_task,59.9020481224083,
stimuli/lamp_bump_04_a.png,stimuli/lamp_bump_04_b.png,5,2,202,23,"[1, 0]",right,0,11,22,f,y,y,2019_Jul_11_1000,2AFC_task,59.9020481224083,
stimuli/hdri_light_09_a.png,stimuli/hdri_light_09_b.png,5,3,203,18,"[1, 0]",right,0,11,22,f,y,y,2019_Jul_11_1000,2AFC_task,59.9020481224083,
stimuli/lamp_bump_01_a.png,stimuli/lamp_bump_01_b.png,5,4,204,20,"[0, 1]",left,0,11,22,f,y,y,2019_Jul_11_1000,2AFC_task,59.9020481224083,
stimuli/hdri_light_06_a.png,stimuli/hdri_light_06_b.png,5,5,205,15,"[0, 1]",right,1,11,22,f,y,y,2019_Jul_11_1000,2AFC_task,59.9020481224083,
stimuli/lamp_bump_07_a.png,stimuli/lamp_bump_07_b.png,5,6,206,26,"[0, 1]",left,0,11,22,f,y,y,2019_Jul_11_1000,2AFC_task,59.9020481224083,
stimuli/hdri_bump_09_a.png,stimuli/hdri_bump_09_b.png,5,7,207,8,"[0, 1]",left,0,11,22,f,y,y,2019_Jul_11_1000,2AFC_task,59.9020481224083,
stimuli/lamp_light_01_a.png,stimuli/lamp_light_01_b.png,5,8,208,30,"[1, 0]",left,1,11,22,f,y,y,2019_Jul_11_1000,2AFC_task,59.9020481224083,
stimuli/hdri_light_04_a.png,stimuli/hdri_light_04_b.png,5,9,209,13,"[1, 0]",left,1,11,22,f,y,y,2019_Jul_11_1000,2AFC_task,59.9020481224083,
stimuli/lamp_light_07_a.png,stimuli/lamp_light_07_b.png,5,10,210,36,"[0, 1]",right,1,11,22,f,y,y,2019_Jul_11_1000,2AFC_task,59.9020481224083,
stimuli/hdri_light_05_a.png,stimuli/hdri_light_05_b.png,5,11,211,14,"[0, 1]",left,0,11,22,f,y,y,2019_Jul_11_1000,2AFC_task,59.9020481224083,
stimuli/lamp_bump_09_a.png,stimuli/lamp_bump_09_b.png,5,12,212,28,"[0, 1]",left,0,11,22,f,y,y,2019_Jul_11_1000,2AFC_task,59.9020481224083,
stimuli/lamp_light_05_a.png,stimuli/lamp_light_05_b.png,5,13,213,34,"[0, 1]",right,1,11,22,f,y,y,2019_Jul_11_1000,2AFC_task,59.9020481224083,
stimuli/hdri_light_10_a.png,stimuli/hdri_light_10_b.png,5,14,214,19,"[1, 0]",left,1,11,22,f,y,y,2019_Jul_11_1000,2AFC_task,59.9020481224083,
stimuli/hdri_light_07_a.png,stimuli/hdri_light_07_b.png,5,15,215,16,"[0, 1]",right,1,11,22,f,y,y,2019_Jul_11_1000,2AFC_task,59.9020481224083,
stimuli/hdri_bump_10_a.png,stimuli/hdri_bump_10_b.png,5,16,216,9,"[1, 0]",right,0,11,22,f,y,y,2019_Jul_11_1000,2AFC_task,59.9020481224083,
stimuli/lamp_light_10_a.png,stimuli/lamp_light_10_b.png,5,17,217,39,"[0, 1]",right,1,11,22,f,y,y,2019_Jul_11_1000,2AFC_task,59.9020481224083,
stimuli/lamp_bump_02_a.png,stimuli/lamp_bump_02_b.png,5,18,218,21,"[1, 0]",right,0,11,22,f,y,y,2019_Jul_11_1000,2AFC_task,59.9020481224083,
stimuli/hdri_bump_01_a.png,stimuli/hdri_bump_01_b.png,5,19,219,0,"[1, 0]",left,1,11,22,f,y,y,2019_Jul_11_1000,2AFC_task,59.9020481224083,
stimuli/hdri_light_03_a.png,stimuli/hdri_light_03_b.png,5,20,220,12,"[1, 0]",right,0,11,22,f,y,y,2019_Jul_11_1000,2AFC_task,59.9020481224083,
stimuli/hdri_bump_03_a.png,stimuli/hdri_bump_03_b.png,5,21,221,2,"[1, 0]",left,1,11,22,f,y,y,2019_Jul_11_1000,2AFC_task,59.9020481224083,
stimuli/lamp_light_06_a.png,stimuli/lamp_light_06_b.png,5,22,222,35,"[0, 1]",right,1,11,22,f,y,y,2019_Jul_11_1000,2AFC_task,59.9020481224083,
stimuli/hdri_bump_08_a.png,stimuli/hdri_bump_08_b.png,5,23,223,7,"[0, 1]",right,1,11,22,f,y,y,2019_Jul_11_1000,2AFC_task,59.9020481224083,
stimuli/hdri_light_02_a.png,stimuli/hdri_light_02_b.png,5,24,224,11,"[1, 0]",right,0,11,22,f,y,y,2019_Jul_11_1000,2AFC_task,59.9020481224083,
stimuli/hdri_bump_07_a.png,stimuli/hdri_bump_07_b.png,5,25,225,6,"[0, 1]",right,1,11,22,f,y,y,2019_Jul_11_1000,2AFC_task,59.9020481224083,
stimuli/lamp_light_09_a.png,stimuli/lamp_light_09_b.png,5,26,226,38,"[0, 1]",right,1,11,22,f,y,y,2019_Jul_11_1000,2AFC_task,59.9020481224083,
stimuli/lamp_bump_10_a.png,stimuli/lamp_bump_10_b.png,5,27,227,29,"[0, 1]",right,1,11,22,f,y,y,2019_Jul_11_1000,2AFC_task,59.9020481224083,
stimuli/hdri_bump_04_a.png,stimuli/hdri_bump_04_b.png,5,28,228,3,"[0, 1]",right,1,11,22,f,y,y,2019_Jul_11_1000,2AFC_task,59.9020481224083,
stimuli/hdri_bump_06_a.png,stimuli/hdri_bump_06_b.png,5,29,229,5,"[1, 0]",left,1,11,22,f,y,y,2019_Jul_11_1000,2AFC_task,59.9020481224083,
stimuli/lamp_bump_05_a.png,stimuli/lamp_bump_05_b.png,5,30,230,24,"[0, 1]",right,1,11,22,f,y,y,2019_Jul_11_1000,2AFC_task,59.9020481224083,
stimuli/hdri_light_01_a.png,stimuli/hdri_light_01_b.png,5,31,231,10,"[0, 1]",left,0,11,22,f,y,y,2019_Jul_11_1000,2AFC_task,59.9020481224083,
stimuli/lamp_bump_06_a.png,stimuli/lamp_bump_06_b.png,5,32,232,25,"[0, 1]",left,0,11,22,f,y,y,2019_Jul_11_1000,2AFC_task,59.9020481224083,
stimuli/lamp_light_08_a.png,stimuli/lamp_light_08_b.png,5,33,233,37,"[1, 0]",left,1,11,22,f,y,y,2019_Jul_11_1000,2AFC_task,59.9020481224083,
stimuli/lamp_bump_03_a.png,stimuli/lamp_bump_03_b.png,5,34,234,22,"[1, 0]",left,1,11,22,f,y,y,2019_Jul_11_1000,2AFC_task,59.9020481224083,
stimuli/lamp_light_02_a.png,stimuli/lamp_light_02_b.png,5,35,235,31,"[1, 0]",left,1,11,22,f,y,y,2019_Jul_11_1000,2AFC_task,59.9020481224083,
stimuli/lamp_light_04_a.png,stimuli/lamp_light_04_b.png,5,36,236,33,"[0, 1]",right,1,11,22,f,y,y,2019_Jul_11_1000,2AFC_task,59.9020481224083,
stimuli/lamp_light_03_a.png,stimuli/lamp_light_03_b.png,5,37,237,32,"[1, 0]",left,1,11,22,f,y,y,2019_Jul_11_1000,2AFC_task,59.9020481224083,
stimuli/hdri_light_08_a.png,stimuli/hdri_light_08_b.png,5,38,238,17,"[0, 1]",right,1,11,22,f,y,y,2019_Jul_11_1000,2AFC_task,59.9020481224083,
stimuli/hdri_bump_02_a.png,stimuli/hdri_bump_02_b.png,5,39,239,1,"[1, 0]",left,1,11,22,f,y,y,2019_Jul_11_1000,2AFC_task,59.9020481224083,
stimuli/lamp_light_07_a.png,stimuli/lamp_light_07_b.png,6,0,240,36,"[1, 0]",left,1,11,22,f,y,y,2019_Jul_11_1000,2AFC_task,59.9020481224083,
stimuli/hdri_bump_02_a.png,stimuli/hdri_bump_02_b.png,6,1,241,1,"[1, 0]",left,1,11,22,f,y,y,2019_Jul_11_1000,2AFC_task,59.9020481224083,
stimuli/hdri_light_04_a.png,stimuli/hdri_light_04_b.png,6,2,242,13,"[1, 0]",right,0,11,22,f,y,y,2019_Jul_11_1000,2AFC_task,59.9020481224083,
stimuli/hdri_light_05_a.png,stimuli/hdri_light_05_b.png,6,3,243,14,"[1, 0]",right,0,11,22,f,y,y,2019_Jul_11_1000,2AFC_task,59.9020481224083,
stimuli/lamp_bump_09_a.png,stimuli/lamp_bump_09_b.png,6,4,244,28,"[1, 0]",right,0,11,22,f,y,y,2019_Jul_11_1000,2AFC_task,59.9020481224083,
stimuli/lamp_light_02_a.png,stimuli/lamp_light_02_b.png,6,5,245,31,"[0, 1]",right,1,11,22,f,y,y,2019_Jul_11_1000,2AFC_task,59.9020481224083,
stimuli/hdri_light_06_a.png,stimuli/hdri_light_06_b.png,6,6,246,15,"[1, 0]",left,1,11,22,f,y,y,2019_Jul_11_1000,2AFC_task,59.9020481224083,
stimuli/lamp_light_05_a.png,stimuli/lamp_light_05_b.png,6,7,247,34,"[1, 0]",left,1,11,22,f,y,y,2019_Jul_11_1000,2AFC_task,59.9020481224083,
stimuli/hdri_light_02_a.png,stimuli/hdri_light_02_b.png,6,8,248,11,"[1, 0]",right,0,11,22,f,y,y,2019_Jul_11_1000,2AFC_task,59.9020481224083,
stimuli/lamp_light_09_a.png,stimuli/lamp_light_09_b.png,6,9,249,38,"[0, 1]",right,1,11,22,f,y,y,2019_Jul_11_1000,2AFC_task,59.9020481224083,
stimuli/hdri_bump_03_a.png,stimuli/hdri_bump_03_b.png,6,10,250,2,"[0, 1]",right,1,11,22,f,y,y,2019_Jul_11_1000,2AFC_task,59.9020481224083,
stimuli/lamp_bump_06_a.png,stimuli/lamp_bump_06_b.png,6,11,251,25,"[1, 0]",right,0,11,22,f,y,y,2019_Jul_11_1000,2AFC_task,59.9020481224083,
stimuli/hdri_bump_08_a.png,stimuli/hdri_bump_08_b.png,6,12,252,7,"[1, 0]",left,1,11,22,f,y,y,2019_Jul_11_1000,2AFC_task,59.9020481224083,
stimuli/lamp_bump_07_a.png,stimuli/lamp_bump_07_b.png,6,13,253,26,"[1, 0]",right,0,11,22,f,y,y,2019_Jul_11_1000,2AFC_task,59.9020481224083,
stimuli/lamp_bump_08_a.png,stimuli/lamp_bump_08_b.png,6,14,254,27,"[1, 0]",left,1,11,22,f,y,y,2019_Jul_11_1000,2AFC_task,59.9020481224083,
stimuli/hdri_bump_05_a.png,stimuli/hdri_bump_05_b.png,6,15,255,4,"[0, 1]",right,1,11,22,f,y,y,2019_Jul_11_1000,2AFC_task,59.9020481224083,
stimuli/lamp_bump_03_a.png,stimuli/lamp_bump_03_b.png,6,16,256,22,"[0, 1]",right,1,11,22,f,y,y,2019_Jul_11_1000,2AFC_task,59.9020481224083,
stimuli/lamp_bump_01_a.png,stimuli/lamp_bump_01_b.png,6,17,257,20,"[0, 1]",left,0,11,22,f,y,y,2019_Jul_11_1000,2AFC_task,59.9020481224083,
stimuli/hdri_light_08_a.png,stimuli/hdri_light_08_b.png,6,18,258,17,"[0, 1]",right,1,11,22,f,y,y,2019_Jul_11_1000,2AFC_task,59.9020481224083,
stimuli/hdri_bump_10_a.png,stimuli/hdri_bump_10_b.png,6,19,259,9,"[1, 0]",left,1,11,22,f,y,y,2019_Jul_11_1000,2AFC_task,59.9020481224083,
stimuli/hdri_light_10_a.png,stimuli/hdri_light_10_b.png,6,20,260,19,"[0, 1]",right,1,11,22,f,y,y,2019_Jul_11_1000,2AFC_task,59.9020481224083,
stimuli/hdri_bump_07_a.png,stimuli/hdri_bump_07_b.png,6,21,261,6,"[1, 0]",left,1,11,22,f,y,y,2019_Jul_11_1000,2AFC_task,59.9020481224083,
stimuli/lamp_light_04_a.png,stimuli/lamp_light_04_b.png,6,22,262,33,"[1, 0]",right,0,11,22,f,y,y,2019_Jul_11_1000,2AFC_task,59.9020481224083,
stimuli/lamp_bump_10_a.png,stimuli/lamp_bump_10_b.png,6,23,263,29,"[1, 0]",left,1,11,22,f,y,y,2019_Jul_11_1000,2AFC_task,59.9020481224083,
stimuli/lamp_bump_02_a.png,stimuli/lamp_bump_02_b.png,6,24,264,21,"[1, 0]",right,0,11,22,f,y,y,2019_Jul_11_1000,2AFC_task,59.9020481224083,
stimuli/hdri_light_09_a.png,stimuli/hdri_light_09_b.png,6,25,265,18,"[1, 0]",right,0,11,22,f,y,y,2019_Jul_11_1000,2AFC_task,59.9020481224083,
stimuli/hdri_bump_09_a.png,stimuli/hdri_bump_09_b.png,6,26,266,8,"[1, 0]",left,1,11,22,f,y,y,2019_Jul_11_1000,2AFC_task,59.9020481224083,
stimuli/hdri_light_01_a.png,stimuli/hdri_light_01_b.png,6,27,267,10,"[1, 0]",right,0,11,22,f,y,y,2019_Jul_11_1000,2AFC_task,59.9020481224083,
stimuli/hdri_light_07_a.png,stimuli/hdri_light_07_b.png,6,28,268,16,"[1, 0]",left,1,11,22,f,y,y,2019_Jul_11_1000,2AFC_task,59.9020481224083,
stimuli/lamp_light_08_a.png,stimuli/lamp_light_08_b.png,6,29,269,37,"[1, 0]",left,1,11,22,f,y,y,2019_Jul_11_1000,2AFC_task,59.9020481224083,
stimuli/hdri_bump_06_a.png,stimuli/hdri_bump_06_b.png,6,30,270,5,"[0, 1]",right,1,11,22,f,y,y,2019_Jul_11_1000,2AFC_task,59.9020481224083,
stimuli/lamp_light_03_a.png,stimuli/lamp_light_03_b.png,6,31,271,32,"[0, 1]",left,0,11,22,f,y,y,2019_Jul_11_1000,2AFC_task,59.9020481224083,
stimuli/lamp_light_01_a.png,stimuli/lamp_light_01_b.png,6,32,272,30,"[0, 1]",right,1,11,22,f,y,y,2019_Jul_11_1000,2AFC_task,59.9020481224083,
stimuli/lamp_light_06_a.png,stimuli/lamp_light_06_b.png,6,33,273,35,"[1, 0]",left,1,11,22,f,y,y,2019_Jul_11_1000,2AFC_task,59.9020481224083,
stimuli/lamp_bump_04_a.png,stimuli/lamp_bump_04_b.png,6,34,274,23,"[0, 1]",left,0,11,22,f,y,y,2019_Jul_11_1000,2AFC_task,59.9020481224083,
stimuli/hdri_light_03_a.png,stimuli/hdri_light_03_b.png,6,35,275,12,"[0, 1]",right,1,11,22,f,y,y,2019_Jul_11_1000,2AFC_task,59.9020481224083,
stimuli/hdri_bump_04_a.png,stimuli/hdri_bump_04_b.png,6,36,276,3,"[0, 1]",right,1,11,22,f,y,y,2019_Jul_11_1000,2AFC_task,59.9020481224083,
stimuli/lamp_bump_05_a.png,stimuli/lamp_bump_05_b.png,6,37,277,24,"[0, 1]",left,0,11,22,f,y,y,2019_Jul_11_1000,2AFC_task,59.9020481224083,
stimuli/hdri_bump_01_a.png,stimuli/hdri_bump_01_b.png,6,38,278,0,"[1, 0]",left,1,11,22,f,y,y,2019_Jul_11_1000,2AFC_task,59.9020481224083,
stimuli/lamp_light_10_a.png,stimuli/lamp_light_10_b.png,6,39,279,39,"[0, 1]",right,1,11,22,f,y,y,2019_Jul_11_1000,2AFC_task,59.9020481224083,
stimuli/hdri_light_02_a.png,stimuli/hdri_light_02_b.png,7,0,280,11,"[1, 0]",left,1,11,22,f,y,y,2019_Jul_11_1000,2AFC_task,59.9020481224083,
stimuli/lamp_light_08_a.png,stimuli/lamp_light_08_b.png,7,1,281,37,"[1, 0]",left,1,11,22,f,y,y,2019_Jul_11_1000,2AFC_task,59.9020481224083,
stimuli/hdri_light_09_a.png,stimuli/hdri_light_09_b.png,7,2,282,18,"[0, 1]",left,0,11,22,f,y,y,2019_Jul_11_1000,2AFC_task,59.9020481224083,
stimuli/lamp_bump_08_a.png,stimuli/lamp_bump_08_b.png,7,3,283,27,"[1, 0]",right,0,11,22,f,y,y,2019_Jul_11_1000,2AFC_task,59.9020481224083,
stimuli/hdri_bump_04_a.png,stimuli/hdri_bump_04_b.png,7,4,284,3,"[1, 0]",left,1,11,22,f,y,y,2019_Jul_11_1000,2AFC_task,59.9020481224083,
stimuli/hdri_light_10_a.png,stimuli/hdri_light_10_b.png,7,5,285,19,"[1, 0]",left,1,11,22,f,y,y,2019_Jul_11_1000,2AFC_task,59.9020481224083,
stimuli/hdri_light_07_a.png,stimuli/hdri_light_07_b.png,7,6,286,16,"[0, 1]",right,1,11,22,f,y,y,2019_Jul_11_1000,2AFC_task,59.9020481224083,
stimuli/lamp_bump_06_a.png,stimuli/lamp_bump_06_b.png,7,7,287,25,"[0, 1]",left,0,11,22,f,y,y,2019_Jul_11_1000,2AFC_task,59.9020481224083,
stimuli/hdri_bump_10_a.png,stimuli/hdri_bump_10_b.png,7,8,288,9,"[0, 1]",right,1,11,22,f,y,y,2019_Jul_11_1000,2AFC_task,59.9020481224083,
stimuli/hdri_bump_08_a.png,stimuli/hdri_bump_08_b.png,7,9,289,7,"[0, 1]",left,0,11,22,f,y,y,2019_Jul_11_1000,2AFC_task,59.9020481224083,
stimuli/hdri_light_06_a.png,stimuli/hdri_light_06_b.png,7,10,290,15,"[1, 0]",right,0,11,22,f,y,y,2019_Jul_11_1000,2AFC_task,59.9020481224083,
stimuli/lamp_bump_05_a.png,stimuli/lamp_bump_05_b.png,7,11,291,24,"[1, 0]",left,1,11,22,f,y,y,2019_Jul_11_1000,2AFC_task,59.9020481224083,
stimuli/hdri_bump_07_a.png,stimuli/hdri_bump_07_b.png,7,12,292,6,"[1, 0]",left,1,11,22,f,y,y,2019_Jul_11_1000,2AFC_task,59.9020481224083,
stimuli/lamp_light_10_a.png,stimuli/lamp_light_10_b.png,7,13,293,39,"[1, 0]",left,1,11,22,f,y,y,2019_Jul_11_1000,2AFC_task,59.9020481224083,
stimuli/lamp_light_07_a.png,stimuli/lamp_light_07_b.png,7,14,294,36,"[1, 0]",left,1,11,22,f,y,y,2019_Jul_11_1000,2AFC_task,59.9020481224083,
stimuli/hdri_light_08_a.png,stimuli/hdri_light_08_b.png,7,15,295,17,"[1, 0]",left,1,11,22,f,y,y,2019_Jul_11_1000,2AFC_task,59.9020481224083,
stimuli/lamp_bump_10_a.png,stimuli/lamp_bump_10_b.png,7,16,296,29,"[1, 0]",left,1,11,22,f,y,y,2019_Jul_11_1000,2AFC_task,59.9020481224083,
stimuli/lamp_light_01_a.png,stimuli/lamp_light_01_b.png,7,17,297,30,"[0, 1]",right,1,11,22,f,y,y,2019_Jul_11_1000,2AFC_task,59.9020481224083,
stimuli/lamp_light_04_a.png,stimuli/lamp_light_04_b.png,7,18,298,33,"[0, 1]",right,1,11,22,f,y,y,2019_Jul_11_1000,2AFC_task,59.9020481224083,
stimuli/hdri_bump_05_a.png,stimuli/hdri_bump_05_b.png,7,19,299,4,"[1, 0]",left,1,11,22,f,y,y,2019_Jul_11_1000,2AFC_task,59.9020481224083,
stimuli/lamp_bump_01_a.png,stimuli/lamp_bump_01_b.png,7,20,300,20,"[0, 1]",left,0,11,22,f,y,y,2019_Jul_11_1000,2AFC_task,59.9020481224083,
stimuli/lamp_bump_02_a.png,stimuli/lamp_bump_02_b.png,7,21,301,21,"[1, 0]",right,0,11,22,f,y,y,2019_Jul_11_1000,2AFC_task,59.9020481224083,
stimuli/hdri_light_01_a.png,stimuli/hdri_light_01_b.png,7,22,302,10,"[0, 1]",left,0,11,22,f,y,y,2019_Jul_11_1000,2AFC_task,59.9020481224083,
stimuli/hdri_bump_03_a.png,stimuli/hdri_bump_03_b.png,7,23,303,2,"[0, 1]",right,1,11,22,f,y,y,2019_Jul_11_1000,2AFC_task,59.9020481224083,
stimuli/lamp_light_03_a.png,stimuli/lamp_light_03_b.png,7,24,304,32,"[0, 1]",left,0,11,22,f,y,y,2019_Jul_11_1000,2AFC_task,59.9020481224083,
stimuli/hdri_bump_02_a.png,stimuli/hdri_bump_02_b.png,7,25,305,1,"[1, 0]",left,1,11,22,f,y,y,2019_Jul_11_1000,2AFC_task,59.9020481224083,
stimuli/lamp_bump_03_a.png,stimuli/lamp_bump_03_b.png,7,26,306,22,"[1, 0]",left,1,11,22,f,y,y,2019_Jul_11_1000,2AFC_task,59.9020481224083,
stimuli/lamp_light_02_a.png,stimuli/lamp_light_02_b.png,7,27,307,31,"[0, 1]",right,1,11,22,f,y,y,2019_Jul_11_1000,2AFC_task,59.9020481224083,
stimuli/lamp_bump_04_a.png,stimuli/lamp_bump_04_b.png,7,28,308,23,"[1, 0]",right,0,11,22,f,y,y,2019_Jul_11_1000,2AFC_task,59.9020481224083,
stimuli/lamp_light_06_a.png,stimuli/lamp_light_06_b.png,7,29,309,35,"[0, 1]",right,1,11,22,f,y,y,2019_Jul_11_1000,2AFC_task,59.9020481224083,
stimuli/lamp_light_09_a.png,stimuli/lamp_light_09_b.png,7,30,310,38,"[0, 1]",right,1,11,22,f,y,y,2019_Jul_11_1000,2AFC_task,59.9020481224083,
stimuli/lamp_light_05_a.png,stimuli/lamp_light_05_b.png,7,31,311,34,"[1, 0]",left,1,11,22,f,y,y,2019_Jul_11_1000,2AFC_task,59.9020481224083,
stimuli/hdri_bump_06_a.png,stimuli/hdri_bump_06_b.png,7,32,312,5,"[1, 0]",left,1,11,22,f,y,y,2019_Jul_11_1000,2AFC_task,59.9020481224083,
stimuli/hdri_light_04_a.png,stimuli/hdri_light_04_b.png,7,33,313,13,"[0, 1]",left,0,11,22,f,y,y,2019_Jul_11_1000,2AFC_task,59.9020481224083,
stimuli/hdri_light_03_a.png,stimuli/hdri_light_03_b.png,7,34,314,12,"[0, 1]",left,0,11,22,f,y,y,2019_Jul_11_1000,2AFC_task,59.9020481224083,
stimuli/hdri_bump_01_a.png,stimuli/hdri_bump_01_b.png,7,35,315,0,"[1, 0]",left,1,11,22,f,y,y,2019_Jul_11_1000,2AFC_task,59.9020481224083,
stimuli/hdri_light_05_a.png,stimuli/hdri_light_05_b.png,7,36,316,14,"[1, 0]",right,0,11,22,f,y,y,2019_Jul_11_1000,2AFC_task,59.9020481224083,
stimuli/lamp_bump_09_a.png,stimuli/lamp_bump_09_b.png,7,37,317,28,"[1, 0]",left,1,11,22,f,y,y,2019_Jul_11_1000,2AFC_task,59.9020481224083,
stimuli/lamp_bump_07_a.png,stimuli/lamp_bump_07_b.png,7,38,318,26,"[0, 1]",left,0,11,22,f,y,y,2019_Jul_11_1000,2AFC_task,59.9020481224083,
stimuli/hdri_bump_09_a.png,stimuli/hdri_bump_09_b.png,7,39,319,8,"[0, 1]",left,0,11,22,f,y,y,2019_Jul_11_1000,2AFC_task,59.9020481224083,
