stimOne,stimTwo,trials_1.thisRepN,trials_1.thisTrialN,trials_1.thisN,trials_1.thisIndex,presentation_positions,resp_key,corresponding_image,participant ID (two digits, e.g. 01),age,gender (m/f/-),normal or corrected-to-normal vision (y/n),normal colour vision (y/n),date,expName,frameRate,
stimuli/hdri_bump_03_a.png,stimuli/hdri_bump_03_b.png,0,0,0,2,"[1, 0]",left,1,12,25,f,y,y,2019_Jul_11_1331,2AFC_task,59.966742428765194,
stimuli/lamp_bump_10_a.png,stimuli/lamp_bump_10_b.png,0,1,1,29,"[1, 0]",left,1,12,25,f,y,y,2019_Jul_11_1331,2AFC_task,59.966742428765194,
stimuli/hdri_light_09_a.png,stimuli/hdri_light_09_b.png,0,2,2,18,"[0, 1]",left,0,12,25,f,y,y,2019_Jul_11_1331,2AFC_task,59.966742428765194,
stimuli/lamp_bump_03_a.png,stimuli/lamp_bump_03_b.png,0,3,3,22,"[0, 1]",right,1,12,25,f,y,y,2019_Jul_11_1331,2AFC_task,59.966742428765194,
stimuli/lamp_bump_01_a.png,stimuli/lamp_bump_01_b.png,0,4,4,20,"[0, 1]",left,0,12,25,f,y,y,2019_Jul_11_1331,2AFC_task,59.966742428765194,
stimuli/lamp_light_04_a.png,stimuli/lamp_light_04_b.png,0,5,5,33,"[1, 0]",right,0,12,25,f,y,y,2019_Jul_11_1331,2AFC_task,59.966742428765194,
stimuli/lamp_light_07_a.png,stimuli/lamp_light_07_b.png,0,6,6,36,"[1, 0]",left,1,12,25,f,y,y,2019_Jul_11_1331,2AFC_task,59.966742428765194,
stimuli/lamp_light_10_a.png,stimuli/lamp_light_10_b.png,0,7,7,39,"[1, 0]",left,1,12,25,f,y,y,2019_Jul_11_1331,2AFC_task,59.966742428765194,
stimuli/hdri_light_07_a.png,stimuli/hdri_light_07_b.png,0,8,8,16,"[1, 0]",left,1,12,25,f,y,y,2019_Jul_11_1331,2AFC_task,59.966742428765194,
stimuli/hdri_light_01_a.png,stimuli/hdri_light_01_b.png,0,9,9,10,"[0, 1]",left,0,12,25,f,y,y,2019_Jul_11_1331,2AFC_task,59.966742428765194,
stimuli/lamp_bump_05_a.png,stimuli/lamp_bump_05_b.png,0,10,10,24,"[1, 0]",left,1,12,25,f,y,y,2019_Jul_11_1331,2AFC_task,59.966742428765194,
stimuli/lamp_light_09_a.png,stimuli/lamp_light_09_b.png,0,11,11,38,"[1, 0]",left,1,12,25,f,y,y,2019_Jul_11_1331,2AFC_task,59.966742428765194,
stimuli/lamp_bump_09_a.png,stimuli/lamp_bump_09_b.png,0,12,12,28,"[0, 1]",left,0,12,25,f,y,y,2019_Jul_11_1331,2AFC_task,59.966742428765194,
stimuli/hdri_light_03_a.png,stimuli/hdri_light_03_b.png,0,13,13,12,"[0, 1]",left,0,12,25,f,y,y,2019_Jul_11_1331,2AFC_task,59.966742428765194,
stimuli/hdri_bump_06_a.png,stimuli/hdri_bump_06_b.png,0,14,14,5,"[1, 0]",left,1,12,25,f,y,y,2019_Jul_11_1331,2AFC_task,59.966742428765194,
stimuli/hdri_light_04_a.png,stimuli/hdri_light_04_b.png,0,15,15,13,"[0, 1]",right,1,12,25,f,y,y,2019_Jul_11_1331,2AFC_task,59.966742428765194,
stimuli/lamp_bump_02_a.png,stimuli/lamp_bump_02_b.png,0,16,16,21,"[1, 0]",right,0,12,25,f,y,y,2019_Jul_11_1331,2AFC_task,59.966742428765194,
stimuli/lamp_bump_07_a.png,stimuli/lamp_bump_07_b.png,0,17,17,26,"[1, 0]",right,0,12,25,f,y,y,2019_Jul_11_1331,2AFC_task,59.966742428765194,
stimuli/lamp_bump_04_a.png,stimuli/lamp_bump_04_b.png,0,18,18,23,"[0, 1]",left,0,12,25,f,y,y,2019_Jul_11_1331,2AFC_task,59.966742428765194,
stimuli/hdri_light_05_a.png,stimuli/hdri_light_05_b.png,0,19,19,14,"[0, 1]",left,0,12,25,f,y,y,2019_Jul_11_1331,2AFC_task,59.966742428765194,
stimuli/lamp_bump_08_a.png,stimuli/lamp_bump_08_b.png,0,20,20,27,"[0, 1]",left,0,12,25,f,y,y,2019_Jul_11_1331,2AFC_task,59.966742428765194,
stimuli/lamp_light_08_a.png,stimuli/lamp_light_08_b.png,0,21,21,37,"[0, 1]",right,1,12,25,f,y,y,2019_Jul_11_1331,2AFC_task,59.966742428765194,
stimuli/hdri_light_10_a.png,stimuli/hdri_light_10_b.png,0,22,22,19,"[1, 0]",left,1,12,25,f,y,y,2019_Jul_11_1331,2AFC_task,59.966742428765194,
stimuli/hdri_bump_09_a.png,stimuli/hdri_bump_09_b.png,0,23,23,8,"[0, 1]",right,1,12,25,f,y,y,2019_Jul_11_1331,2AFC_task,59.966742428765194,
stimuli/hdri_light_06_a.png,stimuli/hdri_light_06_b.png,0,24,24,15,"[0, 1]",left,0,12,25,f,y,y,2019_Jul_11_1331,2AFC_task,59.966742428765194,
stimuli/hdri_bump_05_a.png,stimuli/hdri_bump_05_b.png,0,25,25,4,"[0, 1]",right,1,12,25,f,y,y,2019_Jul_11_1331,2AFC_task,59.966742428765194,
stimuli/hdri_light_02_a.png,stimuli/hdri_light_02_b.png,0,26,26,11,"[1, 0]",right,0,12,25,f,y,y,2019_Jul_11_1331,2AFC_task,59.966742428765194,
stimuli/hdri_bump_04_a.png,stimuli/hdri_bump_04_b.png,0,27,27,3,"[1, 0]",left,1,12,25,f,y,y,2019_Jul_11_1331,2AFC_task,59.966742428765194,
stimuli/hdri_light_08_a.png,stimuli/hdri_light_08_b.png,0,28,28,17,"[1, 0]",left,1,12,25,f,y,y,2019_Jul_11_1331,2AFC_task,59.966742428765194,
stimuli/hdri_bump_08_a.png,stimuli/hdri_bump_08_b.png,0,29,29,7,"[0, 1]",right,1,12,25,f,y,y,2019_Jul_11_1331,2AFC_task,59.966742428765194,
stimuli/lamp_bump_06_a.png,stimuli/lamp_bump_06_b.png,0,30,30,25,"[1, 0]",right,0,12,25,f,y,y,2019_Jul_11_1331,2AFC_task,59.966742428765194,
stimuli/lamp_light_01_a.png,stimuli/lamp_light_01_b.png,0,31,31,30,"[0, 1]",right,1,12,25,f,y,y,2019_Jul_11_1331,2AFC_task,59.966742428765194,
stimuli/hdri_bump_02_a.png,stimuli/hdri_bump_02_b.png,0,32,32,1,"[0, 1]",right,1,12,25,f,y,y,2019_Jul_11_1331,2AFC_task,59.966742428765194,
stimuli/hdri_bump_07_a.png,stimuli/hdri_bump_07_b.png,0,33,33,6,"[1, 0]",left,1,12,25,f,y,y,2019_Jul_11_1331,2AFC_task,59.966742428765194,
stimuli/lamp_light_02_a.png,stimuli/lamp_light_02_b.png,0,34,34,31,"[1, 0]",left,1,12,25,f,y,y,2019_Jul_11_1331,2AFC_task,59.966742428765194,
stimuli/hdri_bump_10_a.png,stimuli/hdri_bump_10_b.png,0,35,35,9,"[1, 0]",left,1,12,25,f,y,y,2019_Jul_11_1331,2AFC_task,59.966742428765194,
stimuli/lamp_light_05_a.png,stimuli/lamp_light_05_b.png,0,36,36,34,"[0, 1]",right,1,12,25,f,y,y,2019_Jul_11_1331,2AFC_task,59.966742428765194,
stimuli/hdri_bump_01_a.png,stimuli/hdri_bump_01_b.png,0,37,37,0,"[1, 0]",left,1,12,25,f,y,y,2019_Jul_11_1331,2AFC_task,59.966742428765194,
stimuli/lamp_light_03_a.png,stimuli/lamp_light_03_b.png,0,38,38,32,"[1, 0]",left,1,12,25,f,y,y,2019_Jul_11_1331,2AFC_task,59.966742428765194,
stimuli/lamp_light_06_a.png,stimuli/lamp_light_06_b.png,0,39,39,35,"[1, 0]",left,1,12,25,f,y,y,2019_Jul_11_1331,2AFC_task,59.966742428765194,
stimuli/hdri_bump_02_a.png,stimuli/hdri_bump_02_b.png,1,0,40,1,"[1, 0]",left,1,12,25,f,y,y,2019_Jul_11_1331,2AFC_task,59.966742428765194,
stimuli/lamp_light_02_a.png,stimuli/lamp_light_02_b.png,1,1,41,31,"[1, 0]",left,1,12,25,f,y,y,2019_Jul_11_1331,2AFC_task,59.966742428765194,
stimuli/hdri_light_07_a.png,stimuli/hdri_light_07_b.png,1,2,42,16,"[0, 1]",right,1,12,25,f,y,y,2019_Jul_11_1331,2AFC_task,59.966742428765194,
stimuli/hdri_light_05_a.png,stimuli/hdri_light_05_b.png,1,3,43,14,"[1, 0]",right,0,12,25,f,y,y,2019_Jul_11_1331,2AFC_task,59.966742428765194,
stimuli/hdri_bump_06_a.png,stimuli/hdri_bump_06_b.png,1,4,44,5,"[1, 0]",left,1,12,25,f,y,y,2019_Jul_11_1331,2AFC_task,59.966742428765194,
stimuli/lamp_light_03_a.png,stimuli/lamp_light_03_b.png,1,5,45,32,"[1, 0]",left,1,12,25,f,y,y,2019_Jul_11_1331,2AFC_task,59.966742428765194,
stimuli/lamp_light_10_a.png,stimuli/lamp_light_10_b.png,1,6,46,39,"[1, 0]",left,1,12,25,f,y,y,2019_Jul_11_1331,2AFC_task,59.966742428765194,
stimuli/hdri_light_02_a.png,stimuli/hdri_light_02_b.png,1,7,47,11,"[1, 0]",right,0,12,25,f,y,y,2019_Jul_11_1331,2AFC_task,59.966742428765194,
stimuli/hdri_bump_04_a.png,stimuli/hdri_bump_04_b.png,1,8,48,3,"[0, 1]",right,1,12,25,f,y,y,2019_Jul_11_1331,2AFC_task,59.966742428765194,
stimuli/lamp_light_09_a.png,stimuli/lamp_light_09_b.png,1,9,49,38,"[0, 1]",right,1,12,25,f,y,y,2019_Jul_11_1331,2AFC_task,59.966742428765194,
stimuli/lamp_light_04_a.png,stimuli/lamp_light_04_b.png,1,10,50,33,"[1, 0]",left,1,12,25,f,y,y,2019_Jul_11_1331,2AFC_task,59.966742428765194,
stimuli/hdri_bump_01_a.png,stimuli/hdri_bump_01_b.png,1,11,51,0,"[0, 1]",right,1,12,25,f,y,y,2019_Jul_11_1331,2AFC_task,59.966742428765194,
stimuli/hdri_bump_03_a.png,stimuli/hdri_bump_03_b.png,1,12,52,2,"[1, 0]",right,0,12,25,f,y,y,2019_Jul_11_1331,2AFC_task,59.966742428765194,
stimuli/hdri_light_04_a.png,stimuli/hdri_light_04_b.png,1,13,53,13,"[1, 0]",right,0,12,25,f,y,y,2019_Jul_11_1331,2AFC_task,59.966742428765194,
stimuli/lamp_bump_05_a.png,stimuli/lamp_bump_05_b.png,1,14,54,24,"[1, 0]",left,1,12,25,f,y,y,2019_Jul_11_1331,2AFC_task,59.966742428765194,
stimuli/lamp_bump_03_a.png,stimuli/lamp_bump_03_b.png,1,15,55,22,"[0, 1]",right,1,12,25,f,y,y,2019_Jul_11_1331,2AFC_task,59.966742428765194,
stimuli/hdri_bump_08_a.png,stimuli/hdri_bump_08_b.png,1,16,56,7,"[1, 0]",left,1,12,25,f,y,y,2019_Jul_11_1331,2AFC_task,59.966742428765194,
stimuli/hdri_bump_09_a.png,stimuli/hdri_bump_09_b.png,1,17,57,8,"[0, 1]",right,1,12,25,f,y,y,2019_Jul_11_1331,2AFC_task,59.966742428765194,
stimuli/lamp_bump_06_a.png,stimuli/lamp_bump_06_b.png,1,18,58,25,"[0, 1]",left,0,12,25,f,y,y,2019_Jul_11_1331,2AFC_task,59.966742428765194,
stimuli/hdri_light_03_a.png,stimuli/hdri_light_03_b.png,1,19,59,12,"[1, 0]",right,0,12,25,f,y,y,2019_Jul_11_1331,2AFC_task,59.966742428765194,
stimuli/hdri_bump_07_a.png,stimuli/hdri_bump_07_b.png,1,20,60,6,"[0, 1]",right,1,12,25,f,y,y,2019_Jul_11_1331,2AFC_task,59.966742428765194,
stimuli/lamp_light_05_a.png,stimuli/lamp_light_05_b.png,1,21,61,34,"[0, 1]",right,1,12,25,f,y,y,2019_Jul_11_1331,2AFC_task,59.966742428765194,
stimuli/hdri_light_01_a.png,stimuli/hdri_light_01_b.png,1,22,62,10,"[0, 1]",left,0,12,25,f,y,y,2019_Jul_11_1331,2AFC_task,59.966742428765194,
stimuli/hdri_light_08_a.png,stimuli/hdri_light_08_b.png,1,23,63,17,"[0, 1]",right,1,12,25,f,y,y,2019_Jul_11_1331,2AFC_task,59.966742428765194,
stimuli/hdri_bump_10_a.png,stimuli/hdri_bump_10_b.png,1,24,64,9,"[0, 1]",right,1,12,25,f,y,y,2019_Jul_11_1331,2AFC_task,59.966742428765194,
stimuli/lamp_bump_02_a.png,stimuli/lamp_bump_02_b.png,1,25,65,21,"[0, 1]",right,1,12,25,f,y,y,2019_Jul_11_1331,2AFC_task,59.966742428765194,
stimuli/lamp_light_06_a.png,stimuli/lamp_light_06_b.png,1,26,66,35,"[1, 0]",left,1,12,25,f,y,y,2019_Jul_11_1331,2AFC_task,59.966742428765194,
stimuli/hdri_bump_05_a.png,stimuli/hdri_bump_05_b.png,1,27,67,4,"[0, 1]",right,1,12,25,f,y,y,2019_Jul_11_1331,2AFC_task,59.966742428765194,
stimuli/hdri_light_06_a.png,stimuli/hdri_light_06_b.png,1,28,68,15,"[1, 0]",right,0,12,25,f,y,y,2019_Jul_11_1331,2AFC_task,59.966742428765194,
stimuli/hdri_light_10_a.png,stimuli/hdri_light_10_b.png,1,29,69,19,"[0, 1]",right,1,12,25,f,y,y,2019_Jul_11_1331,2AFC_task,59.966742428765194,
stimuli/lamp_bump_10_a.png,stimuli/lamp_bump_10_b.png,1,30,70,29,"[0, 1]",right,1,12,25,f,y,y,2019_Jul_11_1331,2AFC_task,59.966742428765194,
stimuli/lamp_bump_09_a.png,stimuli/lamp_bump_09_b.png,1,31,71,28,"[1, 0]",right,0,12,25,f,y,y,2019_Jul_11_1331,2AFC_task,59.966742428765194,
stimuli/lamp_light_08_a.png,stimuli/lamp_light_08_b.png,1,32,72,37,"[1, 0]",left,1,12,25,f,y,y,2019_Jul_11_1331,2AFC_task,59.966742428765194,
stimuli/lamp_bump_07_a.png,stimuli/lamp_bump_07_b.png,1,33,73,26,"[1, 0]",right,0,12,25,f,y,y,2019_Jul_11_1331,2AFC_task,59.966742428765194,
stimuli/lamp_light_07_a.png,stimuli/lamp_light_07_b.png,1,34,74,36,"[0, 1]",right,1,12,25,f,y,y,2019_Jul_11_1331,2AFC_task,59.966742428765194,
stimuli/lamp_bump_01_a.png,stimuli/lamp_bump_01_b.png,1,35,75,20,"[1, 0]",left,1,12,25,f,y,y,2019_Jul_11_1331,2AFC_task,59.966742428765194,
stimuli/hdri_light_09_a.png,stimuli/hdri_light_09_b.png,1,36,76,18,"[1, 0]",right,0,12,25,f,y,y,2019_Jul_11_1331,2AFC_task,59.966742428765194,
stimuli/lamp_bump_04_a.png,stimuli/lamp_bump_04_b.png,1,37,77,23,"[0, 1]",left,0,12,25,f,y,y,2019_Jul_11_1331,2AFC_task,59.966742428765194,
stimuli/lamp_bump_08_a.png,stimuli/lamp_bump_08_b.png,1,38,78,27,"[0, 1]",left,0,12,25,f,y,y,2019_Jul_11_1331,2AFC_task,59.966742428765194,
stimuli/lamp_light_01_a.png,stimuli/lamp_light_01_b.png,1,39,79,30,"[1, 0]",left,1,12,25,f,y,y,2019_Jul_11_1331,2AFC_task,59.966742428765194,
stimuli/hdri_light_04_a.png,stimuli/hdri_light_04_b.png,2,0,80,13,"[0, 1]",left,0,12,25,f,y,y,2019_Jul_11_1331,2AFC_task,59.966742428765194,
stimuli/hdri_light_07_a.png,stimuli/hdri_light_07_b.png,2,1,81,16,"[1, 0]",left,1,12,25,f,y,y,2019_Jul_11_1331,2AFC_task,59.966742428765194,
stimuli/lamp_light_05_a.png,stimuli/lamp_light_05_b.png,2,2,82,34,"[0, 1]",right,1,12,25,f,y,y,2019_Jul_11_1331,2AFC_task,59.966742428765194,
stimuli/lamp_bump_02_a.png,stimuli/lamp_bump_02_b.png,2,3,83,21,"[1, 0]",right,0,12,25,f,y,y,2019_Jul_11_1331,2AFC_task,59.966742428765194,
stimuli/lamp_bump_09_a.png,stimuli/lamp_bump_09_b.png,2,4,84,28,"[0, 1]",left,0,12,25,f,y,y,2019_Jul_11_1331,2AFC_task,59.966742428765194,
stimuli/lamp_light_09_a.png,stimuli/lamp_light_09_b.png,2,5,85,38,"[0, 1]",right,1,12,25,f,y,y,2019_Jul_11_1331,2AFC_task,59.966742428765194,
stimuli/lamp_bump_03_a.png,stimuli/lamp_bump_03_b.png,2,6,86,22,"[0, 1]",right,1,12,25,f,y,y,2019_Jul_11_1331,2AFC_task,59.966742428765194,
stimuli/lamp_bump_05_a.png,stimuli/lamp_bump_05_b.png,2,7,87,24,"[1, 0]",left,1,12,25,f,y,y,2019_Jul_11_1331,2AFC_task,59.966742428765194,
stimuli/lamp_light_02_a.png,stimuli/lamp_light_02_b.png,2,8,88,31,"[0, 1]",right,1,12,25,f,y,y,2019_Jul_11_1331,2AFC_task,59.966742428765194,
stimuli/lamp_bump_10_a.png,stimuli/lamp_bump_10_b.png,2,9,89,29,"[1, 0]",left,1,12,25,f,y,y,2019_Jul_11_1331,2AFC_task,59.966742428765194,
stimuli/lamp_bump_07_a.png,stimuli/lamp_bump_07_b.png,2,10,90,26,"[0, 1]",left,0,12,25,f,y,y,2019_Jul_11_1331,2AFC_task,59.966742428765194,
stimuli/lamp_light_04_a.png,stimuli/lamp_light_04_b.png,2,11,91,33,"[1, 0]",left,1,12,25,f,y,y,2019_Jul_11_1331,2AFC_task,59.966742428765194,
stimuli/lamp_bump_06_a.png,stimuli/lamp_bump_06_b.png,2,12,92,25,"[1, 0]",right,0,12,25,f,y,y,2019_Jul_11_1331,2AFC_task,59.966742428765194,
stimuli/lamp_bump_01_a.png,stimuli/lamp_bump_01_b.png,2,13,93,20,"[0, 1]",right,1,12,25,f,y,y,2019_Jul_11_1331,2AFC_task,59.966742428765194,
stimuli/hdri_bump_03_a.png,stimuli/hdri_bump_03_b.png,2,14,94,2,"[0, 1]",right,1,12,25,f,y,y,2019_Jul_11_1331,2AFC_task,59.966742428765194,
stimuli/hdri_light_09_a.png,stimuli/hdri_light_09_b.png,2,15,95,18,"[1, 0]",right,0,12,25,f,y,y,2019_Jul_11_1331,2AFC_task,59.966742428765194,
stimuli/lamp_light_08_a.png,stimuli/lamp_light_08_b.png,2,16,96,37,"[0, 1]",right,1,12,25,f,y,y,2019_Jul_11_1331,2AFC_task,59.966742428765194,
stimuli/hdri_light_03_a.png,stimuli/hdri_light_03_b.png,2,17,97,12,"[1, 0]",right,0,12,25,f,y,y,2019_Jul_11_1331,2AFC_task,59.966742428765194,
stimuli/lamp_light_01_a.png,stimuli/lamp_light_01_b.png,2,18,98,30,"[1, 0]",left,1,12,25,f,y,y,2019_Jul_11_1331,2AFC_task,59.966742428765194,
stimuli/lamp_bump_08_a.png,stimuli/lamp_bump_08_b.png,2,19,99,27,"[0, 1]",left,0,12,25,f,y,y,2019_Jul_11_1331,2AFC_task,59.966742428765194,
stimuli/hdri_bump_10_a.png,stimuli/hdri_bump_10_b.png,2,20,100,9,"[1, 0]",left,1,12,25,f,y,y,2019_Jul_11_1331,2AFC_task,59.966742428765194,
stimuli/lamp_light_10_a.png,stimuli/lamp_light_10_b.png,2,21,101,39,"[1, 0]",left,1,12,25,f,y,y,2019_Jul_11_1331,2AFC_task,59.966742428765194,
stimuli/lamp_light_07_a.png,stimuli/lamp_light_07_b.png,2,22,102,36,"[1, 0]",left,1,12,25,f,y,y,2019_Jul_11_1331,2AFC_task,59.966742428765194,
stimuli/hdri_bump_08_a.png,stimuli/hdri_bump_08_b.png,2,23,103,7,"[0, 1]",right,1,12,25,f,y,y,2019_Jul_11_1331,2AFC_task,59.966742428765194,
stimuli/hdri_light_05_a.png,stimuli/hdri_light_05_b.png,2,24,104,14,"[1, 0]",right,0,12,25,f,y,y,2019_Jul_11_1331,2AFC_task,59.966742428765194,
stimuli/hdri_bump_04_a.png,stimuli/hdri_bump_04_b.png,2,25,105,3,"[0, 1]",right,1,12,25,f,y,y,2019_Jul_11_1331,2AFC_task,59.966742428765194,
stimuli/hdri_light_02_a.png,stimuli/hdri_light_02_b.png,2,26,106,11,"[0, 1]",left,0,12,25,f,y,y,2019_Jul_11_1331,2AFC_task,59.966742428765194,
stimuli/lamp_light_06_a.png,stimuli/lamp_light_06_b.png,2,27,107,35,"[1, 0]",left,1,12,25,f,y,y,2019_Jul_11_1331,2AFC_task,59.966742428765194,
stimuli/hdri_bump_06_a.png,stimuli/hdri_bump_06_b.png,2,28,108,5,"[0, 1]",right,1,12,25,f,y,y,2019_Jul_11_1331,2AFC_task,59.966742428765194,
stimuli/hdri_light_08_a.png,stimuli/hdri_light_08_b.png,2,29,109,17,"[0, 1]",right,1,12,25,f,y,y,2019_Jul_11_1331,2AFC_task,59.966742428765194,
stimuli/hdri_bump_05_a.png,stimuli/hdri_bump_05_b.png,2,30,110,4,"[0, 1]",right,1,12,25,f,y,y,2019_Jul_11_1331,2AFC_task,59.966742428765194,
stimuli/hdri_bump_07_a.png,stimuli/hdri_bump_07_b.png,2,31,111,6,"[1, 0]",left,1,12,25,f,y,y,2019_Jul_11_1331,2AFC_task,59.966742428765194,
stimuli/hdri_bump_09_a.png,stimuli/hdri_bump_09_b.png,2,32,112,8,"[1, 0]",left,1,12,25,f,y,y,2019_Jul_11_1331,2AFC_task,59.966742428765194,
stimuli/lamp_light_03_a.png,stimuli/lamp_light_03_b.png,2,33,113,32,"[1, 0]",left,1,12,25,f,y,y,2019_Jul_11_1331,2AFC_task,59.966742428765194,
stimuli/hdri_light_06_a.png,stimuli/hdri_light_06_b.png,2,34,114,15,"[1, 0]",right,0,12,25,f,y,y,2019_Jul_11_1331,2AFC_task,59.966742428765194,
stimuli/lamp_bump_04_a.png,stimuli/lamp_bump_04_b.png,2,35,115,23,"[1, 0]",right,0,12,25,f,y,y,2019_Jul_11_1331,2AFC_task,59.966742428765194,
stimuli/hdri_bump_01_a.png,stimuli/hdri_bump_01_b.png,2,36,116,0,"[0, 1]",right,1,12,25,f,y,y,2019_Jul_11_1331,2AFC_task,59.966742428765194,
stimuli/hdri_bump_02_a.png,stimuli/hdri_bump_02_b.png,2,37,117,1,"[1, 0]",left,1,12,25,f,y,y,2019_Jul_11_1331,2AFC_task,59.966742428765194,
stimuli/hdri_light_10_a.png,stimuli/hdri_light_10_b.png,2,38,118,19,"[1, 0]",left,1,12,25,f,y,y,2019_Jul_11_1331,2AFC_task,59.966742428765194,
stimuli/hdri_light_01_a.png,stimuli/hdri_light_01_b.png,2,39,119,10,"[0, 1]",left,0,12,25,f,y,y,2019_Jul_11_1331,2AFC_task,59.966742428765194,
stimuli/hdri_light_04_a.png,stimuli/hdri_light_04_b.png,3,0,120,13,"[1, 0]",right,0,12,25,f,y,y,2019_Jul_11_1331,2AFC_task,59.966742428765194,
stimuli/hdri_light_10_a.png,stimuli/hdri_light_10_b.png,3,1,121,19,"[1, 0]",left,1,12,25,f,y,y,2019_Jul_11_1331,2AFC_task,59.966742428765194,
stimuli/lamp_bump_03_a.png,stimuli/lamp_bump_03_b.png,3,2,122,22,"[1, 0]",left,1,12,25,f,y,y,2019_Jul_11_1331,2AFC_task,59.966742428765194,
stimuli/hdri_bump_05_a.png,stimuli/hdri_bump_05_b.png,3,3,123,4,"[1, 0]",left,1,12,25,f,y,y,2019_Jul_11_1331,2AFC_task,59.966742428765194,
stimuli/lamp_bump_05_a.png,stimuli/lamp_bump_05_b.png,3,4,124,24,"[0, 1]",right,1,12,25,f,y,y,2019_Jul_11_1331,2AFC_task,59.966742428765194,
stimuli/hdri_bump_08_a.png,stimuli/hdri_bump_08_b.png,3,5,125,7,"[0, 1]",right,1,12,25,f,y,y,2019_Jul_11_1331,2AFC_task,59.966742428765194,
stimuli/lamp_light_04_a.png,stimuli/lamp_light_04_b.png,3,6,126,33,"[1, 0]",left,1,12,25,f,y,y,2019_Jul_11_1331,2AFC_task,59.966742428765194,
stimuli/lamp_bump_02_a.png,stimuli/lamp_bump_02_b.png,3,7,127,21,"[1, 0]",right,0,12,25,f,y,y,2019_Jul_11_1331,2AFC_task,59.966742428765194,
stimuli/lamp_bump_08_a.png,stimuli/lamp_bump_08_b.png,3,8,128,27,"[0, 1]",left,0,12,25,f,y,y,2019_Jul_11_1331,2AFC_task,59.966742428765194,
stimuli/hdri_bump_06_a.png,stimuli/hdri_bump_06_b.png,3,9,129,5,"[1, 0]",left,1,12,25,f,y,y,2019_Jul_11_1331,2AFC_task,59.966742428765194,
stimuli/hdri_light_07_a.png,stimuli/hdri_light_07_b.png,3,10,130,16,"[0, 1]",right,1,12,25,f,y,y,2019_Jul_11_1331,2AFC_task,59.966742428765194,
stimuli/hdri_light_08_a.png,stimuli/hdri_light_08_b.png,3,11,131,17,"[0, 1]",right,1,12,25,f,y,y,2019_Jul_11_1331,2AFC_task,59.966742428765194,
stimuli/lamp_light_01_a.png,stimuli/lamp_light_01_b.png,3,12,132,30,"[1, 0]",left,1,12,25,f,y,y,2019_Jul_11_1331,2AFC_task,59.966742428765194,
stimuli/lamp_bump_10_a.png,stimuli/lamp_bump_10_b.png,3,13,133,29,"[0, 1]",right,1,12,25,f,y,y,2019_Jul_11_1331,2AFC_task,59.966742428765194,
stimuli/hdri_light_09_a.png,stimuli/hdri_light_09_b.png,3,14,134,18,"[0, 1]",left,0,12,25,f,y,y,2019_Jul_11_1331,2AFC_task,59.966742428765194,
stimuli/hdri_light_05_a.png,stimuli/hdri_light_05_b.png,3,15,135,14,"[0, 1]",left,0,12,25,f,y,y,2019_Jul_11_1331,2AFC_task,59.966742428765194,
stimuli/hdri_light_03_a.png,stimuli/hdri_light_03_b.png,3,16,136,12,"[0, 1]",left,0,12,25,f,y,y,2019_Jul_11_1331,2AFC_task,59.966742428765194,
stimuli/hdri_light_06_a.png,stimuli/hdri_light_06_b.png,3,17,137,15,"[0, 1]",left,0,12,25,f,y,y,2019_Jul_11_1331,2AFC_task,59.966742428765194,
stimuli/lamp_light_05_a.png,stimuli/lamp_light_05_b.png,3,18,138,34,"[1, 0]",left,1,12,25,f,y,y,2019_Jul_11_1331,2AFC_task,59.966742428765194,
stimuli/lamp_light_02_a.png,stimuli/lamp_light_02_b.png,3,19,139,31,"[1, 0]",left,1,12,25,f,y,y,2019_Jul_11_1331,2AFC_task,59.966742428765194,
stimuli/lamp_light_06_a.png,stimuli/lamp_light_06_b.png,3,20,140,35,"[0, 1]",right,1,12,25,f,y,y,2019_Jul_11_1331,2AFC_task,59.966742428765194,
stimuli/hdri_bump_10_a.png,stimuli/hdri_bump_10_b.png,3,21,141,9,"[1, 0]",left,1,12,25,f,y,y,2019_Jul_11_1331,2AFC_task,59.966742428765194,
stimuli/hdri_light_02_a.png,stimuli/hdri_light_02_b.png,3,22,142,11,"[0, 1]",left,0,12,25,f,y,y,2019_Jul_11_1331,2AFC_task,59.966742428765194,
stimuli/hdri_bump_04_a.png,stimuli/hdri_bump_04_b.png,3,23,143,3,"[0, 1]",right,1,12,25,f,y,y,2019_Jul_11_1331,2AFC_task,59.966742428765194,
stimuli/lamp_light_03_a.png,stimuli/lamp_light_03_b.png,3,24,144,32,"[1, 0]",left,1,12,25,f,y,y,2019_Jul_11_1331,2AFC_task,59.966742428765194,
stimuli/lamp_light_07_a.png,stimuli/lamp_light_07_b.png,3,25,145,36,"[0, 1]",right,1,12,25,f,y,y,2019_Jul_11_1331,2AFC_task,59.966742428765194,
stimuli/lamp_light_10_a.png,stimuli/lamp_light_10_b.png,3,26,146,39,"[0, 1]",right,1,12,25,f,y,y,2019_Jul_11_1331,2AFC_task,59.966742428765194,
stimuli/hdri_bump_03_a.png,stimuli/hdri_bump_03_b.png,3,27,147,2,"[1, 0]",left,1,12,25,f,y,y,2019_Jul_11_1331,2AFC_task,59.966742428765194,
stimuli/hdri_bump_02_a.png,stimuli/hdri_bump_02_b.png,3,28,148,1,"[1, 0]",left,1,12,25,f,y,y,2019_Jul_11_1331,2AFC_task,59.966742428765194,
stimuli/lamp_bump_07_a.png,stimuli/lamp_bump_07_b.png,3,29,149,26,"[0, 1]",left,0,12,25,f,y,y,2019_Jul_11_1331,2AFC_task,59.966742428765194,
stimuli/lamp_bump_06_a.png,stimuli/lamp_bump_06_b.png,3,30,150,25,"[0, 1]",left,0,12,25,f,y,y,2019_Jul_11_1331,2AFC_task,59.966742428765194,
stimuli/lamp_light_08_a.png,stimuli/lamp_light_08_b.png,3,31,151,37,"[0, 1]",right,1,12,25,f,y,y,2019_Jul_11_1331,2AFC_task,59.966742428765194,
stimuli/hdri_bump_09_a.png,stimuli/hdri_bump_09_b.png,3,32,152,8,"[1, 0]",left,1,12,25,f,y,y,2019_Jul_11_1331,2AFC_task,59.966742428765194,
stimuli/hdri_bump_01_a.png,stimuli/hdri_bump_01_b.png,3,33,153,0,"[0, 1]",left,0,12,25,f,y,y,2019_Jul_11_1331,2AFC_task,59.966742428765194,
stimuli/lamp_bump_09_a.png,stimuli/lamp_bump_09_b.png,3,34,154,28,"[0, 1]",left,0,12,25,f,y,y,2019_Jul_11_1331,2AFC_task,59.966742428765194,
stimuli/hdri_bump_07_a.png,stimuli/hdri_bump_07_b.png,3,35,155,6,"[1, 0]",left,1,12,25,f,y,y,2019_Jul_11_1331,2AFC_task,59.966742428765194,
stimuli/lamp_light_09_a.png,stimuli/lamp_light_09_b.png,3,36,156,38,"[1, 0]",left,1,12,25,f,y,y,2019_Jul_11_1331,2AFC_task,59.966742428765194,
stimuli/hdri_light_01_a.png,stimuli/hdri_light_01_b.png,3,37,157,10,"[1, 0]",right,0,12,25,f,y,y,2019_Jul_11_1331,2AFC_task,59.966742428765194,
stimuli/lamp_bump_01_a.png,stimuli/lamp_bump_01_b.png,3,38,158,20,"[0, 1]",left,0,12,25,f,y,y,2019_Jul_11_1331,2AFC_task,59.966742428765194,
stimuli/lamp_bump_04_a.png,stimuli/lamp_bump_04_b.png,3,39,159,23,"[1, 0]",right,0,12,25,f,y,y,2019_Jul_11_1331,2AFC_task,59.966742428765194,
stimuli/hdri_light_09_a.png,stimuli/hdri_light_09_b.png,4,0,160,18,"[1, 0]",right,0,12,25,f,y,y,2019_Jul_11_1331,2AFC_task,59.966742428765194,
stimuli/hdri_bump_04_a.png,stimuli/hdri_bump_04_b.png,4,1,161,3,"[0, 1]",right,1,12,25,f,y,y,2019_Jul_11_1331,2AFC_task,59.966742428765194,
stimuli/lamp_bump_06_a.png,stimuli/lamp_bump_06_b.png,4,2,162,25,"[1, 0]",right,0,12,25,f,y,y,2019_Jul_11_1331,2AFC_task,59.966742428765194,
stimuli/lamp_light_05_a.png,stimuli/lamp_light_05_b.png,4,3,163,34,"[1, 0]",left,1,12,25,f,y,y,2019_Jul_11_1331,2AFC_task,59.966742428765194,
stimuli/hdri_light_07_a.png,stimuli/hdri_light_07_b.png,4,4,164,16,"[1, 0]",left,1,12,25,f,y,y,2019_Jul_11_1331,2AFC_task,59.966742428765194,
stimuli/lamp_bump_09_a.png,stimuli/lamp_bump_09_b.png,4,5,165,28,"[0, 1]",left,0,12,25,f,y,y,2019_Jul_11_1331,2AFC_task,59.966742428765194,
stimuli/lamp_bump_03_a.png,stimuli/lamp_bump_03_b.png,4,6,166,22,"[0, 1]",right,1,12,25,f,y,y,2019_Jul_11_1331,2AFC_task,59.966742428765194,
stimuli/lamp_bump_01_a.png,stimuli/lamp_bump_01_b.png,4,7,167,20,"[0, 1]",left,0,12,25,f,y,y,2019_Jul_11_1331,2AFC_task,59.966742428765194,
stimuli/lamp_light_03_a.png,stimuli/lamp_light_03_b.png,4,8,168,32,"[0, 1]",right,1,12,25,f,y,y,2019_Jul_11_1331,2AFC_task,59.966742428765194,
stimuli/hdri_light_04_a.png,stimuli/hdri_light_04_b.png,4,9,169,13,"[0, 1]",left,0,12,25,f,y,y,2019_Jul_11_1331,2AFC_task,59.966742428765194,
stimuli/hdri_light_10_a.png,stimuli/hdri_light_10_b.png,4,10,170,19,"[0, 1]",right,1,12,25,f,y,y,2019_Jul_11_1331,2AFC_task,59.966742428765194,
stimuli/lamp_bump_05_a.png,stimuli/lamp_bump_05_b.png,4,11,171,24,"[0, 1]",right,1,12,25,f,y,y,2019_Jul_11_1331,2AFC_task,59.966742428765194,
stimuli/hdri_light_02_a.png,stimuli/hdri_light_02_b.png,4,12,172,11,"[1, 0]",right,0,12,25,f,y,y,2019_Jul_11_1331,2AFC_task,59.966742428765194,
stimuli/hdri_light_05_a.png,stimuli/hdri_light_05_b.png,4,13,173,14,"[0, 1]",left,0,12,25,f,y,y,2019_Jul_11_1331,2AFC_task,59.966742428765194,
stimuli/hdri_bump_10_a.png,stimuli/hdri_bump_10_b.png,4,14,174,9,"[1, 0]",left,1,12,25,f,y,y,2019_Jul_11_1331,2AFC_task,59.966742428765194,
stimuli/hdri_bump_08_a.png,stimuli/hdri_bump_08_b.png,4,15,175,7,"[0, 1]",right,1,12,25,f,y,y,2019_Jul_11_1331,2AFC_task,59.966742428765194,
stimuli/lamp_light_01_a.png,stimuli/lamp_light_01_b.png,4,16,176,30,"[1, 0]",left,1,12,25,f,y,y,2019_Jul_11_1331,2AFC_task,59.966742428765194,
stimuli/lamp_bump_10_a.png,stimuli/lamp_bump_10_b.png,4,17,177,29,"[1, 0]",left,1,12,25,f,y,y,2019_Jul_11_1331,2AFC_task,59.966742428765194,
stimuli/lamp_bump_07_a.png,stimuli/lamp_bump_07_b.png,4,18,178,26,"[0, 1]",left,0,12,25,f,y,y,2019_Jul_11_1331,2AFC_task,59.966742428765194,
stimuli/hdri_light_06_a.png,stimuli/hdri_light_06_b.png,4,19,179,15,"[0, 1]",left,0,12,25,f,y,y,2019_Jul_11_1331,2AFC_task,59.966742428765194,
stimuli/hdri_bump_06_a.png,stimuli/hdri_bump_06_b.png,4,20,180,5,"[1, 0]",left,1,12,25,f,y,y,2019_Jul_11_1331,2AFC_task,59.966742428765194,
stimuli/lamp_light_09_a.png,stimuli/lamp_light_09_b.png,4,21,181,38,"[1, 0]",left,1,12,25,f,y,y,2019_Jul_11_1331,2AFC_task,59.966742428765194,
stimuli/hdri_bump_09_a.png,stimuli/hdri_bump_09_b.png,4,22,182,8,"[1, 0]",right,0,12,25,f,y,y,2019_Jul_11_1331,2AFC_task,59.966742428765194,
stimuli/lamp_bump_04_a.png,stimuli/lamp_bump_04_b.png,4,23,183,23,"[1, 0]",right,0,12,25,f,y,y,2019_Jul_11_1331,2AFC_task,59.966742428765194,
stimuli/lamp_light_10_a.png,stimuli/lamp_light_10_b.png,4,24,184,39,"[1, 0]",left,1,12,25,f,y,y,2019_Jul_11_1331,2AFC_task,59.966742428765194,
stimuli/hdri_bump_07_a.png,stimuli/hdri_bump_07_b.png,4,25,185,6,"[1, 0]",left,1,12,25,f,y,y,2019_Jul_11_1331,2AFC_task,59.966742428765194,
stimuli/lamp_light_02_a.png,stimuli/lamp_light_02_b.png,4,26,186,31,"[1, 0]",left,1,12,25,f,y,y,2019_Jul_11_1331,2AFC_task,59.966742428765194,
stimuli/hdri_bump_05_a.png,stimuli/hdri_bump_05_b.png,4,27,187,4,"[1, 0]",right,0,12,25,f,y,y,2019_Jul_11_1331,2AFC_task,59.966742428765194,
stimuli/lamp_bump_02_a.png,stimuli/lamp_bump_02_b.png,4,28,188,21,"[0, 1]",left,0,12,25,f,y,y,2019_Jul_11_1331,2AFC_task,59.966742428765194,
stimuli/hdri_bump_02_a.png,stimuli/hdri_bump_02_b.png,4,29,189,1,"[0, 1]",right,1,12,25,f,y,y,2019_Jul_11_1331,2AFC_task,59.966742428765194,
stimuli/lamp_light_07_a.png,stimuli/lamp_light_07_b.png,4,30,190,36,"[0, 1]",right,1,12,25,f,y,y,2019_Jul_11_1331,2AFC_task,59.966742428765194,
stimuli/hdri_light_01_a.png,stimuli/hdri_light_01_b.png,4,31,191,10,"[0, 1]",left,0,12,25,f,y,y,2019_Jul_11_1331,2AFC_task,59.966742428765194,
stimuli/lamp_light_06_a.png,stimuli/lamp_light_06_b.png,4,32,192,35,"[0, 1]",right,1,12,25,f,y,y,2019_Jul_11_1331,2AFC_task,59.966742428765194,
stimuli/hdri_light_03_a.png,stimuli/hdri_light_03_b.png,4,33,193,12,"[0, 1]",left,0,12,25,f,y,y,2019_Jul_11_1331,2AFC_task,59.966742428765194,
stimuli/hdri_bump_01_a.png,stimuli/hdri_bump_01_b.png,4,34,194,0,"[0, 1]",left,0,12,25,f,y,y,2019_Jul_11_1331,2AFC_task,59.966742428765194,
stimuli/lamp_bump_08_a.png,stimuli/lamp_bump_08_b.png,4,35,195,27,"[1, 0]",right,0,12,25,f,y,y,2019_Jul_11_1331,2AFC_task,59.966742428765194,
stimuli/hdri_bump_03_a.png,stimuli/hdri_bump_03_b.png,4,36,196,2,"[0, 1]",left,0,12,25,f,y,y,2019_Jul_11_1331,2AFC_task,59.966742428765194,
stimuli/lamp_light_04_a.png,stimuli/lamp_light_04_b.png,4,37,197,33,"[1, 0]",left,1,12,25,f,y,y,2019_Jul_11_1331,2AFC_task,59.966742428765194,
stimuli/lamp_light_08_a.png,stimuli/lamp_light_08_b.png,4,38,198,37,"[1, 0]",left,1,12,25,f,y,y,2019_Jul_11_1331,2AFC_task,59.966742428765194,
stimuli/hdri_light_08_a.png,stimuli/hdri_light_08_b.png,4,39,199,17,"[1, 0]",left,1,12,25,f,y,y,2019_Jul_11_1331,2AFC_task,59.966742428765194,
stimuli/lamp_bump_03_a.png,stimuli/lamp_bump_03_b.png,5,0,200,22,"[0, 1]",right,1,12,25,f,y,y,2019_Jul_11_1331,2AFC_task,59.966742428765194,
stimuli/hdri_light_07_a.png,stimuli/hdri_light_07_b.png,5,1,201,16,"[1, 0]",left,1,12,25,f,y,y,2019_Jul_11_1331,2AFC_task,59.966742428765194,
stimuli/lamp_bump_02_a.png,stimuli/lamp_bump_02_b.png,5,2,202,21,"[1, 0]",right,0,12,25,f,y,y,2019_Jul_11_1331,2AFC_task,59.966742428765194,
stimuli/hdri_bump_05_a.png,stimuli/hdri_bump_05_b.png,5,3,203,4,"[1, 0]",left,1,12,25,f,y,y,2019_Jul_11_1331,2AFC_task,59.966742428765194,
stimuli/lamp_light_01_a.png,stimuli/lamp_light_01_b.png,5,4,204,30,"[1, 0]",left,1,12,25,f,y,y,2019_Jul_11_1331,2AFC_task,59.966742428765194,
stimuli/hdri_bump_04_a.png,stimuli/hdri_bump_04_b.png,5,5,205,3,"[0, 1]",right,1,12,25,f,y,y,2019_Jul_11_1331,2AFC_task,59.966742428765194,
stimuli/lamp_light_09_a.png,stimuli/lamp_light_09_b.png,5,6,206,38,"[0, 1]",right,1,12,25,f,y,y,2019_Jul_11_1331,2AFC_task,59.966742428765194,
stimuli/hdri_light_02_a.png,stimuli/hdri_light_02_b.png,5,7,207,11,"[1, 0]",right,0,12,25,f,y,y,2019_Jul_11_1331,2AFC_task,59.966742428765194,
stimuli/hdri_light_09_a.png,stimuli/hdri_light_09_b.png,5,8,208,18,"[1, 0]",right,0,12,25,f,y,y,2019_Jul_11_1331,2AFC_task,59.966742428765194,
stimuli/lamp_light_03_a.png,stimuli/lamp_light_03_b.png,5,9,209,32,"[0, 1]",right,1,12,25,f,y,y,2019_Jul_11_1331,2AFC_task,59.966742428765194,
stimuli/hdri_bump_01_a.png,stimuli/hdri_bump_01_b.png,5,10,210,0,"[1, 0]",right,0,12,25,f,y,y,2019_Jul_11_1331,2AFC_task,59.966742428765194,
stimuli/lamp_bump_05_a.png,stimuli/lamp_bump_05_b.png,5,11,211,24,"[1, 0]",left,1,12,25,f,y,y,2019_Jul_11_1331,2AFC_task,59.966742428765194,
stimuli/lamp_bump_10_a.png,stimuli/lamp_bump_10_b.png,5,12,212,29,"[1, 0]",left,1,12,25,f,y,y,2019_Jul_11_1331,2AFC_task,59.966742428765194,
stimuli/hdri_light_01_a.png,stimuli/hdri_light_01_b.png,5,13,213,10,"[0, 1]",left,0,12,25,f,y,y,2019_Jul_11_1331,2AFC_task,59.966742428765194,
stimuli/hdri_light_05_a.png,stimuli/hdri_light_05_b.png,5,14,214,14,"[0, 1]",left,0,12,25,f,y,y,2019_Jul_11_1331,2AFC_task,59.966742428765194,
stimuli/hdri_light_08_a.png,stimuli/hdri_light_08_b.png,5,15,215,17,"[0, 1]",right,1,12,25,f,y,y,2019_Jul_11_1331,2AFC_task,59.966742428765194,
stimuli/lamp_bump_01_a.png,stimuli/lamp_bump_01_b.png,5,16,216,20,"[0, 1]",left,0,12,25,f,y,y,2019_Jul_11_1331,2AFC_task,59.966742428765194,
stimuli/hdri_bump_02_a.png,stimuli/hdri_bump_02_b.png,5,17,217,1,"[1, 0]",right,0,12,25,f,y,y,2019_Jul_11_1331,2AFC_task,59.966742428765194,
stimuli/hdri_bump_03_a.png,stimuli/hdri_bump_03_b.png,5,18,218,2,"[0, 1]",right,1,12,25,f,y,y,2019_Jul_11_1331,2AFC_task,59.966742428765194,
stimuli/hdri_light_10_a.png,stimuli/hdri_light_10_b.png,5,19,219,19,"[0, 1]",right,1,12,25,f,y,y,2019_Jul_11_1331,2AFC_task,59.966742428765194,
stimuli/hdri_bump_09_a.png,stimuli/hdri_bump_09_b.png,5,20,220,8,"[1, 0]",left,1,12,25,f,y,y,2019_Jul_11_1331,2AFC_task,59.966742428765194,
stimuli/hdri_bump_10_a.png,stimuli/hdri_bump_10_b.png,5,21,221,9,"[1, 0]",left,1,12,25,f,y,y,2019_Jul_11_1331,2AFC_task,59.966742428765194,
stimuli/hdri_bump_07_a.png,stimuli/hdri_bump_07_b.png,5,22,222,6,"[0, 1]",right,1,12,25,f,y,y,2019_Jul_11_1331,2AFC_task,59.966742428765194,
stimuli/lamp_light_02_a.png,stimuli/lamp_light_02_b.png,5,23,223,31,"[1, 0]",left,1,12,25,f,y,y,2019_Jul_11_1331,2AFC_task,59.966742428765194,
stimuli/lamp_bump_09_a.png,stimuli/lamp_bump_09_b.png,5,24,224,28,"[1, 0]",right,0,12,25,f,y,y,2019_Jul_11_1331,2AFC_task,59.966742428765194,
stimuli/hdri_bump_06_a.png,stimuli/hdri_bump_06_b.png,5,25,225,5,"[0, 1]",right,1,12,25,f,y,y,2019_Jul_11_1331,2AFC_task,59.966742428765194,
stimuli/lamp_light_05_a.png,stimuli/lamp_light_05_b.png,5,26,226,34,"[0, 1]",right,1,12,25,f,y,y,2019_Jul_11_1331,2AFC_task,59.966742428765194,
stimuli/lamp_light_04_a.png,stimuli/lamp_light_04_b.png,5,27,227,33,"[0, 1]",right,1,12,25,f,y,y,2019_Jul_11_1331,2AFC_task,59.966742428765194,
stimuli/lamp_bump_04_a.png,stimuli/lamp_bump_04_b.png,5,28,228,23,"[1, 0]",right,0,12,25,f,y,y,2019_Jul_11_1331,2AFC_task,59.966742428765194,
stimuli/lamp_light_06_a.png,stimuli/lamp_light_06_b.png,5,29,229,35,"[0, 1]",right,1,12,25,f,y,y,2019_Jul_11_1331,2AFC_task,59.966742428765194,
stimuli/lamp_light_08_a.png,stimuli/lamp_light_08_b.png,5,30,230,37,"[1, 0]",left,1,12,25,f,y,y,2019_Jul_11_1331,2AFC_task,59.966742428765194,
stimuli/hdri_bump_08_a.png,stimuli/hdri_bump_08_b.png,5,31,231,7,"[0, 1]",right,1,12,25,f,y,y,2019_Jul_11_1331,2AFC_task,59.966742428765194,
stimuli/lamp_light_07_a.png,stimuli/lamp_light_07_b.png,5,32,232,36,"[1, 0]",left,1,12,25,f,y,y,2019_Jul_11_1331,2AFC_task,59.966742428765194,
stimuli/hdri_light_04_a.png,stimuli/hdri_light_04_b.png,5,33,233,13,"[0, 1]",left,0,12,25,f,y,y,2019_Jul_11_1331,2AFC_task,59.966742428765194,
stimuli/hdri_light_03_a.png,stimuli/hdri_light_03_b.png,5,34,234,12,"[1, 0]",right,0,12,25,f,y,y,2019_Jul_11_1331,2AFC_task,59.966742428765194,
stimuli/lamp_bump_07_a.png,stimuli/lamp_bump_07_b.png,5,35,235,26,"[1, 0]",right,0,12,25,f,y,y,2019_Jul_11_1331,2AFC_task,59.966742428765194,
stimuli/lamp_bump_08_a.png,stimuli/lamp_bump_08_b.png,5,36,236,27,"[1, 0]",right,0,12,25,f,y,y,2019_Jul_11_1331,2AFC_task,59.966742428765194,
stimuli/lamp_bump_06_a.png,stimuli/lamp_bump_06_b.png,5,37,237,25,"[0, 1]",left,0,12,25,f,y,y,2019_Jul_11_1331,2AFC_task,59.966742428765194,
stimuli/hdri_light_06_a.png,stimuli/hdri_light_06_b.png,5,38,238,15,"[0, 1]",left,0,12,25,f,y,y,2019_Jul_11_1331,2AFC_task,59.966742428765194,
stimuli/lamp_light_10_a.png,stimuli/lamp_light_10_b.png,5,39,239,39,"[0, 1]",right,1,12,25,f,y,y,2019_Jul_11_1331,2AFC_task,59.966742428765194,
stimuli/lamp_bump_03_a.png,stimuli/lamp_bump_03_b.png,6,0,240,22,"[1, 0]",left,1,12,25,f,y,y,2019_Jul_11_1331,2AFC_task,59.966742428765194,
stimuli/hdri_light_01_a.png,stimuli/hdri_light_01_b.png,6,1,241,10,"[1, 0]",right,0,12,25,f,y,y,2019_Jul_11_1331,2AFC_task,59.966742428765194,
stimuli/hdri_bump_06_a.png,stimuli/hdri_bump_06_b.png,6,2,242,5,"[0, 1]",right,1,12,25,f,y,y,2019_Jul_11_1331,2AFC_task,59.966742428765194,
stimuli/lamp_light_05_a.png,stimuli/lamp_light_05_b.png,6,3,243,34,"[1, 0]",left,1,12,25,f,y,y,2019_Jul_11_1331,2AFC_task,59.966742428765194,
stimuli/lamp_light_06_a.png,stimuli/lamp_light_06_b.png,6,4,244,35,"[1, 0]",left,1,12,25,f,y,y,2019_Jul_11_1331,2AFC_task,59.966742428765194,
stimuli/lamp_light_09_a.png,stimuli/lamp_light_09_b.png,6,5,245,38,"[0, 1]",right,1,12,25,f,y,y,2019_Jul_11_1331,2AFC_task,59.966742428765194,
stimuli/hdri_bump_01_a.png,stimuli/hdri_bump_01_b.png,6,6,246,0,"[1, 0]",right,0,12,25,f,y,y,2019_Jul_11_1331,2AFC_task,59.966742428765194,
stimuli/lamp_light_03_a.png,stimuli/lamp_light_03_b.png,6,7,247,32,"[0, 1]",right,1,12,25,f,y,y,2019_Jul_11_1331,2AFC_task,59.966742428765194,
stimuli/lamp_light_10_a.png,stimuli/lamp_light_10_b.png,6,8,248,39,"[0, 1]",right,1,12,25,f,y,y,2019_Jul_11_1331,2AFC_task,59.966742428765194,
stimuli/hdri_bump_05_a.png,stimuli/hdri_bump_05_b.png,6,9,249,4,"[0, 1]",left,0,12,25,f,y,y,2019_Jul_11_1331,2AFC_task,59.966742428765194,
stimuli/hdri_light_05_a.png,stimuli/hdri_light_05_b.png,6,10,250,14,"[0, 1]",left,0,12,25,f,y,y,2019_Jul_11_1331,2AFC_task,59.966742428765194,
stimuli/lamp_light_02_a.png,stimuli/lamp_light_02_b.png,6,11,251,31,"[0, 1]",right,1,12,25,f,y,y,2019_Jul_11_1331,2AFC_task,59.966742428765194,
stimuli/lamp_bump_01_a.png,stimuli/lamp_bump_01_b.png,6,12,252,20,"[1, 0]",right,0,12,25,f,y,y,2019_Jul_11_1331,2AFC_task,59.966742428765194,
stimuli/hdri_bump_10_a.png,stimuli/hdri_bump_10_b.png,6,13,253,9,"[1, 0]",left,1,12,25,f,y,y,2019_Jul_11_1331,2AFC_task,59.966742428765194,
stimuli/hdri_bump_04_a.png,stimuli/hdri_bump_04_b.png,6,14,254,3,"[1, 0]",left,1,12,25,f,y,y,2019_Jul_11_1331,2AFC_task,59.966742428765194,
stimuli/hdri_light_09_a.png,stimuli/hdri_light_09_b.png,6,15,255,18,"[1, 0]",right,0,12,25,f,y,y,2019_Jul_11_1331,2AFC_task,59.966742428765194,
stimuli/hdri_light_06_a.png,stimuli/hdri_light_06_b.png,6,16,256,15,"[0, 1]",left,0,12,25,f,y,y,2019_Jul_11_1331,2AFC_task,59.966742428765194,
stimuli/hdri_bump_02_a.png,stimuli/hdri_bump_02_b.png,6,17,257,1,"[0, 1]",right,1,12,25,f,y,y,2019_Jul_11_1331,2AFC_task,59.966742428765194,
stimuli/lamp_light_01_a.png,stimuli/lamp_light_01_b.png,6,18,258,30,"[1, 0]",left,1,12,25,f,y,y,2019_Jul_11_1331,2AFC_task,59.966742428765194,
stimuli/lamp_bump_04_a.png,stimuli/lamp_bump_04_b.png,6,19,259,23,"[0, 1]",left,0,12,25,f,y,y,2019_Jul_11_1331,2AFC_task,59.966742428765194,
stimuli/hdri_light_04_a.png,stimuli/hdri_light_04_b.png,6,20,260,13,"[1, 0]",right,0,12,25,f,y,y,2019_Jul_11_1331,2AFC_task,59.966742428765194,
stimuli/lamp_bump_10_a.png,stimuli/lamp_bump_10_b.png,6,21,261,29,"[0, 1]",right,1,12,25,f,y,y,2019_Jul_11_1331,2AFC_task,59.966742428765194,
stimuli/lamp_bump_05_a.png,stimuli/lamp_bump_05_b.png,6,22,262,24,"[1, 0]",left,1,12,25,f,y,y,2019_Jul_11_1331,2AFC_task,59.966742428765194,
stimuli/hdri_light_08_a.png,stimuli/hdri_light_08_b.png,6,23,263,17,"[1, 0]",left,1,12,25,f,y,y,2019_Jul_11_1331,2AFC_task,59.966742428765194,
stimuli/lamp_bump_02_a.png,stimuli/lamp_bump_02_b.png,6,24,264,21,"[1, 0]",right,0,12,25,f,y,y,2019_Jul_11_1331,2AFC_task,59.966742428765194,
stimuli/lamp_light_07_a.png,stimuli/lamp_light_07_b.png,6,25,265,36,"[1, 0]",left,1,12,25,f,y,y,2019_Jul_11_1331,2AFC_task,59.966742428765194,
stimuli/lamp_bump_08_a.png,stimuli/lamp_bump_08_b.png,6,26,266,27,"[1, 0]",right,0,12,25,f,y,y,2019_Jul_11_1331,2AFC_task,59.966742428765194,
stimuli/lamp_light_04_a.png,stimuli/lamp_light_04_b.png,6,27,267,33,"[1, 0]",left,1,12,25,f,y,y,2019_Jul_11_1331,2AFC_task,59.966742428765194,
stimuli/hdri_light_07_a.png,stimuli/hdri_light_07_b.png,6,28,268,16,"[0, 1]",right,1,12,25,f,y,y,2019_Jul_11_1331,2AFC_task,59.966742428765194,
stimuli/hdri_light_02_a.png,stimuli/hdri_light_02_b.png,6,29,269,11,"[1, 0]",right,0,12,25,f,y,y,2019_Jul_11_1331,2AFC_task,59.966742428765194,
stimuli/hdri_bump_09_a.png,stimuli/hdri_bump_09_b.png,6,30,270,8,"[1, 0]",left,1,12,25,f,y,y,2019_Jul_11_1331,2AFC_task,59.966742428765194,
stimuli/hdri_light_10_a.png,stimuli/hdri_light_10_b.png,6,31,271,19,"[0, 1]",right,1,12,25,f,y,y,2019_Jul_11_1331,2AFC_task,59.966742428765194,
stimuli/lamp_bump_09_a.png,stimuli/lamp_bump_09_b.png,6,32,272,28,"[1, 0]",right,0,12,25,f,y,y,2019_Jul_11_1331,2AFC_task,59.966742428765194,
stimuli/lamp_bump_06_a.png,stimuli/lamp_bump_06_b.png,6,33,273,25,"[1, 0]",right,0,12,25,f,y,y,2019_Jul_11_1331,2AFC_task,59.966742428765194,
stimuli/hdri_light_03_a.png,stimuli/hdri_light_03_b.png,6,34,274,12,"[1, 0]",right,0,12,25,f,y,y,2019_Jul_11_1331,2AFC_task,59.966742428765194,
stimuli/lamp_light_08_a.png,stimuli/lamp_light_08_b.png,6,35,275,37,"[0, 1]",right,1,12,25,f,y,y,2019_Jul_11_1331,2AFC_task,59.966742428765194,
stimuli/hdri_bump_03_a.png,stimuli/hdri_bump_03_b.png,6,36,276,2,"[1, 0]",left,1,12,25,f,y,y,2019_Jul_11_1331,2AFC_task,59.966742428765194,
stimuli/hdri_bump_08_a.png,stimuli/hdri_bump_08_b.png,6,37,277,7,"[0, 1]",right,1,12,25,f,y,y,2019_Jul_11_1331,2AFC_task,59.966742428765194,
stimuli/hdri_bump_07_a.png,stimuli/hdri_bump_07_b.png,6,38,278,6,"[0, 1]",right,1,12,25,f,y,y,2019_Jul_11_1331,2AFC_task,59.966742428765194,
stimuli/lamp_bump_07_a.png,stimuli/lamp_bump_07_b.png,6,39,279,26,"[1, 0]",right,0,12,25,f,y,y,2019_Jul_11_1331,2AFC_task,59.966742428765194,
stimuli/hdri_bump_08_a.png,stimuli/hdri_bump_08_b.png,7,0,280,7,"[0, 1]",right,1,12,25,f,y,y,2019_Jul_11_1331,2AFC_task,59.966742428765194,
stimuli/lamp_light_07_a.png,stimuli/lamp_light_07_b.png,7,1,281,36,"[0, 1]",right,1,12,25,f,y,y,2019_Jul_11_1331,2AFC_task,59.966742428765194,
stimuli/hdri_bump_10_a.png,stimuli/hdri_bump_10_b.png,7,2,282,9,"[1, 0]",right,0,12,25,f,y,y,2019_Jul_11_1331,2AFC_task,59.966742428765194,
stimuli/hdri_bump_05_a.png,stimuli/hdri_bump_05_b.png,7,3,283,4,"[0, 1]",left,0,12,25,f,y,y,2019_Jul_11_1331,2AFC_task,59.966742428765194,
stimuli/hdri_light_08_a.png,stimuli/hdri_light_08_b.png,7,4,284,17,"[1, 0]",left,1,12,25,f,y,y,2019_Jul_11_1331,2AFC_task,59.966742428765194,
stimuli/hdri_light_01_a.png,stimuli/hdri_light_01_b.png,7,5,285,10,"[1, 0]",right,0,12,25,f,y,y,2019_Jul_11_1331,2AFC_task,59.966742428765194,
stimuli/hdri_bump_04_a.png,stimuli/hdri_bump_04_b.png,7,6,286,3,"[1, 0]",left,1,12,25,f,y,y,2019_Jul_11_1331,2AFC_task,59.966742428765194,
stimuli/lamp_light_05_a.png,stimuli/lamp_light_05_b.png,7,7,287,34,"[1, 0]",left,1,12,25,f,y,y,2019_Jul_11_1331,2AFC_task,59.966742428765194,
stimuli/lamp_light_06_a.png,stimuli/lamp_light_06_b.png,7,8,288,35,"[0, 1]",right,1,12,25,f,y,y,2019_Jul_11_1331,2AFC_task,59.966742428765194,
stimuli/lamp_bump_02_a.png,stimuli/lamp_bump_02_b.png,7,9,289,21,"[1, 0]",right,0,12,25,f,y,y,2019_Jul_11_1331,2AFC_task,59.966742428765194,
stimuli/hdri_bump_09_a.png,stimuli/hdri_bump_09_b.png,7,10,290,8,"[0, 1]",right,1,12,25,f,y,y,2019_Jul_11_1331,2AFC_task,59.966742428765194,
stimuli/hdri_light_04_a.png,stimuli/hdri_light_04_b.png,7,11,291,13,"[1, 0]",left,1,12,25,f,y,y,2019_Jul_11_1331,2AFC_task,59.966742428765194,
stimuli/lamp_light_10_a.png,stimuli/lamp_light_10_b.png,7,12,292,39,"[0, 1]",right,1,12,25,f,y,y,2019_Jul_11_1331,2AFC_task,59.966742428765194,
stimuli/lamp_bump_09_a.png,stimuli/lamp_bump_09_b.png,7,13,293,28,"[0, 1]",right,1,12,25,f,y,y,2019_Jul_11_1331,2AFC_task,59.966742428765194,
stimuli/lamp_light_04_a.png,stimuli/lamp_light_04_b.png,7,14,294,33,"[1, 0]",left,1,12,25,f,y,y,2019_Jul_11_1331,2AFC_task,59.966742428765194,
stimuli/lamp_light_09_a.png,stimuli/lamp_light_09_b.png,7,15,295,38,"[0, 1]",right,1,12,25,f,y,y,2019_Jul_11_1331,2AFC_task,59.966742428765194,
stimuli/hdri_bump_07_a.png,stimuli/hdri_bump_07_b.png,7,16,296,6,"[0, 1]",right,1,12,25,f,y,y,2019_Jul_11_1331,2AFC_task,59.966742428765194,
stimuli/hdri_light_03_a.png,stimuli/hdri_light_03_b.png,7,17,297,12,"[1, 0]",right,0,12,25,f,y,y,2019_Jul_11_1331,2AFC_task,59.966742428765194,
stimuli/lamp_bump_05_a.png,stimuli/lamp_bump_05_b.png,7,18,298,24,"[1, 0]",left,1,12,25,f,y,y,2019_Jul_11_1331,2AFC_task,59.966742428765194,
stimuli/lamp_bump_10_a.png,stimuli/lamp_bump_10_b.png,7,19,299,29,"[0, 1]",right,1,12,25,f,y,y,2019_Jul_11_1331,2AFC_task,59.966742428765194,
stimuli/lamp_light_02_a.png,stimuli/lamp_light_02_b.png,7,20,300,31,"[1, 0]",left,1,12,25,f,y,y,2019_Jul_11_1331,2AFC_task,59.966742428765194,
stimuli/hdri_light_02_a.png,stimuli/hdri_light_02_b.png,7,21,301,11,"[0, 1]",left,0,12,25,f,y,y,2019_Jul_11_1331,2AFC_task,59.966742428765194,
stimuli/hdri_light_10_a.png,stimuli/hdri_light_10_b.png,7,22,302,19,"[0, 1]",right,1,12,25,f,y,y,2019_Jul_11_1331,2AFC_task,59.966742428765194,
stimuli/hdri_light_09_a.png,stimuli/hdri_light_09_b.png,7,23,303,18,"[0, 1]",left,0,12,25,f,y,y,2019_Jul_11_1331,2AFC_task,59.966742428765194,
stimuli/hdri_light_06_a.png,stimuli/hdri_light_06_b.png,7,24,304,15,"[1, 0]",right,0,12,25,f,y,y,2019_Jul_11_1331,2AFC_task,59.966742428765194,
stimuli/lamp_light_08_a.png,stimuli/lamp_light_08_b.png,7,25,305,37,"[0, 1]",right,1,12,25,f,y,y,2019_Jul_11_1331,2AFC_task,59.966742428765194,
stimuli/lamp_bump_06_a.png,stimuli/lamp_bump_06_b.png,7,26,306,25,"[1, 0]",right,0,12,25,f,y,y,2019_Jul_11_1331,2AFC_task,59.966742428765194,
stimuli/hdri_bump_02_a.png,stimuli/hdri_bump_02_b.png,7,27,307,1,"[1, 0]",right,0,12,25,f,y,y,2019_Jul_11_1331,2AFC_task,59.966742428765194,
stimuli/hdri_bump_01_a.png,stimuli/hdri_bump_01_b.png,7,28,308,0,"[1, 0]",right,0,12,25,f,y,y,2019_Jul_11_1331,2AFC_task,59.966742428765194,
stimuli/hdri_light_05_a.png,stimuli/hdri_light_05_b.png,7,29,309,14,"[0, 1]",left,0,12,25,f,y,y,2019_Jul_11_1331,2AFC_task,59.966742428765194,
stimuli/hdri_bump_06_a.png,stimuli/hdri_bump_06_b.png,7,30,310,5,"[1, 0]",left,1,12,25,f,y,y,2019_Jul_11_1331,2AFC_task,59.966742428765194,
stimuli/lamp_light_03_a.png,stimuli/lamp_light_03_b.png,7,31,311,32,"[1, 0]",left,1,12,25,f,y,y,2019_Jul_11_1331,2AFC_task,59.966742428765194,
stimuli/hdri_light_07_a.png,stimuli/hdri_light_07_b.png,7,32,312,16,"[0, 1]",right,1,12,25,f,y,y,2019_Jul_11_1331,2AFC_task,59.966742428765194,
stimuli/lamp_bump_07_a.png,stimuli/lamp_bump_07_b.png,7,33,313,26,"[1, 0]",right,0,12,25,f,y,y,2019_Jul_11_1331,2AFC_task,59.966742428765194,
stimuli/hdri_bump_03_a.png,stimuli/hdri_bump_03_b.png,7,34,314,2,"[1, 0]",left,1,12,25,f,y,y,2019_Jul_11_1331,2AFC_task,59.966742428765194,
stimuli/lamp_bump_01_a.png,stimuli/lamp_bump_01_b.png,7,35,315,20,"[1, 0]",right,0,12,25,f,y,y,2019_Jul_11_1331,2AFC_task,59.966742428765194,
stimuli/lamp_light_01_a.png,stimuli/lamp_light_01_b.png,7,36,316,30,"[1, 0]",left,1,12,25,f,y,y,2019_Jul_11_1331,2AFC_task,59.966742428765194,
stimuli/lamp_bump_04_a.png,stimuli/lamp_bump_04_b.png,7,37,317,23,"[0, 1]",left,0,12,25,f,y,y,2019_Jul_11_1331,2AFC_task,59.966742428765194,
stimuli/lamp_bump_03_a.png,stimuli/lamp_bump_03_b.png,7,38,318,22,"[0, 1]",right,1,12,25,f,y,y,2019_Jul_11_1331,2AFC_task,59.966742428765194,
stimuli/lamp_bump_08_a.png,stimuli/lamp_bump_08_b.png,7,39,319,27,"[1, 0]",right,0,12,25,f,y,y,2019_Jul_11_1331,2AFC_task,59.966742428765194,
