stimOne,stimTwo,trials_1.thisRepN,trials_1.thisTrialN,trials_1.thisN,trials_1.thisIndex,presentation_positions,resp_key,corresponding_image,participant ID (two digits, e.g. 01),age,gender (m/f/-),normal or corrected-to-normal vision (y/n),normal colour vision (y/n),date,expName,frameRate,
stimuli/lamp_light_02_a.png,stimuli/lamp_light_02_b.png,0,0,0,31,"[1, 0]",left,1,13,23,f,y,y,2019_Jul_11_1103,2AFC_task,59.9756258317789,
stimuli/hdri_bump_08_a.png,stimuli/hdri_bump_08_b.png,0,1,1,7,"[1, 0]",left,1,13,23,f,y,y,2019_Jul_11_1103,2AFC_task,59.9756258317789,
stimuli/lamp_bump_10_a.png,stimuli/lamp_bump_10_b.png,0,2,2,29,"[0, 1]",right,1,13,23,f,y,y,2019_Jul_11_1103,2AFC_task,59.9756258317789,
stimuli/lamp_bump_05_a.png,stimuli/lamp_bump_05_b.png,0,3,3,24,"[1, 0]",left,1,13,23,f,y,y,2019_Jul_11_1103,2AFC_task,59.9756258317789,
stimuli/hdri_light_07_a.png,stimuli/hdri_light_07_b.png,0,4,4,16,"[0, 1]",right,1,13,23,f,y,y,2019_Jul_11_1103,2AFC_task,59.9756258317789,
stimuli/hdri_bump_09_a.png,stimuli/hdri_bump_09_b.png,0,5,5,8,"[1, 0]",left,1,13,23,f,y,y,2019_Jul_11_1103,2AFC_task,59.9756258317789,
stimuli/hdri_bump_07_a.png,stimuli/hdri_bump_07_b.png,0,6,6,6,"[1, 0]",left,1,13,23,f,y,y,2019_Jul_11_1103,2AFC_task,59.9756258317789,
stimuli/lamp_bump_09_a.png,stimuli/lamp_bump_09_b.png,0,7,7,28,"[0, 1]",right,1,13,23,f,y,y,2019_Jul_11_1103,2AFC_task,59.9756258317789,
stimuli/lamp_bump_01_a.png,stimuli/lamp_bump_01_b.png,0,8,8,20,"[1, 0]",left,1,13,23,f,y,y,2019_Jul_11_1103,2AFC_task,59.9756258317789,
stimuli/hdri_light_01_a.png,stimuli/hdri_light_01_b.png,0,9,9,10,"[1, 0]",right,0,13,23,f,y,y,2019_Jul_11_1103,2AFC_task,59.9756258317789,
stimuli/hdri_light_09_a.png,stimuli/hdri_light_09_b.png,0,10,10,18,"[0, 1]",left,0,13,23,f,y,y,2019_Jul_11_1103,2AFC_task,59.9756258317789,
stimuli/hdri_light_02_a.png,stimuli/hdri_light_02_b.png,0,11,11,11,"[1, 0]",right,0,13,23,f,y,y,2019_Jul_11_1103,2AFC_task,59.9756258317789,
stimuli/hdri_bump_02_a.png,stimuli/hdri_bump_02_b.png,0,12,12,1,"[0, 1]",right,1,13,23,f,y,y,2019_Jul_11_1103,2AFC_task,59.9756258317789,
stimuli/hdri_light_04_a.png,stimuli/hdri_light_04_b.png,0,13,13,13,"[0, 1]",left,0,13,23,f,y,y,2019_Jul_11_1103,2AFC_task,59.9756258317789,
stimuli/lamp_light_04_a.png,stimuli/lamp_light_04_b.png,0,14,14,33,"[0, 1]",right,1,13,23,f,y,y,2019_Jul_11_1103,2AFC_task,59.9756258317789,
stimuli/lamp_bump_03_a.png,stimuli/lamp_bump_03_b.png,0,15,15,22,"[0, 1]",right,1,13,23,f,y,y,2019_Jul_11_1103,2AFC_task,59.9756258317789,
stimuli/hdri_light_03_a.png,stimuli/hdri_light_03_b.png,0,16,16,12,"[1, 0]",right,0,13,23,f,y,y,2019_Jul_11_1103,2AFC_task,59.9756258317789,
stimuli/lamp_light_05_a.png,stimuli/lamp_light_05_b.png,0,17,17,34,"[0, 1]",right,1,13,23,f,y,y,2019_Jul_11_1103,2AFC_task,59.9756258317789,
stimuli/hdri_light_05_a.png,stimuli/hdri_light_05_b.png,0,18,18,14,"[1, 0]",right,0,13,23,f,y,y,2019_Jul_11_1103,2AFC_task,59.9756258317789,
stimuli/lamp_bump_07_a.png,stimuli/lamp_bump_07_b.png,0,19,19,26,"[1, 0]",right,0,13,23,f,y,y,2019_Jul_11_1103,2AFC_task,59.9756258317789,
stimuli/hdri_bump_04_a.png,stimuli/hdri_bump_04_b.png,0,20,20,3,"[1, 0]",left,1,13,23,f,y,y,2019_Jul_11_1103,2AFC_task,59.9756258317789,
stimuli/lamp_light_03_a.png,stimuli/lamp_light_03_b.png,0,21,21,32,"[0, 1]",right,1,13,23,f,y,y,2019_Jul_11_1103,2AFC_task,59.9756258317789,
stimuli/lamp_light_06_a.png,stimuli/lamp_light_06_b.png,0,22,22,35,"[1, 0]",left,1,13,23,f,y,y,2019_Jul_11_1103,2AFC_task,59.9756258317789,
stimuli/hdri_light_08_a.png,stimuli/hdri_light_08_b.png,0,23,23,17,"[1, 0]",left,1,13,23,f,y,y,2019_Jul_11_1103,2AFC_task,59.9756258317789,
stimuli/lamp_bump_06_a.png,stimuli/lamp_bump_06_b.png,0,24,24,25,"[1, 0]",right,0,13,23,f,y,y,2019_Jul_11_1103,2AFC_task,59.9756258317789,
stimuli/lamp_bump_04_a.png,stimuli/lamp_bump_04_b.png,0,25,25,23,"[0, 1]",left,0,13,23,f,y,y,2019_Jul_11_1103,2AFC_task,59.9756258317789,
stimuli/lamp_bump_02_a.png,stimuli/lamp_bump_02_b.png,0,26,26,21,"[1, 0]",right,0,13,23,f,y,y,2019_Jul_11_1103,2AFC_task,59.9756258317789,
stimuli/lamp_light_07_a.png,stimuli/lamp_light_07_b.png,0,27,27,36,"[0, 1]",right,1,13,23,f,y,y,2019_Jul_11_1103,2AFC_task,59.9756258317789,
stimuli/hdri_light_10_a.png,stimuli/hdri_light_10_b.png,0,28,28,19,"[0, 1]",right,1,13,23,f,y,y,2019_Jul_11_1103,2AFC_task,59.9756258317789,
stimuli/hdri_light_06_a.png,stimuli/hdri_light_06_b.png,0,29,29,15,"[1, 0]",right,0,13,23,f,y,y,2019_Jul_11_1103,2AFC_task,59.9756258317789,
stimuli/hdri_bump_10_a.png,stimuli/hdri_bump_10_b.png,0,30,30,9,"[1, 0]",left,1,13,23,f,y,y,2019_Jul_11_1103,2AFC_task,59.9756258317789,
stimuli/hdri_bump_03_a.png,stimuli/hdri_bump_03_b.png,0,31,31,2,"[0, 1]",right,1,13,23,f,y,y,2019_Jul_11_1103,2AFC_task,59.9756258317789,
stimuli/hdri_bump_06_a.png,stimuli/hdri_bump_06_b.png,0,32,32,5,"[0, 1]",right,1,13,23,f,y,y,2019_Jul_11_1103,2AFC_task,59.9756258317789,
stimuli/lamp_bump_08_a.png,stimuli/lamp_bump_08_b.png,0,33,33,27,"[0, 1]",left,0,13,23,f,y,y,2019_Jul_11_1103,2AFC_task,59.9756258317789,
stimuli/hdri_bump_05_a.png,stimuli/hdri_bump_05_b.png,0,34,34,4,"[0, 1]",right,1,13,23,f,y,y,2019_Jul_11_1103,2AFC_task,59.9756258317789,
stimuli/lamp_light_09_a.png,stimuli/lamp_light_09_b.png,0,35,35,38,"[0, 1]",right,1,13,23,f,y,y,2019_Jul_11_1103,2AFC_task,59.9756258317789,
stimuli/lamp_light_01_a.png,stimuli/lamp_light_01_b.png,0,36,36,30,"[1, 0]",left,1,13,23,f,y,y,2019_Jul_11_1103,2AFC_task,59.9756258317789,
stimuli/hdri_bump_01_a.png,stimuli/hdri_bump_01_b.png,0,37,37,0,"[0, 1]",right,1,13,23,f,y,y,2019_Jul_11_1103,2AFC_task,59.9756258317789,
stimuli/lamp_light_10_a.png,stimuli/lamp_light_10_b.png,0,38,38,39,"[1, 0]",left,1,13,23,f,y,y,2019_Jul_11_1103,2AFC_task,59.9756258317789,
stimuli/lamp_light_08_a.png,stimuli/lamp_light_08_b.png,0,39,39,37,"[1, 0]",left,1,13,23,f,y,y,2019_Jul_11_1103,2AFC_task,59.9756258317789,
stimuli/lamp_light_06_a.png,stimuli/lamp_light_06_b.png,1,0,40,35,"[1, 0]",left,1,13,23,f,y,y,2019_Jul_11_1103,2AFC_task,59.9756258317789,
stimuli/hdri_bump_05_a.png,stimuli/hdri_bump_05_b.png,1,1,41,4,"[0, 1]",right,1,13,23,f,y,y,2019_Jul_11_1103,2AFC_task,59.9756258317789,
stimuli/lamp_bump_06_a.png,stimuli/lamp_bump_06_b.png,1,2,42,25,"[0, 1]",left,0,13,23,f,y,y,2019_Jul_11_1103,2AFC_task,59.9756258317789,
stimuli/hdri_light_02_a.png,stimuli/hdri_light_02_b.png,1,3,43,11,"[1, 0]",right,0,13,23,f,y,y,2019_Jul_11_1103,2AFC_task,59.9756258317789,
stimuli/hdri_light_03_a.png,stimuli/hdri_light_03_b.png,1,4,44,12,"[0, 1]",left,0,13,23,f,y,y,2019_Jul_11_1103,2AFC_task,59.9756258317789,
stimuli/lamp_light_04_a.png,stimuli/lamp_light_04_b.png,1,5,45,33,"[0, 1]",right,1,13,23,f,y,y,2019_Jul_11_1103,2AFC_task,59.9756258317789,
stimuli/lamp_light_07_a.png,stimuli/lamp_light_07_b.png,1,6,46,36,"[1, 0]",left,1,13,23,f,y,y,2019_Jul_11_1103,2AFC_task,59.9756258317789,
stimuli/hdri_bump_03_a.png,stimuli/hdri_bump_03_b.png,1,7,47,2,"[1, 0]",right,0,13,23,f,y,y,2019_Jul_11_1103,2AFC_task,59.9756258317789,
stimuli/lamp_bump_03_a.png,stimuli/lamp_bump_03_b.png,1,8,48,22,"[1, 0]",left,1,13,23,f,y,y,2019_Jul_11_1103,2AFC_task,59.9756258317789,
stimuli/lamp_bump_05_a.png,stimuli/lamp_bump_05_b.png,1,9,49,24,"[0, 1]",right,1,13,23,f,y,y,2019_Jul_11_1103,2AFC_task,59.9756258317789,
stimuli/hdri_light_06_a.png,stimuli/hdri_light_06_b.png,1,10,50,15,"[1, 0]",right,0,13,23,f,y,y,2019_Jul_11_1103,2AFC_task,59.9756258317789,
stimuli/hdri_light_05_a.png,stimuli/hdri_light_05_b.png,1,11,51,14,"[1, 0]",right,0,13,23,f,y,y,2019_Jul_11_1103,2AFC_task,59.9756258317789,
stimuli/hdri_bump_06_a.png,stimuli/hdri_bump_06_b.png,1,12,52,5,"[0, 1]",right,1,13,23,f,y,y,2019_Jul_11_1103,2AFC_task,59.9756258317789,
stimuli/hdri_bump_04_a.png,stimuli/hdri_bump_04_b.png,1,13,53,3,"[1, 0]",left,1,13,23,f,y,y,2019_Jul_11_1103,2AFC_task,59.9756258317789,
stimuli/lamp_light_08_a.png,stimuli/lamp_light_08_b.png,1,14,54,37,"[0, 1]",right,1,13,23,f,y,y,2019_Jul_11_1103,2AFC_task,59.9756258317789,
stimuli/hdri_bump_10_a.png,stimuli/hdri_bump_10_b.png,1,15,55,9,"[0, 1]",right,1,13,23,f,y,y,2019_Jul_11_1103,2AFC_task,59.9756258317789,
stimuli/hdri_light_04_a.png,stimuli/hdri_light_04_b.png,1,16,56,13,"[1, 0]",right,0,13,23,f,y,y,2019_Jul_11_1103,2AFC_task,59.9756258317789,
stimuli/lamp_bump_02_a.png,stimuli/lamp_bump_02_b.png,1,17,57,21,"[1, 0]",right,0,13,23,f,y,y,2019_Jul_11_1103,2AFC_task,59.9756258317789,
stimuli/lamp_bump_08_a.png,stimuli/lamp_bump_08_b.png,1,18,58,27,"[1, 0]",left,1,13,23,f,y,y,2019_Jul_11_1103,2AFC_task,59.9756258317789,
stimuli/lamp_bump_01_a.png,stimuli/lamp_bump_01_b.png,1,19,59,20,"[0, 1]",left,0,13,23,f,y,y,2019_Jul_11_1103,2AFC_task,59.9756258317789,
stimuli/hdri_light_10_a.png,stimuli/hdri_light_10_b.png,1,20,60,19,"[1, 0]",left,1,13,23,f,y,y,2019_Jul_11_1103,2AFC_task,59.9756258317789,
stimuli/hdri_bump_09_a.png,stimuli/hdri_bump_09_b.png,1,21,61,8,"[1, 0]",left,1,13,23,f,y,y,2019_Jul_11_1103,2AFC_task,59.9756258317789,
stimuli/hdri_light_09_a.png,stimuli/hdri_light_09_b.png,1,22,62,18,"[1, 0]",right,0,13,23,f,y,y,2019_Jul_11_1103,2AFC_task,59.9756258317789,
stimuli/lamp_bump_09_a.png,stimuli/lamp_bump_09_b.png,1,23,63,28,"[1, 0]",left,1,13,23,f,y,y,2019_Jul_11_1103,2AFC_task,59.9756258317789,
stimuli/lamp_light_02_a.png,stimuli/lamp_light_02_b.png,1,24,64,31,"[0, 1]",right,1,13,23,f,y,y,2019_Jul_11_1103,2AFC_task,59.9756258317789,
stimuli/lamp_bump_07_a.png,stimuli/lamp_bump_07_b.png,1,25,65,26,"[0, 1]",left,0,13,23,f,y,y,2019_Jul_11_1103,2AFC_task,59.9756258317789,
stimuli/hdri_bump_08_a.png,stimuli/hdri_bump_08_b.png,1,26,66,7,"[0, 1]",right,1,13,23,f,y,y,2019_Jul_11_1103,2AFC_task,59.9756258317789,
stimuli/lamp_light_03_a.png,stimuli/lamp_light_03_b.png,1,27,67,32,"[0, 1]",right,1,13,23,f,y,y,2019_Jul_11_1103,2AFC_task,59.9756258317789,
stimuli/lamp_light_01_a.png,stimuli/lamp_light_01_b.png,1,28,68,30,"[1, 0]",left,1,13,23,f,y,y,2019_Jul_11_1103,2AFC_task,59.9756258317789,
stimuli/lamp_bump_10_a.png,stimuli/lamp_bump_10_b.png,1,29,69,29,"[0, 1]",right,1,13,23,f,y,y,2019_Jul_11_1103,2AFC_task,59.9756258317789,
stimuli/hdri_light_01_a.png,stimuli/hdri_light_01_b.png,1,30,70,10,"[0, 1]",left,0,13,23,f,y,y,2019_Jul_11_1103,2AFC_task,59.9756258317789,
stimuli/hdri_light_08_a.png,stimuli/hdri_light_08_b.png,1,31,71,17,"[1, 0]",left,1,13,23,f,y,y,2019_Jul_11_1103,2AFC_task,59.9756258317789,
stimuli/hdri_bump_02_a.png,stimuli/hdri_bump_02_b.png,1,32,72,1,"[0, 1]",right,1,13,23,f,y,y,2019_Jul_11_1103,2AFC_task,59.9756258317789,
stimuli/lamp_bump_04_a.png,stimuli/lamp_bump_04_b.png,1,33,73,23,"[0, 1]",left,0,13,23,f,y,y,2019_Jul_11_1103,2AFC_task,59.9756258317789,
stimuli/hdri_bump_01_a.png,stimuli/hdri_bump_01_b.png,1,34,74,0,"[1, 0]",left,1,13,23,f,y,y,2019_Jul_11_1103,2AFC_task,59.9756258317789,
stimuli/hdri_bump_07_a.png,stimuli/hdri_bump_07_b.png,1,35,75,6,"[0, 1]",right,1,13,23,f,y,y,2019_Jul_11_1103,2AFC_task,59.9756258317789,
stimuli/lamp_light_10_a.png,stimuli/lamp_light_10_b.png,1,36,76,39,"[0, 1]",right,1,13,23,f,y,y,2019_Jul_11_1103,2AFC_task,59.9756258317789,
stimuli/hdri_light_07_a.png,stimuli/hdri_light_07_b.png,1,37,77,16,"[0, 1]",left,0,13,23,f,y,y,2019_Jul_11_1103,2AFC_task,59.9756258317789,
stimuli/lamp_light_09_a.png,stimuli/lamp_light_09_b.png,1,38,78,38,"[0, 1]",right,1,13,23,f,y,y,2019_Jul_11_1103,2AFC_task,59.9756258317789,
stimuli/lamp_light_05_a.png,stimuli/lamp_light_05_b.png,1,39,79,34,"[0, 1]",right,1,13,23,f,y,y,2019_Jul_11_1103,2AFC_task,59.9756258317789,
stimuli/lamp_bump_03_a.png,stimuli/lamp_bump_03_b.png,2,0,80,22,"[1, 0]",left,1,13,23,f,y,y,2019_Jul_11_1103,2AFC_task,59.9756258317789,
stimuli/lamp_bump_01_a.png,stimuli/lamp_bump_01_b.png,2,1,81,20,"[1, 0]",right,0,13,23,f,y,y,2019_Jul_11_1103,2AFC_task,59.9756258317789,
stimuli/lamp_light_05_a.png,stimuli/lamp_light_05_b.png,2,2,82,34,"[0, 1]",right,1,13,23,f,y,y,2019_Jul_11_1103,2AFC_task,59.9756258317789,
stimuli/lamp_light_04_a.png,stimuli/lamp_light_04_b.png,2,3,83,33,"[0, 1]",right,1,13,23,f,y,y,2019_Jul_11_1103,2AFC_task,59.9756258317789,
stimuli/hdri_bump_10_a.png,stimuli/hdri_bump_10_b.png,2,4,84,9,"[0, 1]",right,1,13,23,f,y,y,2019_Jul_11_1103,2AFC_task,59.9756258317789,
stimuli/hdri_bump_01_a.png,stimuli/hdri_bump_01_b.png,2,5,85,0,"[0, 1]",right,1,13,23,f,y,y,2019_Jul_11_1103,2AFC_task,59.9756258317789,
stimuli/lamp_light_03_a.png,stimuli/lamp_light_03_b.png,2,6,86,32,"[0, 1]",right,1,13,23,f,y,y,2019_Jul_11_1103,2AFC_task,59.9756258317789,
stimuli/lamp_light_06_a.png,stimuli/lamp_light_06_b.png,2,7,87,35,"[0, 1]",right,1,13,23,f,y,y,2019_Jul_11_1103,2AFC_task,59.9756258317789,
stimuli/hdri_bump_06_a.png,stimuli/hdri_bump_06_b.png,2,8,88,5,"[0, 1]",right,1,13,23,f,y,y,2019_Jul_11_1103,2AFC_task,59.9756258317789,
stimuli/hdri_light_03_a.png,stimuli/hdri_light_03_b.png,2,9,89,12,"[1, 0]",right,0,13,23,f,y,y,2019_Jul_11_1103,2AFC_task,59.9756258317789,
stimuli/lamp_bump_08_a.png,stimuli/lamp_bump_08_b.png,2,10,90,27,"[0, 1]",left,0,13,23,f,y,y,2019_Jul_11_1103,2AFC_task,59.9756258317789,
stimuli/lamp_light_02_a.png,stimuli/lamp_light_02_b.png,2,11,91,31,"[0, 1]",right,1,13,23,f,y,y,2019_Jul_11_1103,2AFC_task,59.9756258317789,
stimuli/hdri_bump_02_a.png,stimuli/hdri_bump_02_b.png,2,12,92,1,"[0, 1]",right,1,13,23,f,y,y,2019_Jul_11_1103,2AFC_task,59.9756258317789,
stimuli/hdri_bump_04_a.png,stimuli/hdri_bump_04_b.png,2,13,93,3,"[0, 1]",right,1,13,23,f,y,y,2019_Jul_11_1103,2AFC_task,59.9756258317789,
stimuli/hdri_light_07_a.png,stimuli/hdri_light_07_b.png,2,14,94,16,"[0, 1]",right,1,13,23,f,y,y,2019_Jul_11_1103,2AFC_task,59.9756258317789,
stimuli/hdri_light_05_a.png,stimuli/hdri_light_05_b.png,2,15,95,14,"[1, 0]",right,0,13,23,f,y,y,2019_Jul_11_1103,2AFC_task,59.9756258317789,
stimuli/lamp_bump_02_a.png,stimuli/lamp_bump_02_b.png,2,16,96,21,"[0, 1]",left,0,13,23,f,y,y,2019_Jul_11_1103,2AFC_task,59.9756258317789,
stimuli/hdri_light_06_a.png,stimuli/hdri_light_06_b.png,2,17,97,15,"[0, 1]",left,0,13,23,f,y,y,2019_Jul_11_1103,2AFC_task,59.9756258317789,
stimuli/lamp_light_10_a.png,stimuli/lamp_light_10_b.png,2,18,98,39,"[0, 1]",right,1,13,23,f,y,y,2019_Jul_11_1103,2AFC_task,59.9756258317789,
stimuli/hdri_light_09_a.png,stimuli/hdri_light_09_b.png,2,19,99,18,"[0, 1]",left,0,13,23,f,y,y,2019_Jul_11_1103,2AFC_task,59.9756258317789,
stimuli/lamp_light_08_a.png,stimuli/lamp_light_08_b.png,2,20,100,37,"[1, 0]",left,1,13,23,f,y,y,2019_Jul_11_1103,2AFC_task,59.9756258317789,
stimuli/lamp_light_07_a.png,stimuli/lamp_light_07_b.png,2,21,101,36,"[1, 0]",left,1,13,23,f,y,y,2019_Jul_11_1103,2AFC_task,59.9756258317789,
stimuli/hdri_bump_07_a.png,stimuli/hdri_bump_07_b.png,2,22,102,6,"[1, 0]",left,1,13,23,f,y,y,2019_Jul_11_1103,2AFC_task,59.9756258317789,
stimuli/hdri_light_02_a.png,stimuli/hdri_light_02_b.png,2,23,103,11,"[1, 0]",right,0,13,23,f,y,y,2019_Jul_11_1103,2AFC_task,59.9756258317789,
stimuli/hdri_bump_08_a.png,stimuli/hdri_bump_08_b.png,2,24,104,7,"[0, 1]",right,1,13,23,f,y,y,2019_Jul_11_1103,2AFC_task,59.9756258317789,
stimuli/lamp_light_01_a.png,stimuli/lamp_light_01_b.png,2,25,105,30,"[1, 0]",left,1,13,23,f,y,y,2019_Jul_11_1103,2AFC_task,59.9756258317789,
stimuli/lamp_bump_10_a.png,stimuli/lamp_bump_10_b.png,2,26,106,29,"[0, 1]",right,1,13,23,f,y,y,2019_Jul_11_1103,2AFC_task,59.9756258317789,
stimuli/lamp_light_09_a.png,stimuli/lamp_light_09_b.png,2,27,107,38,"[1, 0]",left,1,13,23,f,y,y,2019_Jul_11_1103,2AFC_task,59.9756258317789,
stimuli/hdri_bump_05_a.png,stimuli/hdri_bump_05_b.png,2,28,108,4,"[0, 1]",right,1,13,23,f,y,y,2019_Jul_11_1103,2AFC_task,59.9756258317789,
stimuli/hdri_light_08_a.png,stimuli/hdri_light_08_b.png,2,29,109,17,"[1, 0]",left,1,13,23,f,y,y,2019_Jul_11_1103,2AFC_task,59.9756258317789,
stimuli/hdri_light_01_a.png,stimuli/hdri_light_01_b.png,2,30,110,10,"[0, 1]",right,1,13,23,f,y,y,2019_Jul_11_1103,2AFC_task,59.9756258317789,
stimuli/lamp_bump_05_a.png,stimuli/lamp_bump_05_b.png,2,31,111,24,"[1, 0]",left,1,13,23,f,y,y,2019_Jul_11_1103,2AFC_task,59.9756258317789,
stimuli/hdri_bump_03_a.png,stimuli/hdri_bump_03_b.png,2,32,112,2,"[0, 1]",right,1,13,23,f,y,y,2019_Jul_11_1103,2AFC_task,59.9756258317789,
stimuli/hdri_bump_09_a.png,stimuli/hdri_bump_09_b.png,2,33,113,8,"[0, 1]",right,1,13,23,f,y,y,2019_Jul_11_1103,2AFC_task,59.9756258317789,
stimuli/lamp_bump_06_a.png,stimuli/lamp_bump_06_b.png,2,34,114,25,"[1, 0]",left,1,13,23,f,y,y,2019_Jul_11_1103,2AFC_task,59.9756258317789,
stimuli/lamp_bump_09_a.png,stimuli/lamp_bump_09_b.png,2,35,115,28,"[0, 1]",left,0,13,23,f,y,y,2019_Jul_11_1103,2AFC_task,59.9756258317789,
stimuli/lamp_bump_07_a.png,stimuli/lamp_bump_07_b.png,2,36,116,26,"[1, 0]",right,0,13,23,f,y,y,2019_Jul_11_1103,2AFC_task,59.9756258317789,
stimuli/hdri_light_10_a.png,stimuli/hdri_light_10_b.png,2,37,117,19,"[0, 1]",right,1,13,23,f,y,y,2019_Jul_11_1103,2AFC_task,59.9756258317789,
stimuli/hdri_light_04_a.png,stimuli/hdri_light_04_b.png,2,38,118,13,"[1, 0]",left,1,13,23,f,y,y,2019_Jul_11_1103,2AFC_task,59.9756258317789,
stimuli/lamp_bump_04_a.png,stimuli/lamp_bump_04_b.png,2,39,119,23,"[0, 1]",left,0,13,23,f,y,y,2019_Jul_11_1103,2AFC_task,59.9756258317789,
stimuli/hdri_bump_05_a.png,stimuli/hdri_bump_05_b.png,3,0,120,4,"[1, 0]",left,1,13,23,f,y,y,2019_Jul_11_1103,2AFC_task,59.9756258317789,
stimuli/hdri_light_10_a.png,stimuli/hdri_light_10_b.png,3,1,121,19,"[1, 0]",left,1,13,23,f,y,y,2019_Jul_11_1103,2AFC_task,59.9756258317789,
stimuli/hdri_bump_09_a.png,stimuli/hdri_bump_09_b.png,3,2,122,8,"[1, 0]",right,0,13,23,f,y,y,2019_Jul_11_1103,2AFC_task,59.9756258317789,
stimuli/hdri_bump_10_a.png,stimuli/hdri_bump_10_b.png,3,3,123,9,"[0, 1]",right,1,13,23,f,y,y,2019_Jul_11_1103,2AFC_task,59.9756258317789,
stimuli/hdri_light_08_a.png,stimuli/hdri_light_08_b.png,3,4,124,17,"[1, 0]",right,0,13,23,f,y,y,2019_Jul_11_1103,2AFC_task,59.9756258317789,
stimuli/hdri_light_02_a.png,stimuli/hdri_light_02_b.png,3,5,125,11,"[0, 1]",left,0,13,23,f,y,y,2019_Jul_11_1103,2AFC_task,59.9756258317789,
stimuli/hdri_bump_03_a.png,stimuli/hdri_bump_03_b.png,3,6,126,2,"[0, 1]",left,0,13,23,f,y,y,2019_Jul_11_1103,2AFC_task,59.9756258317789,
stimuli/lamp_bump_04_a.png,stimuli/lamp_bump_04_b.png,3,7,127,23,"[1, 0]",left,1,13,23,f,y,y,2019_Jul_11_1103,2AFC_task,59.9756258317789,
stimuli/hdri_bump_02_a.png,stimuli/hdri_bump_02_b.png,3,8,128,1,"[0, 1]",right,1,13,23,f,y,y,2019_Jul_11_1103,2AFC_task,59.9756258317789,
stimuli/hdri_bump_06_a.png,stimuli/hdri_bump_06_b.png,3,9,129,5,"[0, 1]",right,1,13,23,f,y,y,2019_Jul_11_1103,2AFC_task,59.9756258317789,
stimuli/lamp_bump_02_a.png,stimuli/lamp_bump_02_b.png,3,10,130,21,"[1, 0]",right,0,13,23,f,y,y,2019_Jul_11_1103,2AFC_task,59.9756258317789,
stimuli/hdri_bump_07_a.png,stimuli/hdri_bump_07_b.png,3,11,131,6,"[1, 0]",left,1,13,23,f,y,y,2019_Jul_11_1103,2AFC_task,59.9756258317789,
stimuli/lamp_bump_03_a.png,stimuli/lamp_bump_03_b.png,3,12,132,22,"[1, 0]",left,1,13,23,f,y,y,2019_Jul_11_1103,2AFC_task,59.9756258317789,
stimuli/hdri_light_06_a.png,stimuli/hdri_light_06_b.png,3,13,133,15,"[1, 0]",right,0,13,23,f,y,y,2019_Jul_11_1103,2AFC_task,59.9756258317789,
stimuli/lamp_bump_06_a.png,stimuli/lamp_bump_06_b.png,3,14,134,25,"[1, 0]",right,0,13,23,f,y,y,2019_Jul_11_1103,2AFC_task,59.9756258317789,
stimuli/lamp_light_01_a.png,stimuli/lamp_light_01_b.png,3,15,135,30,"[0, 1]",right,1,13,23,f,y,y,2019_Jul_11_1103,2AFC_task,59.9756258317789,
stimuli/hdri_bump_01_a.png,stimuli/hdri_bump_01_b.png,3,16,136,0,"[0, 1]",right,1,13,23,f,y,y,2019_Jul_11_1103,2AFC_task,59.9756258317789,
stimuli/lamp_light_02_a.png,stimuli/lamp_light_02_b.png,3,17,137,31,"[0, 1]",right,1,13,23,f,y,y,2019_Jul_11_1103,2AFC_task,59.9756258317789,
stimuli/hdri_bump_08_a.png,stimuli/hdri_bump_08_b.png,3,18,138,7,"[0, 1]",right,1,13,23,f,y,y,2019_Jul_11_1103,2AFC_task,59.9756258317789,
stimuli/lamp_bump_09_a.png,stimuli/lamp_bump_09_b.png,3,19,139,28,"[0, 1]",right,1,13,23,f,y,y,2019_Jul_11_1103,2AFC_task,59.9756258317789,
stimuli/hdri_light_03_a.png,stimuli/hdri_light_03_b.png,3,20,140,12,"[0, 1]",left,0,13,23,f,y,y,2019_Jul_11_1103,2AFC_task,59.9756258317789,
stimuli/hdri_light_09_a.png,stimuli/hdri_light_09_b.png,3,21,141,18,"[1, 0]",right,0,13,23,f,y,y,2019_Jul_11_1103,2AFC_task,59.9756258317789,
stimuli/lamp_light_08_a.png,stimuli/lamp_light_08_b.png,3,22,142,37,"[0, 1]",right,1,13,23,f,y,y,2019_Jul_11_1103,2AFC_task,59.9756258317789,
stimuli/hdri_light_07_a.png,stimuli/hdri_light_07_b.png,3,23,143,16,"[0, 1]",right,1,13,23,f,y,y,2019_Jul_11_1103,2AFC_task,59.9756258317789,
stimuli/lamp_light_05_a.png,stimuli/lamp_light_05_b.png,3,24,144,34,"[0, 1]",right,1,13,23,f,y,y,2019_Jul_11_1103,2AFC_task,59.9756258317789,
stimuli/lamp_light_09_a.png,stimuli/lamp_light_09_b.png,3,25,145,38,"[0, 1]",right,1,13,23,f,y,y,2019_Jul_11_1103,2AFC_task,59.9756258317789,
stimuli/lamp_light_03_a.png,stimuli/lamp_light_03_b.png,3,26,146,32,"[0, 1]",right,1,13,23,f,y,y,2019_Jul_11_1103,2AFC_task,59.9756258317789,
stimuli/lamp_light_10_a.png,stimuli/lamp_light_10_b.png,3,27,147,39,"[1, 0]",left,1,13,23,f,y,y,2019_Jul_11_1103,2AFC_task,59.9756258317789,
stimuli/hdri_light_04_a.png,stimuli/hdri_light_04_b.png,3,28,148,13,"[0, 1]",right,1,13,23,f,y,y,2019_Jul_11_1103,2AFC_task,59.9756258317789,
stimuli/hdri_bump_04_a.png,stimuli/hdri_bump_04_b.png,3,29,149,3,"[1, 0]",left,1,13,23,f,y,y,2019_Jul_11_1103,2AFC_task,59.9756258317789,
stimuli/hdri_light_05_a.png,stimuli/hdri_light_05_b.png,3,30,150,14,"[1, 0]",right,0,13,23,f,y,y,2019_Jul_11_1103,2AFC_task,59.9756258317789,
stimuli/lamp_bump_10_a.png,stimuli/lamp_bump_10_b.png,3,31,151,29,"[0, 1]",right,1,13,23,f,y,y,2019_Jul_11_1103,2AFC_task,59.9756258317789,
stimuli/lamp_bump_05_a.png,stimuli/lamp_bump_05_b.png,3,32,152,24,"[1, 0]",left,1,13,23,f,y,y,2019_Jul_11_1103,2AFC_task,59.9756258317789,
stimuli/lamp_light_07_a.png,stimuli/lamp_light_07_b.png,3,33,153,36,"[1, 0]",left,1,13,23,f,y,y,2019_Jul_11_1103,2AFC_task,59.9756258317789,
stimuli/lamp_light_04_a.png,stimuli/lamp_light_04_b.png,3,34,154,33,"[0, 1]",right,1,13,23,f,y,y,2019_Jul_11_1103,2AFC_task,59.9756258317789,
stimuli/hdri_light_01_a.png,stimuli/hdri_light_01_b.png,3,35,155,10,"[1, 0]",right,0,13,23,f,y,y,2019_Jul_11_1103,2AFC_task,59.9756258317789,
stimuli/lamp_bump_08_a.png,stimuli/lamp_bump_08_b.png,3,36,156,27,"[0, 1]",left,0,13,23,f,y,y,2019_Jul_11_1103,2AFC_task,59.9756258317789,
stimuli/lamp_bump_01_a.png,stimuli/lamp_bump_01_b.png,3,37,157,20,"[0, 1]",left,0,13,23,f,y,y,2019_Jul_11_1103,2AFC_task,59.9756258317789,
stimuli/lamp_light_06_a.png,stimuli/lamp_light_06_b.png,3,38,158,35,"[1, 0]",left,1,13,23,f,y,y,2019_Jul_11_1103,2AFC_task,59.9756258317789,
stimuli/lamp_bump_07_a.png,stimuli/lamp_bump_07_b.png,3,39,159,26,"[1, 0]",right,0,13,23,f,y,y,2019_Jul_11_1103,2AFC_task,59.9756258317789,
stimuli/hdri_bump_07_a.png,stimuli/hdri_bump_07_b.png,4,0,160,6,"[1, 0]",left,1,13,23,f,y,y,2019_Jul_11_1103,2AFC_task,59.9756258317789,
stimuli/lamp_light_03_a.png,stimuli/lamp_light_03_b.png,4,1,161,32,"[1, 0]",right,0,13,23,f,y,y,2019_Jul_11_1103,2AFC_task,59.9756258317789,
stimuli/lamp_light_07_a.png,stimuli/lamp_light_07_b.png,4,2,162,36,"[0, 1]",right,1,13,23,f,y,y,2019_Jul_11_1103,2AFC_task,59.9756258317789,
stimuli/hdri_bump_10_a.png,stimuli/hdri_bump_10_b.png,4,3,163,9,"[0, 1]",right,1,13,23,f,y,y,2019_Jul_11_1103,2AFC_task,59.9756258317789,
stimuli/lamp_bump_10_a.png,stimuli/lamp_bump_10_b.png,4,4,164,29,"[1, 0]",left,1,13,23,f,y,y,2019_Jul_11_1103,2AFC_task,59.9756258317789,
stimuli/lamp_light_08_a.png,stimuli/lamp_light_08_b.png,4,5,165,37,"[1, 0]",left,1,13,23,f,y,y,2019_Jul_11_1103,2AFC_task,59.9756258317789,
stimuli/lamp_light_06_a.png,stimuli/lamp_light_06_b.png,4,6,166,35,"[0, 1]",right,1,13,23,f,y,y,2019_Jul_11_1103,2AFC_task,59.9756258317789,
stimuli/lamp_light_10_a.png,stimuli/lamp_light_10_b.png,4,7,167,39,"[1, 0]",left,1,13,23,f,y,y,2019_Jul_11_1103,2AFC_task,59.9756258317789,
stimuli/lamp_bump_08_a.png,stimuli/lamp_bump_08_b.png,4,8,168,27,"[1, 0]",right,0,13,23,f,y,y,2019_Jul_11_1103,2AFC_task,59.9756258317789,
stimuli/hdri_light_10_a.png,stimuli/hdri_light_10_b.png,4,9,169,19,"[0, 1]",right,1,13,23,f,y,y,2019_Jul_11_1103,2AFC_task,59.9756258317789,
stimuli/hdri_light_01_a.png,stimuli/hdri_light_01_b.png,4,10,170,10,"[0, 1]",left,0,13,23,f,y,y,2019_Jul_11_1103,2AFC_task,59.9756258317789,
stimuli/lamp_bump_07_a.png,stimuli/lamp_bump_07_b.png,4,11,171,26,"[1, 0]",right,0,13,23,f,y,y,2019_Jul_11_1103,2AFC_task,59.9756258317789,
stimuli/lamp_light_04_a.png,stimuli/lamp_light_04_b.png,4,12,172,33,"[0, 1]",right,1,13,23,f,y,y,2019_Jul_11_1103,2AFC_task,59.9756258317789,
stimuli/lamp_light_01_a.png,stimuli/lamp_light_01_b.png,4,13,173,30,"[1, 0]",left,1,13,23,f,y,y,2019_Jul_11_1103,2AFC_task,59.9756258317789,
stimuli/hdri_bump_09_a.png,stimuli/hdri_bump_09_b.png,4,14,174,8,"[1, 0]",left,1,13,23,f,y,y,2019_Jul_11_1103,2AFC_task,59.9756258317789,
stimuli/lamp_light_02_a.png,stimuli/lamp_light_02_b.png,4,15,175,31,"[1, 0]",right,0,13,23,f,y,y,2019_Jul_11_1103,2AFC_task,59.9756258317789,
stimuli/lamp_bump_09_a.png,stimuli/lamp_bump_09_b.png,4,16,176,28,"[0, 1]",left,0,13,23,f,y,y,2019_Jul_11_1103,2AFC_task,59.9756258317789,
stimuli/lamp_bump_04_a.png,stimuli/lamp_bump_04_b.png,4,17,177,23,"[1, 0]",right,0,13,23,f,y,y,2019_Jul_11_1103,2AFC_task,59.9756258317789,
stimuli/lamp_light_05_a.png,stimuli/lamp_light_05_b.png,4,18,178,34,"[1, 0]",left,1,13,23,f,y,y,2019_Jul_11_1103,2AFC_task,59.9756258317789,
stimuli/hdri_bump_06_a.png,stimuli/hdri_bump_06_b.png,4,19,179,5,"[0, 1]",right,1,13,23,f,y,y,2019_Jul_11_1103,2AFC_task,59.9756258317789,
stimuli/lamp_bump_01_a.png,stimuli/lamp_bump_01_b.png,4,20,180,20,"[0, 1]",left,0,13,23,f,y,y,2019_Jul_11_1103,2AFC_task,59.9756258317789,
stimuli/hdri_bump_04_a.png,stimuli/hdri_bump_04_b.png,4,21,181,3,"[0, 1]",right,1,13,23,f,y,y,2019_Jul_11_1103,2AFC_task,59.9756258317789,
stimuli/hdri_light_08_a.png,stimuli/hdri_light_08_b.png,4,22,182,17,"[0, 1]",right,1,13,23,f,y,y,2019_Jul_11_1103,2AFC_task,59.9756258317789,
stimuli/hdri_bump_05_a.png,stimuli/hdri_bump_05_b.png,4,23,183,4,"[0, 1]",right,1,13,23,f,y,y,2019_Jul_11_1103,2AFC_task,59.9756258317789,
stimuli/hdri_light_07_a.png,stimuli/hdri_light_07_b.png,4,24,184,16,"[0, 1]",right,1,13,23,f,y,y,2019_Jul_11_1103,2AFC_task,59.9756258317789,
stimuli/hdri_bump_03_a.png,stimuli/hdri_bump_03_b.png,4,25,185,2,"[0, 1]",left,0,13,23,f,y,y,2019_Jul_11_1103,2AFC_task,59.9756258317789,
stimuli/hdri_light_03_a.png,stimuli/hdri_light_03_b.png,4,26,186,12,"[0, 1]",left,0,13,23,f,y,y,2019_Jul_11_1103,2AFC_task,59.9756258317789,
stimuli/hdri_light_04_a.png,stimuli/hdri_light_04_b.png,4,27,187,13,"[1, 0]",left,1,13,23,f,y,y,2019_Jul_11_1103,2AFC_task,59.9756258317789,
stimuli/lamp_bump_03_a.png,stimuli/lamp_bump_03_b.png,4,28,188,22,"[0, 1]",right,1,13,23,f,y,y,2019_Jul_11_1103,2AFC_task,59.9756258317789,
stimuli/hdri_bump_08_a.png,stimuli/hdri_bump_08_b.png,4,29,189,7,"[1, 0]",left,1,13,23,f,y,y,2019_Jul_11_1103,2AFC_task,59.9756258317789,
stimuli/hdri_bump_01_a.png,stimuli/hdri_bump_01_b.png,4,30,190,0,"[1, 0]",left,1,13,23,f,y,y,2019_Jul_11_1103,2AFC_task,59.9756258317789,
stimuli/lamp_bump_06_a.png,stimuli/lamp_bump_06_b.png,4,31,191,25,"[1, 0]",right,0,13,23,f,y,y,2019_Jul_11_1103,2AFC_task,59.9756258317789,
stimuli/lamp_bump_05_a.png,stimuli/lamp_bump_05_b.png,4,32,192,24,"[0, 1]",right,1,13,23,f,y,y,2019_Jul_11_1103,2AFC_task,59.9756258317789,
stimuli/hdri_light_05_a.png,stimuli/hdri_light_05_b.png,4,33,193,14,"[0, 1]",right,1,13,23,f,y,y,2019_Jul_11_1103,2AFC_task,59.9756258317789,
stimuli/hdri_light_09_a.png,stimuli/hdri_light_09_b.png,4,34,194,18,"[1, 0]",right,0,13,23,f,y,y,2019_Jul_11_1103,2AFC_task,59.9756258317789,
stimuli/hdri_light_02_a.png,stimuli/hdri_light_02_b.png,4,35,195,11,"[0, 1]",left,0,13,23,f,y,y,2019_Jul_11_1103,2AFC_task,59.9756258317789,
stimuli/lamp_light_09_a.png,stimuli/lamp_light_09_b.png,4,36,196,38,"[0, 1]",right,1,13,23,f,y,y,2019_Jul_11_1103,2AFC_task,59.9756258317789,
stimuli/hdri_light_06_a.png,stimuli/hdri_light_06_b.png,4,37,197,15,"[0, 1]",left,0,13,23,f,y,y,2019_Jul_11_1103,2AFC_task,59.9756258317789,
stimuli/lamp_bump_02_a.png,stimuli/lamp_bump_02_b.png,4,38,198,21,"[0, 1]",right,1,13,23,f,y,y,2019_Jul_11_1103,2AFC_task,59.9756258317789,
stimuli/hdri_bump_02_a.png,stimuli/hdri_bump_02_b.png,4,39,199,1,"[1, 0]",left,1,13,23,f,y,y,2019_Jul_11_1103,2AFC_task,59.9756258317789,
stimuli/lamp_bump_09_a.png,stimuli/lamp_bump_09_b.png,5,0,200,28,"[0, 1]",left,0,13,23,f,y,y,2019_Jul_11_1103,2AFC_task,59.9756258317789,
stimuli/lamp_light_04_a.png,stimuli/lamp_light_04_b.png,5,1,201,33,"[0, 1]",right,1,13,23,f,y,y,2019_Jul_11_1103,2AFC_task,59.9756258317789,
stimuli/hdri_light_03_a.png,stimuli/hdri_light_03_b.png,5,2,202,12,"[0, 1]",left,0,13,23,f,y,y,2019_Jul_11_1103,2AFC_task,59.9756258317789,
stimuli/hdri_bump_09_a.png,stimuli/hdri_bump_09_b.png,5,3,203,8,"[0, 1]",right,1,13,23,f,y,y,2019_Jul_11_1103,2AFC_task,59.9756258317789,
stimuli/hdri_light_09_a.png,stimuli/hdri_light_09_b.png,5,4,204,18,"[0, 1]",left,0,13,23,f,y,y,2019_Jul_11_1103,2AFC_task,59.9756258317789,
stimuli/hdri_bump_05_a.png,stimuli/hdri_bump_05_b.png,5,5,205,4,"[1, 0]",left,1,13,23,f,y,y,2019_Jul_11_1103,2AFC_task,59.9756258317789,
stimuli/lamp_bump_01_a.png,stimuli/lamp_bump_01_b.png,5,6,206,20,"[0, 1]",right,1,13,23,f,y,y,2019_Jul_11_1103,2AFC_task,59.9756258317789,
stimuli/lamp_light_07_a.png,stimuli/lamp_light_07_b.png,5,7,207,36,"[1, 0]",left,1,13,23,f,y,y,2019_Jul_11_1103,2AFC_task,59.9756258317789,
stimuli/lamp_light_03_a.png,stimuli/lamp_light_03_b.png,5,8,208,32,"[0, 1]",right,1,13,23,f,y,y,2019_Jul_11_1103,2AFC_task,59.9756258317789,
stimuli/lamp_bump_04_a.png,stimuli/lamp_bump_04_b.png,5,9,209,23,"[1, 0]",right,0,13,23,f,y,y,2019_Jul_11_1103,2AFC_task,59.9756258317789,
stimuli/hdri_light_06_a.png,stimuli/hdri_light_06_b.png,5,10,210,15,"[0, 1]",left,0,13,23,f,y,y,2019_Jul_11_1103,2AFC_task,59.9756258317789,
stimuli/lamp_bump_05_a.png,stimuli/lamp_bump_05_b.png,5,11,211,24,"[0, 1]",right,1,13,23,f,y,y,2019_Jul_11_1103,2AFC_task,59.9756258317789,
stimuli/lamp_light_09_a.png,stimuli/lamp_light_09_b.png,5,12,212,38,"[0, 1]",right,1,13,23,f,y,y,2019_Jul_11_1103,2AFC_task,59.9756258317789,
stimuli/lamp_light_02_a.png,stimuli/lamp_light_02_b.png,5,13,213,31,"[0, 1]",left,0,13,23,f,y,y,2019_Jul_11_1103,2AFC_task,59.9756258317789,
stimuli/hdri_bump_04_a.png,stimuli/hdri_bump_04_b.png,5,14,214,3,"[0, 1]",right,1,13,23,f,y,y,2019_Jul_11_1103,2AFC_task,59.9756258317789,
stimuli/lamp_light_06_a.png,stimuli/lamp_light_06_b.png,5,15,215,35,"[0, 1]",right,1,13,23,f,y,y,2019_Jul_11_1103,2AFC_task,59.9756258317789,
stimuli/hdri_bump_07_a.png,stimuli/hdri_bump_07_b.png,5,16,216,6,"[0, 1]",right,1,13,23,f,y,y,2019_Jul_11_1103,2AFC_task,59.9756258317789,
stimuli/lamp_bump_07_a.png,stimuli/lamp_bump_07_b.png,5,17,217,26,"[1, 0]",right,0,13,23,f,y,y,2019_Jul_11_1103,2AFC_task,59.9756258317789,
stimuli/hdri_bump_06_a.png,stimuli/hdri_bump_06_b.png,5,18,218,5,"[0, 1]",right,1,13,23,f,y,y,2019_Jul_11_1103,2AFC_task,59.9756258317789,
stimuli/hdri_light_10_a.png,stimuli/hdri_light_10_b.png,5,19,219,19,"[1, 0]",left,1,13,23,f,y,y,2019_Jul_11_1103,2AFC_task,59.9756258317789,
stimuli/hdri_bump_01_a.png,stimuli/hdri_bump_01_b.png,5,20,220,0,"[1, 0]",left,1,13,23,f,y,y,2019_Jul_11_1103,2AFC_task,59.9756258317789,
stimuli/hdri_bump_02_a.png,stimuli/hdri_bump_02_b.png,5,21,221,1,"[1, 0]",left,1,13,23,f,y,y,2019_Jul_11_1103,2AFC_task,59.9756258317789,
stimuli/lamp_light_01_a.png,stimuli/lamp_light_01_b.png,5,22,222,30,"[1, 0]",left,1,13,23,f,y,y,2019_Jul_11_1103,2AFC_task,59.9756258317789,
stimuli/lamp_light_08_a.png,stimuli/lamp_light_08_b.png,5,23,223,37,"[1, 0]",left,1,13,23,f,y,y,2019_Jul_11_1103,2AFC_task,59.9756258317789,
stimuli/hdri_light_01_a.png,stimuli/hdri_light_01_b.png,5,24,224,10,"[0, 1]",right,1,13,23,f,y,y,2019_Jul_11_1103,2AFC_task,59.9756258317789,
stimuli/hdri_light_04_a.png,stimuli/hdri_light_04_b.png,5,25,225,13,"[0, 1]",left,0,13,23,f,y,y,2019_Jul_11_1103,2AFC_task,59.9756258317789,
stimuli/hdri_bump_10_a.png,stimuli/hdri_bump_10_b.png,5,26,226,9,"[1, 0]",left,1,13,23,f,y,y,2019_Jul_11_1103,2AFC_task,59.9756258317789,
stimuli/hdri_light_08_a.png,stimuli/hdri_light_08_b.png,5,27,227,17,"[0, 1]",right,1,13,23,f,y,y,2019_Jul_11_1103,2AFC_task,59.9756258317789,
stimuli/hdri_light_02_a.png,stimuli/hdri_light_02_b.png,5,28,228,11,"[0, 1]",left,0,13,23,f,y,y,2019_Jul_11_1103,2AFC_task,59.9756258317789,
stimuli/lamp_bump_10_a.png,stimuli/lamp_bump_10_b.png,5,29,229,29,"[0, 1]",right,1,13,23,f,y,y,2019_Jul_11_1103,2AFC_task,59.9756258317789,
stimuli/hdri_light_07_a.png,stimuli/hdri_light_07_b.png,5,30,230,16,"[0, 1]",right,1,13,23,f,y,y,2019_Jul_11_1103,2AFC_task,59.9756258317789,
stimuli/lamp_bump_03_a.png,stimuli/lamp_bump_03_b.png,5,31,231,22,"[1, 0]",left,1,13,23,f,y,y,2019_Jul_11_1103,2AFC_task,59.9756258317789,
stimuli/lamp_light_10_a.png,stimuli/lamp_light_10_b.png,5,32,232,39,"[1, 0]",left,1,13,23,f,y,y,2019_Jul_11_1103,2AFC_task,59.9756258317789,
stimuli/hdri_light_05_a.png,stimuli/hdri_light_05_b.png,5,33,233,14,"[1, 0]",right,0,13,23,f,y,y,2019_Jul_11_1103,2AFC_task,59.9756258317789,
stimuli/lamp_light_05_a.png,stimuli/lamp_light_05_b.png,5,34,234,34,"[1, 0]",left,1,13,23,f,y,y,2019_Jul_11_1103,2AFC_task,59.9756258317789,
stimuli/lamp_bump_06_a.png,stimuli/lamp_bump_06_b.png,5,35,235,25,"[1, 0]",right,0,13,23,f,y,y,2019_Jul_11_1103,2AFC_task,59.9756258317789,
stimuli/lamp_bump_08_a.png,stimuli/lamp_bump_08_b.png,5,36,236,27,"[0, 1]",left,0,13,23,f,y,y,2019_Jul_11_1103,2AFC_task,59.9756258317789,
stimuli/lamp_bump_02_a.png,stimuli/lamp_bump_02_b.png,5,37,237,21,"[1, 0]",right,0,13,23,f,y,y,2019_Jul_11_1103,2AFC_task,59.9756258317789,
stimuli/hdri_bump_03_a.png,stimuli/hdri_bump_03_b.png,5,38,238,2,"[1, 0]",left,1,13,23,f,y,y,2019_Jul_11_1103,2AFC_task,59.9756258317789,
stimuli/hdri_bump_08_a.png,stimuli/hdri_bump_08_b.png,5,39,239,7,"[0, 1]",right,1,13,23,f,y,y,2019_Jul_11_1103,2AFC_task,59.9756258317789,
stimuli/lamp_light_01_a.png,stimuli/lamp_light_01_b.png,6,0,240,30,"[1, 0]",left,1,13,23,f,y,y,2019_Jul_11_1103,2AFC_task,59.9756258317789,
stimuli/hdri_light_07_a.png,stimuli/hdri_light_07_b.png,6,1,241,16,"[0, 1]",right,1,13,23,f,y,y,2019_Jul_11_1103,2AFC_task,59.9756258317789,
stimuli/hdri_bump_08_a.png,stimuli/hdri_bump_08_b.png,6,2,242,7,"[1, 0]",left,1,13,23,f,y,y,2019_Jul_11_1103,2AFC_task,59.9756258317789,
stimuli/hdri_bump_05_a.png,stimuli/hdri_bump_05_b.png,6,3,243,4,"[1, 0]",left,1,13,23,f,y,y,2019_Jul_11_1103,2AFC_task,59.9756258317789,
stimuli/hdri_light_08_a.png,stimuli/hdri_light_08_b.png,6,4,244,17,"[0, 1]",right,1,13,23,f,y,y,2019_Jul_11_1103,2AFC_task,59.9756258317789,
stimuli/hdri_light_06_a.png,stimuli/hdri_light_06_b.png,6,5,245,15,"[1, 0]",right,0,13,23,f,y,y,2019_Jul_11_1103,2AFC_task,59.9756258317789,
stimuli/lamp_bump_02_a.png,stimuli/lamp_bump_02_b.png,6,6,246,21,"[0, 1]",left,0,13,23,f,y,y,2019_Jul_11_1103,2AFC_task,59.9756258317789,
stimuli/lamp_light_03_a.png,stimuli/lamp_light_03_b.png,6,7,247,32,"[1, 0]",right,0,13,23,f,y,y,2019_Jul_11_1103,2AFC_task,59.9756258317789,
stimuli/hdri_bump_06_a.png,stimuli/hdri_bump_06_b.png,6,8,248,5,"[0, 1]",right,1,13,23,f,y,y,2019_Jul_11_1103,2AFC_task,59.9756258317789,
stimuli/lamp_light_07_a.png,stimuli/lamp_light_07_b.png,6,9,249,36,"[1, 0]",left,1,13,23,f,y,y,2019_Jul_11_1103,2AFC_task,59.9756258317789,
stimuli/lamp_bump_05_a.png,stimuli/lamp_bump_05_b.png,6,10,250,24,"[0, 1]",right,1,13,23,f,y,y,2019_Jul_11_1103,2AFC_task,59.9756258317789,
stimuli/hdri_bump_07_a.png,stimuli/hdri_bump_07_b.png,6,11,251,6,"[0, 1]",right,1,13,23,f,y,y,2019_Jul_11_1103,2AFC_task,59.9756258317789,
stimuli/hdri_light_03_a.png,stimuli/hdri_light_03_b.png,6,12,252,12,"[0, 1]",right,1,13,23,f,y,y,2019_Jul_11_1103,2AFC_task,59.9756258317789,
stimuli/hdri_light_04_a.png,stimuli/hdri_light_04_b.png,6,13,253,13,"[0, 1]",left,0,13,23,f,y,y,2019_Jul_11_1103,2AFC_task,59.9756258317789,
stimuli/lamp_light_06_a.png,stimuli/lamp_light_06_b.png,6,14,254,35,"[1, 0]",left,1,13,23,f,y,y,2019_Jul_11_1103,2AFC_task,59.9756258317789,
stimuli/lamp_light_10_a.png,stimuli/lamp_light_10_b.png,6,15,255,39,"[1, 0]",left,1,13,23,f,y,y,2019_Jul_11_1103,2AFC_task,59.9756258317789,
stimuli/lamp_bump_01_a.png,stimuli/lamp_bump_01_b.png,6,16,256,20,"[0, 1]",left,0,13,23,f,y,y,2019_Jul_11_1103,2AFC_task,59.9756258317789,
stimuli/lamp_bump_06_a.png,stimuli/lamp_bump_06_b.png,6,17,257,25,"[1, 0]",right,0,13,23,f,y,y,2019_Jul_11_1103,2AFC_task,59.9756258317789,
stimuli/hdri_bump_04_a.png,stimuli/hdri_bump_04_b.png,6,18,258,3,"[1, 0]",left,1,13,23,f,y,y,2019_Jul_11_1103,2AFC_task,59.9756258317789,
stimuli/hdri_bump_02_a.png,stimuli/hdri_bump_02_b.png,6,19,259,1,"[1, 0]",left,1,13,23,f,y,y,2019_Jul_11_1103,2AFC_task,59.9756258317789,
stimuli/hdri_light_10_a.png,stimuli/hdri_light_10_b.png,6,20,260,19,"[1, 0]",left,1,13,23,f,y,y,2019_Jul_11_1103,2AFC_task,59.9756258317789,
stimuli/lamp_light_09_a.png,stimuli/lamp_light_09_b.png,6,21,261,38,"[1, 0]",left,1,13,23,f,y,y,2019_Jul_11_1103,2AFC_task,59.9756258317789,
stimuli/hdri_bump_10_a.png,stimuli/hdri_bump_10_b.png,6,22,262,9,"[1, 0]",left,1,13,23,f,y,y,2019_Jul_11_1103,2AFC_task,59.9756258317789,
stimuli/lamp_bump_09_a.png,stimuli/lamp_bump_09_b.png,6,23,263,28,"[0, 1]",left,0,13,23,f,y,y,2019_Jul_11_1103,2AFC_task,59.9756258317789,
stimuli/hdri_bump_03_a.png,stimuli/hdri_bump_03_b.png,6,24,264,2,"[1, 0]",left,1,13,23,f,y,y,2019_Jul_11_1103,2AFC_task,59.9756258317789,
stimuli/lamp_light_08_a.png,stimuli/lamp_light_08_b.png,6,25,265,37,"[1, 0]",left,1,13,23,f,y,y,2019_Jul_11_1103,2AFC_task,59.9756258317789,
stimuli/hdri_light_09_a.png,stimuli/hdri_light_09_b.png,6,26,266,18,"[0, 1]",left,0,13,23,f,y,y,2019_Jul_11_1103,2AFC_task,59.9756258317789,
stimuli/hdri_bump_09_a.png,stimuli/hdri_bump_09_b.png,6,27,267,8,"[1, 0]",left,1,13,23,f,y,y,2019_Jul_11_1103,2AFC_task,59.9756258317789,
stimuli/lamp_light_05_a.png,stimuli/lamp_light_05_b.png,6,28,268,34,"[0, 1]",right,1,13,23,f,y,y,2019_Jul_11_1103,2AFC_task,59.9756258317789,
stimuli/lamp_light_04_a.png,stimuli/lamp_light_04_b.png,6,29,269,33,"[1, 0]",left,1,13,23,f,y,y,2019_Jul_11_1103,2AFC_task,59.9756258317789,
stimuli/lamp_bump_04_a.png,stimuli/lamp_bump_04_b.png,6,30,270,23,"[0, 1]",left,0,13,23,f,y,y,2019_Jul_11_1103,2AFC_task,59.9756258317789,
stimuli/lamp_light_02_a.png,stimuli/lamp_light_02_b.png,6,31,271,31,"[1, 0]",left,1,13,23,f,y,y,2019_Jul_11_1103,2AFC_task,59.9756258317789,
stimuli/hdri_bump_01_a.png,stimuli/hdri_bump_01_b.png,6,32,272,0,"[1, 0]",left,1,13,23,f,y,y,2019_Jul_11_1103,2AFC_task,59.9756258317789,
stimuli/lamp_bump_10_a.png,stimuli/lamp_bump_10_b.png,6,33,273,29,"[0, 1]",right,1,13,23,f,y,y,2019_Jul_11_1103,2AFC_task,59.9756258317789,
stimuli/lamp_bump_03_a.png,stimuli/lamp_bump_03_b.png,6,34,274,22,"[1, 0]",left,1,13,23,f,y,y,2019_Jul_11_1103,2AFC_task,59.9756258317789,
stimuli/lamp_bump_08_a.png,stimuli/lamp_bump_08_b.png,6,35,275,27,"[0, 1]",left,0,13,23,f,y,y,2019_Jul_11_1103,2AFC_task,59.9756258317789,
stimuli/lamp_bump_07_a.png,stimuli/lamp_bump_07_b.png,6,36,276,26,"[1, 0]",right,0,13,23,f,y,y,2019_Jul_11_1103,2AFC_task,59.9756258317789,
stimuli/hdri_light_05_a.png,stimuli/hdri_light_05_b.png,6,37,277,14,"[0, 1]",right,1,13,23,f,y,y,2019_Jul_11_1103,2AFC_task,59.9756258317789,
stimuli/hdri_light_02_a.png,stimuli/hdri_light_02_b.png,6,38,278,11,"[1, 0]",right,0,13,23,f,y,y,2019_Jul_11_1103,2AFC_task,59.9756258317789,
stimuli/hdri_light_01_a.png,stimuli/hdri_light_01_b.png,6,39,279,10,"[0, 1]",left,0,13,23,f,y,y,2019_Jul_11_1103,2AFC_task,59.9756258317789,
stimuli/lamp_bump_09_a.png,stimuli/lamp_bump_09_b.png,7,0,280,28,"[1, 0]",left,1,13,23,f,y,y,2019_Jul_11_1103,2AFC_task,59.9756258317789,
stimuli/lamp_bump_07_a.png,stimuli/lamp_bump_07_b.png,7,1,281,26,"[0, 1]",left,0,13,23,f,y,y,2019_Jul_11_1103,2AFC_task,59.9756258317789,
stimuli/lamp_light_05_a.png,stimuli/lamp_light_05_b.png,7,2,282,34,"[0, 1]",right,1,13,23,f,y,y,2019_Jul_11_1103,2AFC_task,59.9756258317789,
stimuli/lamp_bump_05_a.png,stimuli/lamp_bump_05_b.png,7,3,283,24,"[0, 1]",right,1,13,23,f,y,y,2019_Jul_11_1103,2AFC_task,59.9756258317789,
stimuli/lamp_bump_06_a.png,stimuli/lamp_bump_06_b.png,7,4,284,25,"[1, 0]",left,1,13,23,f,y,y,2019_Jul_11_1103,2AFC_task,59.9756258317789,
stimuli/hdri_bump_06_a.png,stimuli/hdri_bump_06_b.png,7,5,285,5,"[0, 1]",right,1,13,23,f,y,y,2019_Jul_11_1103,2AFC_task,59.9756258317789,
stimuli/lamp_bump_04_a.png,stimuli/lamp_bump_04_b.png,7,6,286,23,"[1, 0]",right,0,13,23,f,y,y,2019_Jul_11_1103,2AFC_task,59.9756258317789,
stimuli/lamp_light_03_a.png,stimuli/lamp_light_03_b.png,7,7,287,32,"[1, 0]",left,1,13,23,f,y,y,2019_Jul_11_1103,2AFC_task,59.9756258317789,
stimuli/hdri_bump_08_a.png,stimuli/hdri_bump_08_b.png,7,8,288,7,"[0, 1]",right,1,13,23,f,y,y,2019_Jul_11_1103,2AFC_task,59.9756258317789,
stimuli/hdri_bump_01_a.png,stimuli/hdri_bump_01_b.png,7,9,289,0,"[0, 1]",right,1,13,23,f,y,y,2019_Jul_11_1103,2AFC_task,59.9756258317789,
stimuli/hdri_light_09_a.png,stimuli/hdri_light_09_b.png,7,10,290,18,"[1, 0]",right,0,13,23,f,y,y,2019_Jul_11_1103,2AFC_task,59.9756258317789,
stimuli/hdri_bump_04_a.png,stimuli/hdri_bump_04_b.png,7,11,291,3,"[1, 0]",left,1,13,23,f,y,y,2019_Jul_11_1103,2AFC_task,59.9756258317789,
stimuli/lamp_light_08_a.png,stimuli/lamp_light_08_b.png,7,12,292,37,"[1, 0]",left,1,13,23,f,y,y,2019_Jul_11_1103,2AFC_task,59.9756258317789,
stimuli/hdri_bump_02_a.png,stimuli/hdri_bump_02_b.png,7,13,293,1,"[0, 1]",right,1,13,23,f,y,y,2019_Jul_11_1103,2AFC_task,59.9756258317789,
stimuli/lamp_light_07_a.png,stimuli/lamp_light_07_b.png,7,14,294,36,"[1, 0]",left,1,13,23,f,y,y,2019_Jul_11_1103,2AFC_task,59.9756258317789,
stimuli/lamp_bump_02_a.png,stimuli/lamp_bump_02_b.png,7,15,295,21,"[0, 1]",left,0,13,23,f,y,y,2019_Jul_11_1103,2AFC_task,59.9756258317789,
stimuli/hdri_light_08_a.png,stimuli/hdri_light_08_b.png,7,16,296,17,"[0, 1]",right,1,13,23,f,y,y,2019_Jul_11_1103,2AFC_task,59.9756258317789,
stimuli/hdri_bump_09_a.png,stimuli/hdri_bump_09_b.png,7,17,297,8,"[0, 1]",right,1,13,23,f,y,y,2019_Jul_11_1103,2AFC_task,59.9756258317789,
stimuli/hdri_light_02_a.png,stimuli/hdri_light_02_b.png,7,18,298,11,"[0, 1]",left,0,13,23,f,y,y,2019_Jul_11_1103,2AFC_task,59.9756258317789,
stimuli/hdri_light_06_a.png,stimuli/hdri_light_06_b.png,7,19,299,15,"[0, 1]",left,0,13,23,f,y,y,2019_Jul_11_1103,2AFC_task,59.9756258317789,
stimuli/lamp_light_09_a.png,stimuli/lamp_light_09_b.png,7,20,300,38,"[0, 1]",right,1,13,23,f,y,y,2019_Jul_11_1103,2AFC_task,59.9756258317789,
stimuli/lamp_light_01_a.png,stimuli/lamp_light_01_b.png,7,21,301,30,"[0, 1]",right,1,13,23,f,y,y,2019_Jul_11_1103,2AFC_task,59.9756258317789,
stimuli/hdri_bump_05_a.png,stimuli/hdri_bump_05_b.png,7,22,302,4,"[0, 1]",right,1,13,23,f,y,y,2019_Jul_11_1103,2AFC_task,59.9756258317789,
stimuli/hdri_light_05_a.png,stimuli/hdri_light_05_b.png,7,23,303,14,"[1, 0]",right,0,13,23,f,y,y,2019_Jul_11_1103,2AFC_task,59.9756258317789,
stimuli/lamp_bump_10_a.png,stimuli/lamp_bump_10_b.png,7,24,304,29,"[0, 1]",right,1,13,23,f,y,y,2019_Jul_11_1103,2AFC_task,59.9756258317789,
stimuli/hdri_light_01_a.png,stimuli/hdri_light_01_b.png,7,25,305,10,"[0, 1]",left,0,13,23,f,y,y,2019_Jul_11_1103,2AFC_task,59.9756258317789,
stimuli/hdri_bump_10_a.png,stimuli/hdri_bump_10_b.png,7,26,306,9,"[1, 0]",left,1,13,23,f,y,y,2019_Jul_11_1103,2AFC_task,59.9756258317789,
stimuli/hdri_light_07_a.png,stimuli/hdri_light_07_b.png,7,27,307,16,"[0, 1]",right,1,13,23,f,y,y,2019_Jul_11_1103,2AFC_task,59.9756258317789,
stimuli/lamp_light_04_a.png,stimuli/lamp_light_04_b.png,7,28,308,33,"[1, 0]",left,1,13,23,f,y,y,2019_Jul_11_1103,2AFC_task,59.9756258317789,
stimuli/hdri_light_03_a.png,stimuli/hdri_light_03_b.png,7,29,309,12,"[1, 0]",right,0,13,23,f,y,y,2019_Jul_11_1103,2AFC_task,59.9756258317789,
stimuli/lamp_bump_01_a.png,stimuli/lamp_bump_01_b.png,7,30,310,20,"[1, 0]",right,0,13,23,f,y,y,2019_Jul_11_1103,2AFC_task,59.9756258317789,
stimuli/lamp_light_02_a.png,stimuli/lamp_light_02_b.png,7,31,311,31,"[1, 0]",left,1,13,23,f,y,y,2019_Jul_11_1103,2AFC_task,59.9756258317789,
stimuli/lamp_bump_03_a.png,stimuli/lamp_bump_03_b.png,7,32,312,22,"[1, 0]",left,1,13,23,f,y,y,2019_Jul_11_1103,2AFC_task,59.9756258317789,
stimuli/hdri_light_04_a.png,stimuli/hdri_light_04_b.png,7,33,313,13,"[0, 1]",left,0,13,23,f,y,y,2019_Jul_11_1103,2AFC_task,59.9756258317789,
stimuli/lamp_bump_08_a.png,stimuli/lamp_bump_08_b.png,7,34,314,27,"[1, 0]",right,0,13,23,f,y,y,2019_Jul_11_1103,2AFC_task,59.9756258317789,
stimuli/hdri_bump_03_a.png,stimuli/hdri_bump_03_b.png,7,35,315,2,"[0, 1]",left,0,13,23,f,y,y,2019_Jul_11_1103,2AFC_task,59.9756258317789,
stimuli/hdri_bump_07_a.png,stimuli/hdri_bump_07_b.png,7,36,316,6,"[1, 0]",left,1,13,23,f,y,y,2019_Jul_11_1103,2AFC_task,59.9756258317789,
stimuli/lamp_light_06_a.png,stimuli/lamp_light_06_b.png,7,37,317,35,"[1, 0]",left,1,13,23,f,y,y,2019_Jul_11_1103,2AFC_task,59.9756258317789,
stimuli/hdri_light_10_a.png,stimuli/hdri_light_10_b.png,7,38,318,19,"[1, 0]",left,1,13,23,f,y,y,2019_Jul_11_1103,2AFC_task,59.9756258317789,
stimuli/lamp_light_10_a.png,stimuli/lamp_light_10_b.png,7,39,319,39,"[1, 0]",left,1,13,23,f,y,y,2019_Jul_11_1103,2AFC_task,59.9756258317789,
