stimOne,stimTwo,trials_1.thisRepN,trials_1.thisTrialN,trials_1.thisN,trials_1.thisIndex,presentation_positions,resp_key,corresponding_image,participant ID (two digits, e.g. 01),age,gender (m/f/-),normal or corrected-to-normal vision (y/n),normal colour vision (y/n),date,expName,frameRate,
stimuli/lamp_light_03_a.png,stimuli/lamp_light_03_b.png,0,0,0,32,"[0, 1]",right,1,15,21,f,y,y,2019_Jul_12_1050,2AFC_task,59.95052882291963,
stimuli/lamp_bump_09_a.png,stimuli/lamp_bump_09_b.png,0,1,1,28,"[1, 0]",right,0,15,21,f,y,y,2019_Jul_12_1050,2AFC_task,59.95052882291963,
stimuli/lamp_bump_04_a.png,stimuli/lamp_bump_04_b.png,0,2,2,23,"[0, 1]",right,1,15,21,f,y,y,2019_Jul_12_1050,2AFC_task,59.95052882291963,
stimuli/hdri_bump_09_a.png,stimuli/hdri_bump_09_b.png,0,3,3,8,"[1, 0]",right,0,15,21,f,y,y,2019_Jul_12_1050,2AFC_task,59.95052882291963,
stimuli/lamp_light_07_a.png,stimuli/lamp_light_07_b.png,0,4,4,36,"[1, 0]",left,1,15,21,f,y,y,2019_Jul_12_1050,2AFC_task,59.95052882291963,
stimuli/hdri_bump_06_a.png,stimuli/hdri_bump_06_b.png,0,5,5,5,"[1, 0]",left,1,15,21,f,y,y,2019_Jul_12_1050,2AFC_task,59.95052882291963,
stimuli/lamp_bump_05_a.png,stimuli/lamp_bump_05_b.png,0,6,6,24,"[0, 1]",right,1,15,21,f,y,y,2019_Jul_12_1050,2AFC_task,59.95052882291963,
stimuli/lamp_bump_02_a.png,stimuli/lamp_bump_02_b.png,0,7,7,21,"[1, 0]",right,0,15,21,f,y,y,2019_Jul_12_1050,2AFC_task,59.95052882291963,
stimuli/lamp_bump_10_a.png,stimuli/lamp_bump_10_b.png,0,8,8,29,"[0, 1]",right,1,15,21,f,y,y,2019_Jul_12_1050,2AFC_task,59.95052882291963,
stimuli/hdri_light_10_a.png,stimuli/hdri_light_10_b.png,0,9,9,19,"[1, 0]",left,1,15,21,f,y,y,2019_Jul_12_1050,2AFC_task,59.95052882291963,
stimuli/lamp_bump_01_a.png,stimuli/lamp_bump_01_b.png,0,10,10,20,"[1, 0]",left,1,15,21,f,y,y,2019_Jul_12_1050,2AFC_task,59.95052882291963,
stimuli/hdri_bump_05_a.png,stimuli/hdri_bump_05_b.png,0,11,11,4,"[0, 1]",right,1,15,21,f,y,y,2019_Jul_12_1050,2AFC_task,59.95052882291963,
stimuli/lamp_light_08_a.png,stimuli/lamp_light_08_b.png,0,12,12,37,"[1, 0]",left,1,15,21,f,y,y,2019_Jul_12_1050,2AFC_task,59.95052882291963,
stimuli/hdri_bump_01_a.png,stimuli/hdri_bump_01_b.png,0,13,13,0,"[1, 0]",left,1,15,21,f,y,y,2019_Jul_12_1050,2AFC_task,59.95052882291963,
stimuli/lamp_light_09_a.png,stimuli/lamp_light_09_b.png,0,14,14,38,"[1, 0]",left,1,15,21,f,y,y,2019_Jul_12_1050,2AFC_task,59.95052882291963,
stimuli/hdri_light_09_a.png,stimuli/hdri_light_09_b.png,0,15,15,18,"[0, 1]",left,0,15,21,f,y,y,2019_Jul_12_1050,2AFC_task,59.95052882291963,
stimuli/lamp_bump_07_a.png,stimuli/lamp_bump_07_b.png,0,16,16,26,"[0, 1]",right,1,15,21,f,y,y,2019_Jul_12_1050,2AFC_task,59.95052882291963,
stimuli/lamp_bump_08_a.png,stimuli/lamp_bump_08_b.png,0,17,17,27,"[0, 1]",left,0,15,21,f,y,y,2019_Jul_12_1050,2AFC_task,59.95052882291963,
stimuli/hdri_bump_08_a.png,stimuli/hdri_bump_08_b.png,0,18,18,7,"[1, 0]",left,1,15,21,f,y,y,2019_Jul_12_1050,2AFC_task,59.95052882291963,
stimuli/hdri_light_03_a.png,stimuli/hdri_light_03_b.png,0,19,19,12,"[1, 0]",right,0,15,21,f,y,y,2019_Jul_12_1050,2AFC_task,59.95052882291963,
stimuli/hdri_light_02_a.png,stimuli/hdri_light_02_b.png,0,20,20,11,"[0, 1]",left,0,15,21,f,y,y,2019_Jul_12_1050,2AFC_task,59.95052882291963,
stimuli/lamp_light_04_a.png,stimuli/lamp_light_04_b.png,0,21,21,33,"[1, 0]",left,1,15,21,f,y,y,2019_Jul_12_1050,2AFC_task,59.95052882291963,
stimuli/lamp_bump_06_a.png,stimuli/lamp_bump_06_b.png,0,22,22,25,"[0, 1]",left,0,15,21,f,y,y,2019_Jul_12_1050,2AFC_task,59.95052882291963,
stimuli/lamp_light_05_a.png,stimuli/lamp_light_05_b.png,0,23,23,34,"[0, 1]",right,1,15,21,f,y,y,2019_Jul_12_1050,2AFC_task,59.95052882291963,
stimuli/lamp_light_02_a.png,stimuli/lamp_light_02_b.png,0,24,24,31,"[0, 1]",right,1,15,21,f,y,y,2019_Jul_12_1050,2AFC_task,59.95052882291963,
stimuli/hdri_light_04_a.png,stimuli/hdri_light_04_b.png,0,25,25,13,"[1, 0]",right,0,15,21,f,y,y,2019_Jul_12_1050,2AFC_task,59.95052882291963,
stimuli/lamp_light_06_a.png,stimuli/lamp_light_06_b.png,0,26,26,35,"[1, 0]",left,1,15,21,f,y,y,2019_Jul_12_1050,2AFC_task,59.95052882291963,
stimuli/hdri_light_07_a.png,stimuli/hdri_light_07_b.png,0,27,27,16,"[1, 0]",left,1,15,21,f,y,y,2019_Jul_12_1050,2AFC_task,59.95052882291963,
stimuli/hdri_bump_03_a.png,stimuli/hdri_bump_03_b.png,0,28,28,2,"[1, 0]",left,1,15,21,f,y,y,2019_Jul_12_1050,2AFC_task,59.95052882291963,
stimuli/hdri_light_05_a.png,stimuli/hdri_light_05_b.png,0,29,29,14,"[0, 1]",right,1,15,21,f,y,y,2019_Jul_12_1050,2AFC_task,59.95052882291963,
stimuli/hdri_light_06_a.png,stimuli/hdri_light_06_b.png,0,30,30,15,"[1, 0]",right,0,15,21,f,y,y,2019_Jul_12_1050,2AFC_task,59.95052882291963,
stimuli/lamp_light_10_a.png,stimuli/lamp_light_10_b.png,0,31,31,39,"[0, 1]",right,1,15,21,f,y,y,2019_Jul_12_1050,2AFC_task,59.95052882291963,
stimuli/hdri_bump_04_a.png,stimuli/hdri_bump_04_b.png,0,32,32,3,"[1, 0]",left,1,15,21,f,y,y,2019_Jul_12_1050,2AFC_task,59.95052882291963,
stimuli/hdri_light_01_a.png,stimuli/hdri_light_01_b.png,0,33,33,10,"[0, 1]",left,0,15,21,f,y,y,2019_Jul_12_1050,2AFC_task,59.95052882291963,
stimuli/lamp_light_01_a.png,stimuli/lamp_light_01_b.png,0,34,34,30,"[0, 1]",right,1,15,21,f,y,y,2019_Jul_12_1050,2AFC_task,59.95052882291963,
stimuli/hdri_light_08_a.png,stimuli/hdri_light_08_b.png,0,35,35,17,"[1, 0]",left,1,15,21,f,y,y,2019_Jul_12_1050,2AFC_task,59.95052882291963,
stimuli/hdri_bump_02_a.png,stimuli/hdri_bump_02_b.png,0,36,36,1,"[0, 1]",right,1,15,21,f,y,y,2019_Jul_12_1050,2AFC_task,59.95052882291963,
stimuli/hdri_bump_07_a.png,stimuli/hdri_bump_07_b.png,0,37,37,6,"[0, 1]",right,1,15,21,f,y,y,2019_Jul_12_1050,2AFC_task,59.95052882291963,
stimuli/hdri_bump_10_a.png,stimuli/hdri_bump_10_b.png,0,38,38,9,"[0, 1]",right,1,15,21,f,y,y,2019_Jul_12_1050,2AFC_task,59.95052882291963,
stimuli/lamp_bump_03_a.png,stimuli/lamp_bump_03_b.png,0,39,39,22,"[0, 1]",right,1,15,21,f,y,y,2019_Jul_12_1050,2AFC_task,59.95052882291963,
stimuli/lamp_bump_01_a.png,stimuli/lamp_bump_01_b.png,1,0,40,20,"[0, 1]",right,1,15,21,f,y,y,2019_Jul_12_1050,2AFC_task,59.95052882291963,
stimuli/hdri_light_05_a.png,stimuli/hdri_light_05_b.png,1,1,41,14,"[1, 0]",right,0,15,21,f,y,y,2019_Jul_12_1050,2AFC_task,59.95052882291963,
stimuli/lamp_bump_03_a.png,stimuli/lamp_bump_03_b.png,1,2,42,22,"[1, 0]",left,1,15,21,f,y,y,2019_Jul_12_1050,2AFC_task,59.95052882291963,
stimuli/lamp_bump_06_a.png,stimuli/lamp_bump_06_b.png,1,3,43,25,"[1, 0]",right,0,15,21,f,y,y,2019_Jul_12_1050,2AFC_task,59.95052882291963,
stimuli/lamp_bump_02_a.png,stimuli/lamp_bump_02_b.png,1,4,44,21,"[0, 1]",left,0,15,21,f,y,y,2019_Jul_12_1050,2AFC_task,59.95052882291963,
stimuli/hdri_bump_04_a.png,stimuli/hdri_bump_04_b.png,1,5,45,3,"[0, 1]",right,1,15,21,f,y,y,2019_Jul_12_1050,2AFC_task,59.95052882291963,
stimuli/hdri_light_03_a.png,stimuli/hdri_light_03_b.png,1,6,46,12,"[1, 0]",right,0,15,21,f,y,y,2019_Jul_12_1050,2AFC_task,59.95052882291963,
stimuli/hdri_light_08_a.png,stimuli/hdri_light_08_b.png,1,7,47,17,"[1, 0]",left,1,15,21,f,y,y,2019_Jul_12_1050,2AFC_task,59.95052882291963,
stimuli/lamp_bump_09_a.png,stimuli/lamp_bump_09_b.png,1,8,48,28,"[0, 1]",left,0,15,21,f,y,y,2019_Jul_12_1050,2AFC_task,59.95052882291963,
stimuli/lamp_light_06_a.png,stimuli/lamp_light_06_b.png,1,9,49,35,"[0, 1]",right,1,15,21,f,y,y,2019_Jul_12_1050,2AFC_task,59.95052882291963,
stimuli/hdri_light_06_a.png,stimuli/hdri_light_06_b.png,1,10,50,15,"[1, 0]",right,0,15,21,f,y,y,2019_Jul_12_1050,2AFC_task,59.95052882291963,
stimuli/hdri_bump_07_a.png,stimuli/hdri_bump_07_b.png,1,11,51,6,"[0, 1]",left,0,15,21,f,y,y,2019_Jul_12_1050,2AFC_task,59.95052882291963,
stimuli/lamp_light_01_a.png,stimuli/lamp_light_01_b.png,1,12,52,30,"[0, 1]",right,1,15,21,f,y,y,2019_Jul_12_1050,2AFC_task,59.95052882291963,
stimuli/lamp_light_03_a.png,stimuli/lamp_light_03_b.png,1,13,53,32,"[1, 0]",left,1,15,21,f,y,y,2019_Jul_12_1050,2AFC_task,59.95052882291963,
stimuli/lamp_bump_10_a.png,stimuli/lamp_bump_10_b.png,1,14,54,29,"[0, 1]",right,1,15,21,f,y,y,2019_Jul_12_1050,2AFC_task,59.95052882291963,
stimuli/lamp_light_04_a.png,stimuli/lamp_light_04_b.png,1,15,55,33,"[0, 1]",right,1,15,21,f,y,y,2019_Jul_12_1050,2AFC_task,59.95052882291963,
stimuli/lamp_light_10_a.png,stimuli/lamp_light_10_b.png,1,16,56,39,"[0, 1]",right,1,15,21,f,y,y,2019_Jul_12_1050,2AFC_task,59.95052882291963,
stimuli/hdri_bump_09_a.png,stimuli/hdri_bump_09_b.png,1,17,57,8,"[1, 0]",left,1,15,21,f,y,y,2019_Jul_12_1050,2AFC_task,59.95052882291963,
stimuli/lamp_light_05_a.png,stimuli/lamp_light_05_b.png,1,18,58,34,"[1, 0]",left,1,15,21,f,y,y,2019_Jul_12_1050,2AFC_task,59.95052882291963,
stimuli/hdri_bump_08_a.png,stimuli/hdri_bump_08_b.png,1,19,59,7,"[1, 0]",left,1,15,21,f,y,y,2019_Jul_12_1050,2AFC_task,59.95052882291963,
stimuli/lamp_bump_07_a.png,stimuli/lamp_bump_07_b.png,1,20,60,26,"[1, 0]",right,0,15,21,f,y,y,2019_Jul_12_1050,2AFC_task,59.95052882291963,
stimuli/lamp_light_09_a.png,stimuli/lamp_light_09_b.png,1,21,61,38,"[0, 1]",right,1,15,21,f,y,y,2019_Jul_12_1050,2AFC_task,59.95052882291963,
stimuli/hdri_light_04_a.png,stimuli/hdri_light_04_b.png,1,22,62,13,"[0, 1]",left,0,15,21,f,y,y,2019_Jul_12_1050,2AFC_task,59.95052882291963,
stimuli/lamp_light_08_a.png,stimuli/lamp_light_08_b.png,1,23,63,37,"[1, 0]",left,1,15,21,f,y,y,2019_Jul_12_1050,2AFC_task,59.95052882291963,
stimuli/hdri_light_10_a.png,stimuli/hdri_light_10_b.png,1,24,64,19,"[0, 1]",right,1,15,21,f,y,y,2019_Jul_12_1050,2AFC_task,59.95052882291963,
stimuli/lamp_bump_05_a.png,stimuli/lamp_bump_05_b.png,1,25,65,24,"[0, 1]",right,1,15,21,f,y,y,2019_Jul_12_1050,2AFC_task,59.95052882291963,
stimuli/hdri_bump_10_a.png,stimuli/hdri_bump_10_b.png,1,26,66,9,"[0, 1]",right,1,15,21,f,y,y,2019_Jul_12_1050,2AFC_task,59.95052882291963,
stimuli/hdri_bump_02_a.png,stimuli/hdri_bump_02_b.png,1,27,67,1,"[0, 1]",right,1,15,21,f,y,y,2019_Jul_12_1050,2AFC_task,59.95052882291963,
stimuli/lamp_bump_08_a.png,stimuli/lamp_bump_08_b.png,1,28,68,27,"[1, 0]",right,0,15,21,f,y,y,2019_Jul_12_1050,2AFC_task,59.95052882291963,
stimuli/hdri_bump_01_a.png,stimuli/hdri_bump_01_b.png,1,29,69,0,"[0, 1]",right,1,15,21,f,y,y,2019_Jul_12_1050,2AFC_task,59.95052882291963,
stimuli/hdri_bump_06_a.png,stimuli/hdri_bump_06_b.png,1,30,70,5,"[1, 0]",left,1,15,21,f,y,y,2019_Jul_12_1050,2AFC_task,59.95052882291963,
stimuli/hdri_light_07_a.png,stimuli/hdri_light_07_b.png,1,31,71,16,"[1, 0]",left,1,15,21,f,y,y,2019_Jul_12_1050,2AFC_task,59.95052882291963,
stimuli/lamp_light_02_a.png,stimuli/lamp_light_02_b.png,1,32,72,31,"[0, 1]",right,1,15,21,f,y,y,2019_Jul_12_1050,2AFC_task,59.95052882291963,
stimuli/hdri_light_09_a.png,stimuli/hdri_light_09_b.png,1,33,73,18,"[0, 1]",left,0,15,21,f,y,y,2019_Jul_12_1050,2AFC_task,59.95052882291963,
stimuli/hdri_bump_03_a.png,stimuli/hdri_bump_03_b.png,1,34,74,2,"[1, 0]",left,1,15,21,f,y,y,2019_Jul_12_1050,2AFC_task,59.95052882291963,
stimuli/hdri_bump_05_a.png,stimuli/hdri_bump_05_b.png,1,35,75,4,"[1, 0]",left,1,15,21,f,y,y,2019_Jul_12_1050,2AFC_task,59.95052882291963,
stimuli/hdri_light_01_a.png,stimuli/hdri_light_01_b.png,1,36,76,10,"[0, 1]",left,0,15,21,f,y,y,2019_Jul_12_1050,2AFC_task,59.95052882291963,
stimuli/lamp_light_07_a.png,stimuli/lamp_light_07_b.png,1,37,77,36,"[0, 1]",right,1,15,21,f,y,y,2019_Jul_12_1050,2AFC_task,59.95052882291963,
stimuli/hdri_light_02_a.png,stimuli/hdri_light_02_b.png,1,38,78,11,"[0, 1]",left,0,15,21,f,y,y,2019_Jul_12_1050,2AFC_task,59.95052882291963,
stimuli/lamp_bump_04_a.png,stimuli/lamp_bump_04_b.png,1,39,79,23,"[0, 1]",right,1,15,21,f,y,y,2019_Jul_12_1050,2AFC_task,59.95052882291963,
stimuli/lamp_bump_01_a.png,stimuli/lamp_bump_01_b.png,2,0,80,20,"[1, 0]",right,0,15,21,f,y,y,2019_Jul_12_1050,2AFC_task,59.95052882291963,
stimuli/hdri_light_04_a.png,stimuli/hdri_light_04_b.png,2,1,81,13,"[0, 1]",left,0,15,21,f,y,y,2019_Jul_12_1050,2AFC_task,59.95052882291963,
stimuli/lamp_bump_06_a.png,stimuli/lamp_bump_06_b.png,2,2,82,25,"[0, 1]",left,0,15,21,f,y,y,2019_Jul_12_1050,2AFC_task,59.95052882291963,
stimuli/lamp_bump_09_a.png,stimuli/lamp_bump_09_b.png,2,3,83,28,"[0, 1]",left,0,15,21,f,y,y,2019_Jul_12_1050,2AFC_task,59.95052882291963,
stimuli/hdri_bump_04_a.png,stimuli/hdri_bump_04_b.png,2,4,84,3,"[0, 1]",right,1,15,21,f,y,y,2019_Jul_12_1050,2AFC_task,59.95052882291963,
stimuli/lamp_light_02_a.png,stimuli/lamp_light_02_b.png,2,5,85,31,"[0, 1]",right,1,15,21,f,y,y,2019_Jul_12_1050,2AFC_task,59.95052882291963,
stimuli/lamp_bump_08_a.png,stimuli/lamp_bump_08_b.png,2,6,86,27,"[0, 1]",right,1,15,21,f,y,y,2019_Jul_12_1050,2AFC_task,59.95052882291963,
stimuli/hdri_light_03_a.png,stimuli/hdri_light_03_b.png,2,7,87,12,"[0, 1]",left,0,15,21,f,y,y,2019_Jul_12_1050,2AFC_task,59.95052882291963,
stimuli/lamp_bump_04_a.png,stimuli/lamp_bump_04_b.png,2,8,88,23,"[1, 0]",left,1,15,21,f,y,y,2019_Jul_12_1050,2AFC_task,59.95052882291963,
stimuli/hdri_bump_08_a.png,stimuli/hdri_bump_08_b.png,2,9,89,7,"[0, 1]",right,1,15,21,f,y,y,2019_Jul_12_1050,2AFC_task,59.95052882291963,
stimuli/hdri_light_07_a.png,stimuli/hdri_light_07_b.png,2,10,90,16,"[1, 0]",left,1,15,21,f,y,y,2019_Jul_12_1050,2AFC_task,59.95052882291963,
stimuli/hdri_bump_02_a.png,stimuli/hdri_bump_02_b.png,2,11,91,1,"[0, 1]",right,1,15,21,f,y,y,2019_Jul_12_1050,2AFC_task,59.95052882291963,
stimuli/lamp_bump_05_a.png,stimuli/lamp_bump_05_b.png,2,12,92,24,"[1, 0]",left,1,15,21,f,y,y,2019_Jul_12_1050,2AFC_task,59.95052882291963,
stimuli/lamp_bump_02_a.png,stimuli/lamp_bump_02_b.png,2,13,93,21,"[0, 1]",right,1,15,21,f,y,y,2019_Jul_12_1050,2AFC_task,59.95052882291963,
stimuli/hdri_light_08_a.png,stimuli/hdri_light_08_b.png,2,14,94,17,"[1, 0]",left,1,15,21,f,y,y,2019_Jul_12_1050,2AFC_task,59.95052882291963,
stimuli/hdri_light_02_a.png,stimuli/hdri_light_02_b.png,2,15,95,11,"[0, 1]",left,0,15,21,f,y,y,2019_Jul_12_1050,2AFC_task,59.95052882291963,
stimuli/hdri_bump_01_a.png,stimuli/hdri_bump_01_b.png,2,16,96,0,"[1, 0]",left,1,15,21,f,y,y,2019_Jul_12_1050,2AFC_task,59.95052882291963,
stimuli/lamp_light_10_a.png,stimuli/lamp_light_10_b.png,2,17,97,39,"[0, 1]",right,1,15,21,f,y,y,2019_Jul_12_1050,2AFC_task,59.95052882291963,
stimuli/hdri_bump_05_a.png,stimuli/hdri_bump_05_b.png,2,18,98,4,"[1, 0]",left,1,15,21,f,y,y,2019_Jul_12_1050,2AFC_task,59.95052882291963,
stimuli/hdri_bump_09_a.png,stimuli/hdri_bump_09_b.png,2,19,99,8,"[0, 1]",right,1,15,21,f,y,y,2019_Jul_12_1050,2AFC_task,59.95052882291963,
stimuli/lamp_light_08_a.png,stimuli/lamp_light_08_b.png,2,20,100,37,"[0, 1]",right,1,15,21,f,y,y,2019_Jul_12_1050,2AFC_task,59.95052882291963,
stimuli/hdri_light_10_a.png,stimuli/hdri_light_10_b.png,2,21,101,19,"[1, 0]",left,1,15,21,f,y,y,2019_Jul_12_1050,2AFC_task,59.95052882291963,
stimuli/lamp_bump_07_a.png,stimuli/lamp_bump_07_b.png,2,22,102,26,"[1, 0]",left,1,15,21,f,y,y,2019_Jul_12_1050,2AFC_task,59.95052882291963,
stimuli/lamp_light_07_a.png,stimuli/lamp_light_07_b.png,2,23,103,36,"[0, 1]",right,1,15,21,f,y,y,2019_Jul_12_1050,2AFC_task,59.95052882291963,
stimuli/lamp_light_04_a.png,stimuli/lamp_light_04_b.png,2,24,104,33,"[0, 1]",right,1,15,21,f,y,y,2019_Jul_12_1050,2AFC_task,59.95052882291963,
stimuli/lamp_light_06_a.png,stimuli/lamp_light_06_b.png,2,25,105,35,"[0, 1]",right,1,15,21,f,y,y,2019_Jul_12_1050,2AFC_task,59.95052882291963,
stimuli/hdri_bump_03_a.png,stimuli/hdri_bump_03_b.png,2,26,106,2,"[0, 1]",right,1,15,21,f,y,y,2019_Jul_12_1050,2AFC_task,59.95052882291963,
stimuli/hdri_bump_06_a.png,stimuli/hdri_bump_06_b.png,2,27,107,5,"[0, 1]",left,0,15,21,f,y,y,2019_Jul_12_1050,2AFC_task,59.95052882291963,
stimuli/lamp_bump_10_a.png,stimuli/lamp_bump_10_b.png,2,28,108,29,"[0, 1]",right,1,15,21,f,y,y,2019_Jul_12_1050,2AFC_task,59.95052882291963,
stimuli/hdri_light_06_a.png,stimuli/hdri_light_06_b.png,2,29,109,15,"[0, 1]",left,0,15,21,f,y,y,2019_Jul_12_1050,2AFC_task,59.95052882291963,
stimuli/lamp_light_09_a.png,stimuli/lamp_light_09_b.png,2,30,110,38,"[1, 0]",left,1,15,21,f,y,y,2019_Jul_12_1050,2AFC_task,59.95052882291963,
stimuli/lamp_bump_03_a.png,stimuli/lamp_bump_03_b.png,2,31,111,22,"[1, 0]",left,1,15,21,f,y,y,2019_Jul_12_1050,2AFC_task,59.95052882291963,
stimuli/hdri_bump_10_a.png,stimuli/hdri_bump_10_b.png,2,32,112,9,"[0, 1]",right,1,15,21,f,y,y,2019_Jul_12_1050,2AFC_task,59.95052882291963,
stimuli/hdri_light_09_a.png,stimuli/hdri_light_09_b.png,2,33,113,18,"[1, 0]",right,0,15,21,f,y,y,2019_Jul_12_1050,2AFC_task,59.95052882291963,
stimuli/lamp_light_01_a.png,stimuli/lamp_light_01_b.png,2,34,114,30,"[0, 1]",right,1,15,21,f,y,y,2019_Jul_12_1050,2AFC_task,59.95052882291963,
stimuli/lamp_light_05_a.png,stimuli/lamp_light_05_b.png,2,35,115,34,"[1, 0]",left,1,15,21,f,y,y,2019_Jul_12_1050,2AFC_task,59.95052882291963,
stimuli/hdri_light_01_a.png,stimuli/hdri_light_01_b.png,2,36,116,10,"[1, 0]",right,0,15,21,f,y,y,2019_Jul_12_1050,2AFC_task,59.95052882291963,
stimuli/hdri_light_05_a.png,stimuli/hdri_light_05_b.png,2,37,117,14,"[1, 0]",right,0,15,21,f,y,y,2019_Jul_12_1050,2AFC_task,59.95052882291963,
stimuli/lamp_light_03_a.png,stimuli/lamp_light_03_b.png,2,38,118,32,"[1, 0]",left,1,15,21,f,y,y,2019_Jul_12_1050,2AFC_task,59.95052882291963,
stimuli/hdri_bump_07_a.png,stimuli/hdri_bump_07_b.png,2,39,119,6,"[0, 1]",right,1,15,21,f,y,y,2019_Jul_12_1050,2AFC_task,59.95052882291963,
stimuli/lamp_light_02_a.png,stimuli/lamp_light_02_b.png,3,0,120,31,"[0, 1]",right,1,15,21,f,y,y,2019_Jul_12_1050,2AFC_task,59.95052882291963,
stimuli/hdri_light_04_a.png,stimuli/hdri_light_04_b.png,3,1,121,13,"[0, 1]",left,0,15,21,f,y,y,2019_Jul_12_1050,2AFC_task,59.95052882291963,
stimuli/lamp_bump_07_a.png,stimuli/lamp_bump_07_b.png,3,2,122,26,"[1, 0]",right,0,15,21,f,y,y,2019_Jul_12_1050,2AFC_task,59.95052882291963,
stimuli/hdri_bump_04_a.png,stimuli/hdri_bump_04_b.png,3,3,123,3,"[0, 1]",right,1,15,21,f,y,y,2019_Jul_12_1050,2AFC_task,59.95052882291963,
stimuli/hdri_bump_03_a.png,stimuli/hdri_bump_03_b.png,3,4,124,2,"[1, 0]",left,1,15,21,f,y,y,2019_Jul_12_1050,2AFC_task,59.95052882291963,
stimuli/hdri_bump_02_a.png,stimuli/hdri_bump_02_b.png,3,5,125,1,"[0, 1]",right,1,15,21,f,y,y,2019_Jul_12_1050,2AFC_task,59.95052882291963,
stimuli/lamp_light_08_a.png,stimuli/lamp_light_08_b.png,3,6,126,37,"[0, 1]",right,1,15,21,f,y,y,2019_Jul_12_1050,2AFC_task,59.95052882291963,
stimuli/lamp_bump_02_a.png,stimuli/lamp_bump_02_b.png,3,7,127,21,"[0, 1]",right,1,15,21,f,y,y,2019_Jul_12_1050,2AFC_task,59.95052882291963,
stimuli/hdri_light_05_a.png,stimuli/hdri_light_05_b.png,3,8,128,14,"[1, 0]",right,0,15,21,f,y,y,2019_Jul_12_1050,2AFC_task,59.95052882291963,
stimuli/lamp_light_03_a.png,stimuli/lamp_light_03_b.png,3,9,129,32,"[0, 1]",right,1,15,21,f,y,y,2019_Jul_12_1050,2AFC_task,59.95052882291963,
stimuli/lamp_light_05_a.png,stimuli/lamp_light_05_b.png,3,10,130,34,"[0, 1]",right,1,15,21,f,y,y,2019_Jul_12_1050,2AFC_task,59.95052882291963,
stimuli/hdri_bump_06_a.png,stimuli/hdri_bump_06_b.png,3,11,131,5,"[1, 0]",left,1,15,21,f,y,y,2019_Jul_12_1050,2AFC_task,59.95052882291963,
stimuli/hdri_bump_01_a.png,stimuli/hdri_bump_01_b.png,3,12,132,0,"[0, 1]",right,1,15,21,f,y,y,2019_Jul_12_1050,2AFC_task,59.95052882291963,
stimuli/lamp_bump_06_a.png,stimuli/lamp_bump_06_b.png,3,13,133,25,"[0, 1]",left,0,15,21,f,y,y,2019_Jul_12_1050,2AFC_task,59.95052882291963,
stimuli/lamp_bump_09_a.png,stimuli/lamp_bump_09_b.png,3,14,134,28,"[0, 1]",left,0,15,21,f,y,y,2019_Jul_12_1050,2AFC_task,59.95052882291963,
stimuli/hdri_light_10_a.png,stimuli/hdri_light_10_b.png,3,15,135,19,"[1, 0]",left,1,15,21,f,y,y,2019_Jul_12_1050,2AFC_task,59.95052882291963,
stimuli/hdri_light_07_a.png,stimuli/hdri_light_07_b.png,3,16,136,16,"[1, 0]",left,1,15,21,f,y,y,2019_Jul_12_1050,2AFC_task,59.95052882291963,
stimuli/hdri_light_03_a.png,stimuli/hdri_light_03_b.png,3,17,137,12,"[0, 1]",left,0,15,21,f,y,y,2019_Jul_12_1050,2AFC_task,59.95052882291963,
stimuli/hdri_bump_05_a.png,stimuli/hdri_bump_05_b.png,3,18,138,4,"[1, 0]",left,1,15,21,f,y,y,2019_Jul_12_1050,2AFC_task,59.95052882291963,
stimuli/hdri_light_09_a.png,stimuli/hdri_light_09_b.png,3,19,139,18,"[0, 1]",left,0,15,21,f,y,y,2019_Jul_12_1050,2AFC_task,59.95052882291963,
stimuli/lamp_bump_10_a.png,stimuli/lamp_bump_10_b.png,3,20,140,29,"[1, 0]",left,1,15,21,f,y,y,2019_Jul_12_1050,2AFC_task,59.95052882291963,
stimuli/lamp_light_01_a.png,stimuli/lamp_light_01_b.png,3,21,141,30,"[0, 1]",right,1,15,21,f,y,y,2019_Jul_12_1050,2AFC_task,59.95052882291963,
stimuli/lamp_bump_04_a.png,stimuli/lamp_bump_04_b.png,3,22,142,23,"[0, 1]",right,1,15,21,f,y,y,2019_Jul_12_1050,2AFC_task,59.95052882291963,
stimuli/lamp_light_04_a.png,stimuli/lamp_light_04_b.png,3,23,143,33,"[0, 1]",right,1,15,21,f,y,y,2019_Jul_12_1050,2AFC_task,59.95052882291963,
stimuli/lamp_bump_03_a.png,stimuli/lamp_bump_03_b.png,3,24,144,22,"[1, 0]",left,1,15,21,f,y,y,2019_Jul_12_1050,2AFC_task,59.95052882291963,
stimuli/hdri_light_06_a.png,stimuli/hdri_light_06_b.png,3,25,145,15,"[1, 0]",right,0,15,21,f,y,y,2019_Jul_12_1050,2AFC_task,59.95052882291963,
stimuli/lamp_bump_05_a.png,stimuli/lamp_bump_05_b.png,3,26,146,24,"[1, 0]",left,1,15,21,f,y,y,2019_Jul_12_1050,2AFC_task,59.95052882291963,
stimuli/lamp_light_07_a.png,stimuli/lamp_light_07_b.png,3,27,147,36,"[0, 1]",right,1,15,21,f,y,y,2019_Jul_12_1050,2AFC_task,59.95052882291963,
stimuli/hdri_bump_08_a.png,stimuli/hdri_bump_08_b.png,3,28,148,7,"[1, 0]",left,1,15,21,f,y,y,2019_Jul_12_1050,2AFC_task,59.95052882291963,
stimuli/lamp_light_10_a.png,stimuli/lamp_light_10_b.png,3,29,149,39,"[0, 1]",right,1,15,21,f,y,y,2019_Jul_12_1050,2AFC_task,59.95052882291963,
stimuli/hdri_light_02_a.png,stimuli/hdri_light_02_b.png,3,30,150,11,"[0, 1]",right,1,15,21,f,y,y,2019_Jul_12_1050,2AFC_task,59.95052882291963,
stimuli/hdri_light_08_a.png,stimuli/hdri_light_08_b.png,3,31,151,17,"[1, 0]",left,1,15,21,f,y,y,2019_Jul_12_1050,2AFC_task,59.95052882291963,
stimuli/lamp_light_09_a.png,stimuli/lamp_light_09_b.png,3,32,152,38,"[0, 1]",right,1,15,21,f,y,y,2019_Jul_12_1050,2AFC_task,59.95052882291963,
stimuli/hdri_light_01_a.png,stimuli/hdri_light_01_b.png,3,33,153,10,"[0, 1]",left,0,15,21,f,y,y,2019_Jul_12_1050,2AFC_task,59.95052882291963,
stimuli/hdri_bump_09_a.png,stimuli/hdri_bump_09_b.png,3,34,154,8,"[1, 0]",left,1,15,21,f,y,y,2019_Jul_12_1050,2AFC_task,59.95052882291963,
stimuli/hdri_bump_10_a.png,stimuli/hdri_bump_10_b.png,3,35,155,9,"[1, 0]",left,1,15,21,f,y,y,2019_Jul_12_1050,2AFC_task,59.95052882291963,
stimuli/lamp_light_06_a.png,stimuli/lamp_light_06_b.png,3,36,156,35,"[1, 0]",left,1,15,21,f,y,y,2019_Jul_12_1050,2AFC_task,59.95052882291963,
stimuli/lamp_bump_01_a.png,stimuli/lamp_bump_01_b.png,3,37,157,20,"[1, 0]",right,0,15,21,f,y,y,2019_Jul_12_1050,2AFC_task,59.95052882291963,
stimuli/hdri_bump_07_a.png,stimuli/hdri_bump_07_b.png,3,38,158,6,"[0, 1]",right,1,15,21,f,y,y,2019_Jul_12_1050,2AFC_task,59.95052882291963,
stimuli/lamp_bump_08_a.png,stimuli/lamp_bump_08_b.png,3,39,159,27,"[0, 1]",left,0,15,21,f,y,y,2019_Jul_12_1050,2AFC_task,59.95052882291963,
stimuli/lamp_bump_02_a.png,stimuli/lamp_bump_02_b.png,4,0,160,21,"[0, 1]",right,1,15,21,f,y,y,2019_Jul_12_1050,2AFC_task,59.95052882291963,
stimuli/lamp_bump_09_a.png,stimuli/lamp_bump_09_b.png,4,1,161,28,"[0, 1]",left,0,15,21,f,y,y,2019_Jul_12_1050,2AFC_task,59.95052882291963,
stimuli/hdri_bump_01_a.png,stimuli/hdri_bump_01_b.png,4,2,162,0,"[1, 0]",left,1,15,21,f,y,y,2019_Jul_12_1050,2AFC_task,59.95052882291963,
stimuli/hdri_bump_06_a.png,stimuli/hdri_bump_06_b.png,4,3,163,5,"[1, 0]",left,1,15,21,f,y,y,2019_Jul_12_1050,2AFC_task,59.95052882291963,
stimuli/hdri_light_04_a.png,stimuli/hdri_light_04_b.png,4,4,164,13,"[0, 1]",left,0,15,21,f,y,y,2019_Jul_12_1050,2AFC_task,59.95052882291963,
stimuli/hdri_light_01_a.png,stimuli/hdri_light_01_b.png,4,5,165,10,"[1, 0]",right,0,15,21,f,y,y,2019_Jul_12_1050,2AFC_task,59.95052882291963,
stimuli/lamp_bump_01_a.png,stimuli/lamp_bump_01_b.png,4,6,166,20,"[0, 1]",left,0,15,21,f,y,y,2019_Jul_12_1050,2AFC_task,59.95052882291963,
stimuli/lamp_light_07_a.png,stimuli/lamp_light_07_b.png,4,7,167,36,"[0, 1]",right,1,15,21,f,y,y,2019_Jul_12_1050,2AFC_task,59.95052882291963,
stimuli/lamp_light_06_a.png,stimuli/lamp_light_06_b.png,4,8,168,35,"[0, 1]",right,1,15,21,f,y,y,2019_Jul_12_1050,2AFC_task,59.95052882291963,
stimuli/hdri_bump_02_a.png,stimuli/hdri_bump_02_b.png,4,9,169,1,"[0, 1]",right,1,15,21,f,y,y,2019_Jul_12_1050,2AFC_task,59.95052882291963,
stimuli/lamp_light_10_a.png,stimuli/lamp_light_10_b.png,4,10,170,39,"[0, 1]",right,1,15,21,f,y,y,2019_Jul_12_1050,2AFC_task,59.95052882291963,
stimuli/lamp_bump_03_a.png,stimuli/lamp_bump_03_b.png,4,11,171,22,"[0, 1]",right,1,15,21,f,y,y,2019_Jul_12_1050,2AFC_task,59.95052882291963,
stimuli/hdri_bump_07_a.png,stimuli/hdri_bump_07_b.png,4,12,172,6,"[0, 1]",right,1,15,21,f,y,y,2019_Jul_12_1050,2AFC_task,59.95052882291963,
stimuli/hdri_bump_05_a.png,stimuli/hdri_bump_05_b.png,4,13,173,4,"[0, 1]",right,1,15,21,f,y,y,2019_Jul_12_1050,2AFC_task,59.95052882291963,
stimuli/hdri_light_03_a.png,stimuli/hdri_light_03_b.png,4,14,174,12,"[0, 1]",left,0,15,21,f,y,y,2019_Jul_12_1050,2AFC_task,59.95052882291963,
stimuli/lamp_light_08_a.png,stimuli/lamp_light_08_b.png,4,15,175,37,"[1, 0]",left,1,15,21,f,y,y,2019_Jul_12_1050,2AFC_task,59.95052882291963,
stimuli/lamp_light_09_a.png,stimuli/lamp_light_09_b.png,4,16,176,38,"[1, 0]",left,1,15,21,f,y,y,2019_Jul_12_1050,2AFC_task,59.95052882291963,
stimuli/hdri_light_09_a.png,stimuli/hdri_light_09_b.png,4,17,177,18,"[1, 0]",right,0,15,21,f,y,y,2019_Jul_12_1050,2AFC_task,59.95052882291963,
stimuli/lamp_light_05_a.png,stimuli/lamp_light_05_b.png,4,18,178,34,"[1, 0]",left,1,15,21,f,y,y,2019_Jul_12_1050,2AFC_task,59.95052882291963,
stimuli/lamp_bump_05_a.png,stimuli/lamp_bump_05_b.png,4,19,179,24,"[1, 0]",left,1,15,21,f,y,y,2019_Jul_12_1050,2AFC_task,59.95052882291963,
stimuli/lamp_bump_06_a.png,stimuli/lamp_bump_06_b.png,4,20,180,25,"[1, 0]",right,0,15,21,f,y,y,2019_Jul_12_1050,2AFC_task,59.95052882291963,
stimuli/hdri_bump_09_a.png,stimuli/hdri_bump_09_b.png,4,21,181,8,"[1, 0]",right,0,15,21,f,y,y,2019_Jul_12_1050,2AFC_task,59.95052882291963,
stimuli/hdri_light_05_a.png,stimuli/hdri_light_05_b.png,4,22,182,14,"[1, 0]",right,0,15,21,f,y,y,2019_Jul_12_1050,2AFC_task,59.95052882291963,
stimuli/hdri_bump_10_a.png,stimuli/hdri_bump_10_b.png,4,23,183,9,"[1, 0]",left,1,15,21,f,y,y,2019_Jul_12_1050,2AFC_task,59.95052882291963,
stimuli/lamp_bump_08_a.png,stimuli/lamp_bump_08_b.png,4,24,184,27,"[1, 0]",right,0,15,21,f,y,y,2019_Jul_12_1050,2AFC_task,59.95052882291963,
stimuli/lamp_light_01_a.png,stimuli/lamp_light_01_b.png,4,25,185,30,"[1, 0]",left,1,15,21,f,y,y,2019_Jul_12_1050,2AFC_task,59.95052882291963,
stimuli/lamp_light_02_a.png,stimuli/lamp_light_02_b.png,4,26,186,31,"[1, 0]",left,1,15,21,f,y,y,2019_Jul_12_1050,2AFC_task,59.95052882291963,
stimuli/lamp_bump_04_a.png,stimuli/lamp_bump_04_b.png,4,27,187,23,"[0, 1]",right,1,15,21,f,y,y,2019_Jul_12_1050,2AFC_task,59.95052882291963,
stimuli/hdri_bump_08_a.png,stimuli/hdri_bump_08_b.png,4,28,188,7,"[0, 1]",right,1,15,21,f,y,y,2019_Jul_12_1050,2AFC_task,59.95052882291963,
stimuli/lamp_light_03_a.png,stimuli/lamp_light_03_b.png,4,29,189,32,"[0, 1]",right,1,15,21,f,y,y,2019_Jul_12_1050,2AFC_task,59.95052882291963,
stimuli/hdri_light_10_a.png,stimuli/hdri_light_10_b.png,4,30,190,19,"[1, 0]",left,1,15,21,f,y,y,2019_Jul_12_1050,2AFC_task,59.95052882291963,
stimuli/hdri_light_02_a.png,stimuli/hdri_light_02_b.png,4,31,191,11,"[0, 1]",left,0,15,21,f,y,y,2019_Jul_12_1050,2AFC_task,59.95052882291963,
stimuli/hdri_light_06_a.png,stimuli/hdri_light_06_b.png,4,32,192,15,"[1, 0]",right,0,15,21,f,y,y,2019_Jul_12_1050,2AFC_task,59.95052882291963,
stimuli/hdri_bump_03_a.png,stimuli/hdri_bump_03_b.png,4,33,193,2,"[0, 1]",right,1,15,21,f,y,y,2019_Jul_12_1050,2AFC_task,59.95052882291963,
stimuli/hdri_light_08_a.png,stimuli/hdri_light_08_b.png,4,34,194,17,"[1, 0]",left,1,15,21,f,y,y,2019_Jul_12_1050,2AFC_task,59.95052882291963,
stimuli/hdri_bump_04_a.png,stimuli/hdri_bump_04_b.png,4,35,195,3,"[1, 0]",left,1,15,21,f,y,y,2019_Jul_12_1050,2AFC_task,59.95052882291963,
stimuli/hdri_light_07_a.png,stimuli/hdri_light_07_b.png,4,36,196,16,"[0, 1]",right,1,15,21,f,y,y,2019_Jul_12_1050,2AFC_task,59.95052882291963,
stimuli/lamp_bump_07_a.png,stimuli/lamp_bump_07_b.png,4,37,197,26,"[0, 1]",right,1,15,21,f,y,y,2019_Jul_12_1050,2AFC_task,59.95052882291963,
stimuli/lamp_bump_10_a.png,stimuli/lamp_bump_10_b.png,4,38,198,29,"[1, 0]",left,1,15,21,f,y,y,2019_Jul_12_1050,2AFC_task,59.95052882291963,
stimuli/lamp_light_04_a.png,stimuli/lamp_light_04_b.png,4,39,199,33,"[1, 0]",left,1,15,21,f,y,y,2019_Jul_12_1050,2AFC_task,59.95052882291963,
stimuli/lamp_bump_07_a.png,stimuli/lamp_bump_07_b.png,5,0,200,26,"[0, 1]",right,1,15,21,f,y,y,2019_Jul_12_1050,2AFC_task,59.95052882291963,
stimuli/hdri_light_05_a.png,stimuli/hdri_light_05_b.png,5,1,201,14,"[1, 0]",right,0,15,21,f,y,y,2019_Jul_12_1050,2AFC_task,59.95052882291963,
stimuli/hdri_bump_10_a.png,stimuli/hdri_bump_10_b.png,5,2,202,9,"[0, 1]",right,1,15,21,f,y,y,2019_Jul_12_1050,2AFC_task,59.95052882291963,
stimuli/lamp_bump_04_a.png,stimuli/lamp_bump_04_b.png,5,3,203,23,"[1, 0]",right,0,15,21,f,y,y,2019_Jul_12_1050,2AFC_task,59.95052882291963,
stimuli/hdri_light_08_a.png,stimuli/hdri_light_08_b.png,5,4,204,17,"[0, 1]",right,1,15,21,f,y,y,2019_Jul_12_1050,2AFC_task,59.95052882291963,
stimuli/hdri_bump_03_a.png,stimuli/hdri_bump_03_b.png,5,5,205,2,"[1, 0]",left,1,15,21,f,y,y,2019_Jul_12_1050,2AFC_task,59.95052882291963,
stimuli/lamp_bump_01_a.png,stimuli/lamp_bump_01_b.png,5,6,206,20,"[0, 1]",left,0,15,21,f,y,y,2019_Jul_12_1050,2AFC_task,59.95052882291963,
stimuli/hdri_light_09_a.png,stimuli/hdri_light_09_b.png,5,7,207,18,"[1, 0]",right,0,15,21,f,y,y,2019_Jul_12_1050,2AFC_task,59.95052882291963,
stimuli/lamp_light_10_a.png,stimuli/lamp_light_10_b.png,5,8,208,39,"[1, 0]",left,1,15,21,f,y,y,2019_Jul_12_1050,2AFC_task,59.95052882291963,
stimuli/hdri_light_07_a.png,stimuli/hdri_light_07_b.png,5,9,209,16,"[0, 1]",right,1,15,21,f,y,y,2019_Jul_12_1050,2AFC_task,59.95052882291963,
stimuli/hdri_light_10_a.png,stimuli/hdri_light_10_b.png,5,10,210,19,"[0, 1]",right,1,15,21,f,y,y,2019_Jul_12_1050,2AFC_task,59.95052882291963,
stimuli/hdri_light_04_a.png,stimuli/hdri_light_04_b.png,5,11,211,13,"[1, 0]",right,0,15,21,f,y,y,2019_Jul_12_1050,2AFC_task,59.95052882291963,
stimuli/lamp_bump_03_a.png,stimuli/lamp_bump_03_b.png,5,12,212,22,"[0, 1]",right,1,15,21,f,y,y,2019_Jul_12_1050,2AFC_task,59.95052882291963,
stimuli/hdri_bump_02_a.png,stimuli/hdri_bump_02_b.png,5,13,213,1,"[1, 0]",left,1,15,21,f,y,y,2019_Jul_12_1050,2AFC_task,59.95052882291963,
stimuli/hdri_bump_05_a.png,stimuli/hdri_bump_05_b.png,5,14,214,4,"[1, 0]",left,1,15,21,f,y,y,2019_Jul_12_1050,2AFC_task,59.95052882291963,
stimuli/lamp_bump_08_a.png,stimuli/lamp_bump_08_b.png,5,15,215,27,"[0, 1]",right,1,15,21,f,y,y,2019_Jul_12_1050,2AFC_task,59.95052882291963,
stimuli/lamp_light_07_a.png,stimuli/lamp_light_07_b.png,5,16,216,36,"[0, 1]",right,1,15,21,f,y,y,2019_Jul_12_1050,2AFC_task,59.95052882291963,
stimuli/hdri_bump_09_a.png,stimuli/hdri_bump_09_b.png,5,17,217,8,"[1, 0]",left,1,15,21,f,y,y,2019_Jul_12_1050,2AFC_task,59.95052882291963,
stimuli/lamp_light_06_a.png,stimuli/lamp_light_06_b.png,5,18,218,35,"[1, 0]",left,1,15,21,f,y,y,2019_Jul_12_1050,2AFC_task,59.95052882291963,
stimuli/lamp_bump_10_a.png,stimuli/lamp_bump_10_b.png,5,19,219,29,"[0, 1]",right,1,15,21,f,y,y,2019_Jul_12_1050,2AFC_task,59.95052882291963,
stimuli/hdri_bump_01_a.png,stimuli/hdri_bump_01_b.png,5,20,220,0,"[1, 0]",left,1,15,21,f,y,y,2019_Jul_12_1050,2AFC_task,59.95052882291963,
stimuli/lamp_light_03_a.png,stimuli/lamp_light_03_b.png,5,21,221,32,"[0, 1]",right,1,15,21,f,y,y,2019_Jul_12_1050,2AFC_task,59.95052882291963,
stimuli/hdri_bump_08_a.png,stimuli/hdri_bump_08_b.png,5,22,222,7,"[0, 1]",right,1,15,21,f,y,y,2019_Jul_12_1050,2AFC_task,59.95052882291963,
stimuli/lamp_bump_06_a.png,stimuli/lamp_bump_06_b.png,5,23,223,25,"[0, 1]",left,0,15,21,f,y,y,2019_Jul_12_1050,2AFC_task,59.95052882291963,
stimuli/lamp_light_08_a.png,stimuli/lamp_light_08_b.png,5,24,224,37,"[0, 1]",right,1,15,21,f,y,y,2019_Jul_12_1050,2AFC_task,59.95052882291963,
stimuli/lamp_bump_09_a.png,stimuli/lamp_bump_09_b.png,5,25,225,28,"[1, 0]",right,0,15,21,f,y,y,2019_Jul_12_1050,2AFC_task,59.95052882291963,
stimuli/lamp_bump_02_a.png,stimuli/lamp_bump_02_b.png,5,26,226,21,"[0, 1]",left,0,15,21,f,y,y,2019_Jul_12_1050,2AFC_task,59.95052882291963,
stimuli/lamp_light_09_a.png,stimuli/lamp_light_09_b.png,5,27,227,38,"[1, 0]",left,1,15,21,f,y,y,2019_Jul_12_1050,2AFC_task,59.95052882291963,
stimuli/hdri_light_03_a.png,stimuli/hdri_light_03_b.png,5,28,228,12,"[0, 1]",right,1,15,21,f,y,y,2019_Jul_12_1050,2AFC_task,59.95052882291963,
stimuli/lamp_light_02_a.png,stimuli/lamp_light_02_b.png,5,29,229,31,"[0, 1]",right,1,15,21,f,y,y,2019_Jul_12_1050,2AFC_task,59.95052882291963,
stimuli/lamp_light_04_a.png,stimuli/lamp_light_04_b.png,5,30,230,33,"[0, 1]",right,1,15,21,f,y,y,2019_Jul_12_1050,2AFC_task,59.95052882291963,
stimuli/lamp_light_05_a.png,stimuli/lamp_light_05_b.png,5,31,231,34,"[1, 0]",left,1,15,21,f,y,y,2019_Jul_12_1050,2AFC_task,59.95052882291963,
stimuli/hdri_light_02_a.png,stimuli/hdri_light_02_b.png,5,32,232,11,"[0, 1]",left,0,15,21,f,y,y,2019_Jul_12_1050,2AFC_task,59.95052882291963,
stimuli/hdri_bump_06_a.png,stimuli/hdri_bump_06_b.png,5,33,233,5,"[1, 0]",left,1,15,21,f,y,y,2019_Jul_12_1050,2AFC_task,59.95052882291963,
stimuli/hdri_light_01_a.png,stimuli/hdri_light_01_b.png,5,34,234,10,"[0, 1]",left,0,15,21,f,y,y,2019_Jul_12_1050,2AFC_task,59.95052882291963,
stimuli/hdri_light_06_a.png,stimuli/hdri_light_06_b.png,5,35,235,15,"[1, 0]",right,0,15,21,f,y,y,2019_Jul_12_1050,2AFC_task,59.95052882291963,
stimuli/hdri_bump_04_a.png,stimuli/hdri_bump_04_b.png,5,36,236,3,"[1, 0]",left,1,15,21,f,y,y,2019_Jul_12_1050,2AFC_task,59.95052882291963,
stimuli/lamp_bump_05_a.png,stimuli/lamp_bump_05_b.png,5,37,237,24,"[0, 1]",right,1,15,21,f,y,y,2019_Jul_12_1050,2AFC_task,59.95052882291963,
stimuli/lamp_light_01_a.png,stimuli/lamp_light_01_b.png,5,38,238,30,"[0, 1]",right,1,15,21,f,y,y,2019_Jul_12_1050,2AFC_task,59.95052882291963,
stimuli/hdri_bump_07_a.png,stimuli/hdri_bump_07_b.png,5,39,239,6,"[0, 1]",right,1,15,21,f,y,y,2019_Jul_12_1050,2AFC_task,59.95052882291963,
stimuli/lamp_light_03_a.png,stimuli/lamp_light_03_b.png,6,0,240,32,"[0, 1]",right,1,15,21,f,y,y,2019_Jul_12_1050,2AFC_task,59.95052882291963,
stimuli/lamp_bump_04_a.png,stimuli/lamp_bump_04_b.png,6,1,241,23,"[0, 1]",right,1,15,21,f,y,y,2019_Jul_12_1050,2AFC_task,59.95052882291963,
stimuli/lamp_light_05_a.png,stimuli/lamp_light_05_b.png,6,2,242,34,"[0, 1]",right,1,15,21,f,y,y,2019_Jul_12_1050,2AFC_task,59.95052882291963,
stimuli/hdri_light_04_a.png,stimuli/hdri_light_04_b.png,6,3,243,13,"[1, 0]",right,0,15,21,f,y,y,2019_Jul_12_1050,2AFC_task,59.95052882291963,
stimuli/hdri_bump_08_a.png,stimuli/hdri_bump_08_b.png,6,4,244,7,"[0, 1]",right,1,15,21,f,y,y,2019_Jul_12_1050,2AFC_task,59.95052882291963,
stimuli/lamp_light_07_a.png,stimuli/lamp_light_07_b.png,6,5,245,36,"[1, 0]",left,1,15,21,f,y,y,2019_Jul_12_1050,2AFC_task,59.95052882291963,
stimuli/hdri_bump_09_a.png,stimuli/hdri_bump_09_b.png,6,6,246,8,"[1, 0]",left,1,15,21,f,y,y,2019_Jul_12_1050,2AFC_task,59.95052882291963,
stimuli/hdri_light_01_a.png,stimuli/hdri_light_01_b.png,6,7,247,10,"[1, 0]",right,0,15,21,f,y,y,2019_Jul_12_1050,2AFC_task,59.95052882291963,
stimuli/hdri_light_03_a.png,stimuli/hdri_light_03_b.png,6,8,248,12,"[0, 1]",left,0,15,21,f,y,y,2019_Jul_12_1050,2AFC_task,59.95052882291963,
stimuli/hdri_bump_07_a.png,stimuli/hdri_bump_07_b.png,6,9,249,6,"[0, 1]",right,1,15,21,f,y,y,2019_Jul_12_1050,2AFC_task,59.95052882291963,
stimuli/hdri_bump_05_a.png,stimuli/hdri_bump_05_b.png,6,10,250,4,"[0, 1]",right,1,15,21,f,y,y,2019_Jul_12_1050,2AFC_task,59.95052882291963,
stimuli/hdri_bump_04_a.png,stimuli/hdri_bump_04_b.png,6,11,251,3,"[1, 0]",left,1,15,21,f,y,y,2019_Jul_12_1050,2AFC_task,59.95052882291963,
stimuli/hdri_light_07_a.png,stimuli/hdri_light_07_b.png,6,12,252,16,"[1, 0]",left,1,15,21,f,y,y,2019_Jul_12_1050,2AFC_task,59.95052882291963,
stimuli/lamp_bump_09_a.png,stimuli/lamp_bump_09_b.png,6,13,253,28,"[0, 1]",right,1,15,21,f,y,y,2019_Jul_12_1050,2AFC_task,59.95052882291963,
stimuli/hdri_bump_02_a.png,stimuli/hdri_bump_02_b.png,6,14,254,1,"[1, 0]",left,1,15,21,f,y,y,2019_Jul_12_1050,2AFC_task,59.95052882291963,
stimuli/hdri_light_09_a.png,stimuli/hdri_light_09_b.png,6,15,255,18,"[1, 0]",right,0,15,21,f,y,y,2019_Jul_12_1050,2AFC_task,59.95052882291963,
stimuli/lamp_bump_01_a.png,stimuli/lamp_bump_01_b.png,6,16,256,20,"[0, 1]",left,0,15,21,f,y,y,2019_Jul_12_1050,2AFC_task,59.95052882291963,
stimuli/lamp_bump_02_a.png,stimuli/lamp_bump_02_b.png,6,17,257,21,"[0, 1]",right,1,15,21,f,y,y,2019_Jul_12_1050,2AFC_task,59.95052882291963,
stimuli/lamp_bump_03_a.png,stimuli/lamp_bump_03_b.png,6,18,258,22,"[1, 0]",left,1,15,21,f,y,y,2019_Jul_12_1050,2AFC_task,59.95052882291963,
stimuli/lamp_light_01_a.png,stimuli/lamp_light_01_b.png,6,19,259,30,"[0, 1]",right,1,15,21,f,y,y,2019_Jul_12_1050,2AFC_task,59.95052882291963,
stimuli/lamp_light_06_a.png,stimuli/lamp_light_06_b.png,6,20,260,35,"[0, 1]",right,1,15,21,f,y,y,2019_Jul_12_1050,2AFC_task,59.95052882291963,
stimuli/hdri_light_10_a.png,stimuli/hdri_light_10_b.png,6,21,261,19,"[0, 1]",right,1,15,21,f,y,y,2019_Jul_12_1050,2AFC_task,59.95052882291963,
stimuli/lamp_light_08_a.png,stimuli/lamp_light_08_b.png,6,22,262,37,"[1, 0]",left,1,15,21,f,y,y,2019_Jul_12_1050,2AFC_task,59.95052882291963,
stimuli/lamp_bump_10_a.png,stimuli/lamp_bump_10_b.png,6,23,263,29,"[1, 0]",left,1,15,21,f,y,y,2019_Jul_12_1050,2AFC_task,59.95052882291963,
stimuli/hdri_light_08_a.png,stimuli/hdri_light_08_b.png,6,24,264,17,"[0, 1]",right,1,15,21,f,y,y,2019_Jul_12_1050,2AFC_task,59.95052882291963,
stimuli/hdri_light_02_a.png,stimuli/hdri_light_02_b.png,6,25,265,11,"[1, 0]",right,0,15,21,f,y,y,2019_Jul_12_1050,2AFC_task,59.95052882291963,
stimuli/hdri_light_05_a.png,stimuli/hdri_light_05_b.png,6,26,266,14,"[1, 0]",right,0,15,21,f,y,y,2019_Jul_12_1050,2AFC_task,59.95052882291963,
stimuli/hdri_bump_01_a.png,stimuli/hdri_bump_01_b.png,6,27,267,0,"[0, 1]",right,1,15,21,f,y,y,2019_Jul_12_1050,2AFC_task,59.95052882291963,
stimuli/hdri_light_06_a.png,stimuli/hdri_light_06_b.png,6,28,268,15,"[1, 0]",right,0,15,21,f,y,y,2019_Jul_12_1050,2AFC_task,59.95052882291963,
stimuli/hdri_bump_03_a.png,stimuli/hdri_bump_03_b.png,6,29,269,2,"[1, 0]",left,1,15,21,f,y,y,2019_Jul_12_1050,2AFC_task,59.95052882291963,
stimuli/lamp_light_04_a.png,stimuli/lamp_light_04_b.png,6,30,270,33,"[1, 0]",left,1,15,21,f,y,y,2019_Jul_12_1050,2AFC_task,59.95052882291963,
stimuli/hdri_bump_06_a.png,stimuli/hdri_bump_06_b.png,6,31,271,5,"[1, 0]",left,1,15,21,f,y,y,2019_Jul_12_1050,2AFC_task,59.95052882291963,
stimuli/lamp_light_10_a.png,stimuli/lamp_light_10_b.png,6,32,272,39,"[1, 0]",left,1,15,21,f,y,y,2019_Jul_12_1050,2AFC_task,59.95052882291963,
stimuli/lamp_bump_05_a.png,stimuli/lamp_bump_05_b.png,6,33,273,24,"[1, 0]",left,1,15,21,f,y,y,2019_Jul_12_1050,2AFC_task,59.95052882291963,
stimuli/lamp_light_09_a.png,stimuli/lamp_light_09_b.png,6,34,274,38,"[1, 0]",left,1,15,21,f,y,y,2019_Jul_12_1050,2AFC_task,59.95052882291963,
stimuli/hdri_bump_10_a.png,stimuli/hdri_bump_10_b.png,6,35,275,9,"[0, 1]",right,1,15,21,f,y,y,2019_Jul_12_1050,2AFC_task,59.95052882291963,
stimuli/lamp_light_02_a.png,stimuli/lamp_light_02_b.png,6,36,276,31,"[1, 0]",left,1,15,21,f,y,y,2019_Jul_12_1050,2AFC_task,59.95052882291963,
stimuli/lamp_bump_08_a.png,stimuli/lamp_bump_08_b.png,6,37,277,27,"[0, 1]",right,1,15,21,f,y,y,2019_Jul_12_1050,2AFC_task,59.95052882291963,
stimuli/lamp_bump_06_a.png,stimuli/lamp_bump_06_b.png,6,38,278,25,"[0, 1]",left,0,15,21,f,y,y,2019_Jul_12_1050,2AFC_task,59.95052882291963,
stimuli/lamp_bump_07_a.png,stimuli/lamp_bump_07_b.png,6,39,279,26,"[1, 0]",right,0,15,21,f,y,y,2019_Jul_12_1050,2AFC_task,59.95052882291963,
stimuli/hdri_bump_02_a.png,stimuli/hdri_bump_02_b.png,7,0,280,1,"[0, 1]",right,1,15,21,f,y,y,2019_Jul_12_1050,2AFC_task,59.95052882291963,
stimuli/lamp_bump_01_a.png,stimuli/lamp_bump_01_b.png,7,1,281,20,"[1, 0]",right,0,15,21,f,y,y,2019_Jul_12_1050,2AFC_task,59.95052882291963,
stimuli/hdri_light_07_a.png,stimuli/hdri_light_07_b.png,7,2,282,16,"[0, 1]",right,1,15,21,f,y,y,2019_Jul_12_1050,2AFC_task,59.95052882291963,
stimuli/hdri_light_06_a.png,stimuli/hdri_light_06_b.png,7,3,283,15,"[0, 1]",left,0,15,21,f,y,y,2019_Jul_12_1050,2AFC_task,59.95052882291963,
stimuli/hdri_bump_01_a.png,stimuli/hdri_bump_01_b.png,7,4,284,0,"[0, 1]",right,1,15,21,f,y,y,2019_Jul_12_1050,2AFC_task,59.95052882291963,
stimuli/lamp_light_10_a.png,stimuli/lamp_light_10_b.png,7,5,285,39,"[0, 1]",right,1,15,21,f,y,y,2019_Jul_12_1050,2AFC_task,59.95052882291963,
stimuli/lamp_bump_09_a.png,stimuli/lamp_bump_09_b.png,7,6,286,28,"[1, 0]",right,0,15,21,f,y,y,2019_Jul_12_1050,2AFC_task,59.95052882291963,
stimuli/hdri_light_09_a.png,stimuli/hdri_light_09_b.png,7,7,287,18,"[0, 1]",left,0,15,21,f,y,y,2019_Jul_12_1050,2AFC_task,59.95052882291963,
stimuli/lamp_bump_05_a.png,stimuli/lamp_bump_05_b.png,7,8,288,24,"[1, 0]",left,1,15,21,f,y,y,2019_Jul_12_1050,2AFC_task,59.95052882291963,
stimuli/hdri_light_02_a.png,stimuli/hdri_light_02_b.png,7,9,289,11,"[1, 0]",right,0,15,21,f,y,y,2019_Jul_12_1050,2AFC_task,59.95052882291963,
stimuli/hdri_light_05_a.png,stimuli/hdri_light_05_b.png,7,10,290,14,"[0, 1]",left,0,15,21,f,y,y,2019_Jul_12_1050,2AFC_task,59.95052882291963,
stimuli/hdri_light_04_a.png,stimuli/hdri_light_04_b.png,7,11,291,13,"[1, 0]",right,0,15,21,f,y,y,2019_Jul_12_1050,2AFC_task,59.95052882291963,
stimuli/hdri_bump_03_a.png,stimuli/hdri_bump_03_b.png,7,12,292,2,"[1, 0]",left,1,15,21,f,y,y,2019_Jul_12_1050,2AFC_task,59.95052882291963,
stimuli/lamp_light_01_a.png,stimuli/lamp_light_01_b.png,7,13,293,30,"[0, 1]",right,1,15,21,f,y,y,2019_Jul_12_1050,2AFC_task,59.95052882291963,
stimuli/hdri_light_01_a.png,stimuli/hdri_light_01_b.png,7,14,294,10,"[0, 1]",left,0,15,21,f,y,y,2019_Jul_12_1050,2AFC_task,59.95052882291963,
stimuli/lamp_light_04_a.png,stimuli/lamp_light_04_b.png,7,15,295,33,"[1, 0]",left,1,15,21,f,y,y,2019_Jul_12_1050,2AFC_task,59.95052882291963,
stimuli/lamp_light_05_a.png,stimuli/lamp_light_05_b.png,7,16,296,34,"[0, 1]",right,1,15,21,f,y,y,2019_Jul_12_1050,2AFC_task,59.95052882291963,
stimuli/hdri_bump_04_a.png,stimuli/hdri_bump_04_b.png,7,17,297,3,"[0, 1]",right,1,15,21,f,y,y,2019_Jul_12_1050,2AFC_task,59.95052882291963,
stimuli/hdri_light_08_a.png,stimuli/hdri_light_08_b.png,7,18,298,17,"[1, 0]",left,1,15,21,f,y,y,2019_Jul_12_1050,2AFC_task,59.95052882291963,
stimuli/hdri_bump_09_a.png,stimuli/hdri_bump_09_b.png,7,19,299,8,"[0, 1]",right,1,15,21,f,y,y,2019_Jul_12_1050,2AFC_task,59.95052882291963,
stimuli/lamp_light_09_a.png,stimuli/lamp_light_09_b.png,7,20,300,38,"[1, 0]",left,1,15,21,f,y,y,2019_Jul_12_1050,2AFC_task,59.95052882291963,
stimuli/lamp_light_02_a.png,stimuli/lamp_light_02_b.png,7,21,301,31,"[1, 0]",left,1,15,21,f,y,y,2019_Jul_12_1050,2AFC_task,59.95052882291963,
stimuli/hdri_bump_07_a.png,stimuli/hdri_bump_07_b.png,7,22,302,6,"[0, 1]",right,1,15,21,f,y,y,2019_Jul_12_1050,2AFC_task,59.95052882291963,
stimuli/hdri_light_10_a.png,stimuli/hdri_light_10_b.png,7,23,303,19,"[0, 1]",right,1,15,21,f,y,y,2019_Jul_12_1050,2AFC_task,59.95052882291963,
stimuli/lamp_light_07_a.png,stimuli/lamp_light_07_b.png,7,24,304,36,"[1, 0]",left,1,15,21,f,y,y,2019_Jul_12_1050,2AFC_task,59.95052882291963,
stimuli/lamp_bump_08_a.png,stimuli/lamp_bump_08_b.png,7,25,305,27,"[1, 0]",right,0,15,21,f,y,y,2019_Jul_12_1050,2AFC_task,59.95052882291963,
stimuli/lamp_bump_03_a.png,stimuli/lamp_bump_03_b.png,7,26,306,22,"[0, 1]",right,1,15,21,f,y,y,2019_Jul_12_1050,2AFC_task,59.95052882291963,
stimuli/hdri_light_03_a.png,stimuli/hdri_light_03_b.png,7,27,307,12,"[0, 1]",left,0,15,21,f,y,y,2019_Jul_12_1050,2AFC_task,59.95052882291963,
stimuli/lamp_bump_04_a.png,stimuli/lamp_bump_04_b.png,7,28,308,23,"[1, 0]",right,0,15,21,f,y,y,2019_Jul_12_1050,2AFC_task,59.95052882291963,
stimuli/lamp_light_08_a.png,stimuli/lamp_light_08_b.png,7,29,309,37,"[0, 1]",right,1,15,21,f,y,y,2019_Jul_12_1050,2AFC_task,59.95052882291963,
stimuli/hdri_bump_10_a.png,stimuli/hdri_bump_10_b.png,7,30,310,9,"[1, 0]",left,1,15,21,f,y,y,2019_Jul_12_1050,2AFC_task,59.95052882291963,
stimuli/hdri_bump_06_a.png,stimuli/hdri_bump_06_b.png,7,31,311,5,"[1, 0]",left,1,15,21,f,y,y,2019_Jul_12_1050,2AFC_task,59.95052882291963,
stimuli/lamp_light_03_a.png,stimuli/lamp_light_03_b.png,7,32,312,32,"[1, 0]",left,1,15,21,f,y,y,2019_Jul_12_1050,2AFC_task,59.95052882291963,
stimuli/lamp_bump_06_a.png,stimuli/lamp_bump_06_b.png,7,33,313,25,"[1, 0]",right,0,15,21,f,y,y,2019_Jul_12_1050,2AFC_task,59.95052882291963,
stimuli/lamp_bump_10_a.png,stimuli/lamp_bump_10_b.png,7,34,314,29,"[0, 1]",right,1,15,21,f,y,y,2019_Jul_12_1050,2AFC_task,59.95052882291963,
stimuli/hdri_bump_05_a.png,stimuli/hdri_bump_05_b.png,7,35,315,4,"[0, 1]",right,1,15,21,f,y,y,2019_Jul_12_1050,2AFC_task,59.95052882291963,
stimuli/lamp_light_06_a.png,stimuli/lamp_light_06_b.png,7,36,316,35,"[1, 0]",left,1,15,21,f,y,y,2019_Jul_12_1050,2AFC_task,59.95052882291963,
stimuli/lamp_bump_07_a.png,stimuli/lamp_bump_07_b.png,7,37,317,26,"[1, 0]",right,0,15,21,f,y,y,2019_Jul_12_1050,2AFC_task,59.95052882291963,
stimuli/hdri_bump_08_a.png,stimuli/hdri_bump_08_b.png,7,38,318,7,"[1, 0]",left,1,15,21,f,y,y,2019_Jul_12_1050,2AFC_task,59.95052882291963,
stimuli/lamp_bump_02_a.png,stimuli/lamp_bump_02_b.png,7,39,319,21,"[1, 0]",right,0,15,21,f,y,y,2019_Jul_12_1050,2AFC_task,59.95052882291963,
