stimOne,stimTwo,trials_1.thisRepN,trials_1.thisTrialN,trials_1.thisN,trials_1.thisIndex,presentation_positions,resp_key,corresponding_image,participant ID (two digits, e.g. 01),age,gender (m/f/-),normal or corrected-to-normal vision (y/n),normal colour vision (y/n),date,expName,frameRate,
stimuli/lamp_light_09_a.png,stimuli/lamp_light_09_b.png,0,0,0,38,"[1, 0]",left,1,17,21,f,y,y,2019_Jul_16_1004,2AFC_task,59.973827417916326,
stimuli/hdri_light_08_a.png,stimuli/hdri_light_08_b.png,0,1,1,17,"[0, 1]",right,1,17,21,f,y,y,2019_Jul_16_1004,2AFC_task,59.973827417916326,
stimuli/lamp_bump_02_a.png,stimuli/lamp_bump_02_b.png,0,2,2,21,"[0, 1]",left,0,17,21,f,y,y,2019_Jul_16_1004,2AFC_task,59.973827417916326,
stimuli/hdri_light_04_a.png,stimuli/hdri_light_04_b.png,0,3,3,13,"[0, 1]",right,1,17,21,f,y,y,2019_Jul_16_1004,2AFC_task,59.973827417916326,
stimuli/hdri_bump_02_a.png,stimuli/hdri_bump_02_b.png,0,4,4,1,"[1, 0]",left,1,17,21,f,y,y,2019_Jul_16_1004,2AFC_task,59.973827417916326,
stimuli/lamp_light_06_a.png,stimuli/lamp_light_06_b.png,0,5,5,35,"[1, 0]",left,1,17,21,f,y,y,2019_Jul_16_1004,2AFC_task,59.973827417916326,
stimuli/hdri_light_07_a.png,stimuli/hdri_light_07_b.png,0,6,6,16,"[1, 0]",left,1,17,21,f,y,y,2019_Jul_16_1004,2AFC_task,59.973827417916326,
stimuli/hdri_bump_07_a.png,stimuli/hdri_bump_07_b.png,0,7,7,6,"[1, 0]",left,1,17,21,f,y,y,2019_Jul_16_1004,2AFC_task,59.973827417916326,
stimuli/hdri_light_06_a.png,stimuli/hdri_light_06_b.png,0,8,8,15,"[0, 1]",left,0,17,21,f,y,y,2019_Jul_16_1004,2AFC_task,59.973827417916326,
stimuli/lamp_bump_06_a.png,stimuli/lamp_bump_06_b.png,0,9,9,25,"[0, 1]",left,0,17,21,f,y,y,2019_Jul_16_1004,2AFC_task,59.973827417916326,
stimuli/lamp_bump_01_a.png,stimuli/lamp_bump_01_b.png,0,10,10,20,"[1, 0]",right,0,17,21,f,y,y,2019_Jul_16_1004,2AFC_task,59.973827417916326,
stimuli/lamp_bump_08_a.png,stimuli/lamp_bump_08_b.png,0,11,11,27,"[0, 1]",left,0,17,21,f,y,y,2019_Jul_16_1004,2AFC_task,59.973827417916326,
stimuli/lamp_bump_09_a.png,stimuli/lamp_bump_09_b.png,0,12,12,28,"[1, 0]",left,1,17,21,f,y,y,2019_Jul_16_1004,2AFC_task,59.973827417916326,
stimuli/lamp_light_05_a.png,stimuli/lamp_light_05_b.png,0,13,13,34,"[1, 0]",left,1,17,21,f,y,y,2019_Jul_16_1004,2AFC_task,59.973827417916326,
stimuli/lamp_bump_04_a.png,stimuli/lamp_bump_04_b.png,0,14,14,23,"[1, 0]",right,0,17,21,f,y,y,2019_Jul_16_1004,2AFC_task,59.973827417916326,
stimuli/hdri_bump_09_a.png,stimuli/hdri_bump_09_b.png,0,15,15,8,"[0, 1]",left,0,17,21,f,y,y,2019_Jul_16_1004,2AFC_task,59.973827417916326,
stimuli/hdri_bump_03_a.png,stimuli/hdri_bump_03_b.png,0,16,16,2,"[0, 1]",left,0,17,21,f,y,y,2019_Jul_16_1004,2AFC_task,59.973827417916326,
stimuli/hdri_light_02_a.png,stimuli/hdri_light_02_b.png,0,17,17,11,"[0, 1]",left,0,17,21,f,y,y,2019_Jul_16_1004,2AFC_task,59.973827417916326,
stimuli/lamp_light_10_a.png,stimuli/lamp_light_10_b.png,0,18,18,39,"[0, 1]",right,1,17,21,f,y,y,2019_Jul_16_1004,2AFC_task,59.973827417916326,
stimuli/hdri_bump_08_a.png,stimuli/hdri_bump_08_b.png,0,19,19,7,"[1, 0]",left,1,17,21,f,y,y,2019_Jul_16_1004,2AFC_task,59.973827417916326,
stimuli/lamp_light_08_a.png,stimuli/lamp_light_08_b.png,0,20,20,37,"[0, 1]",right,1,17,21,f,y,y,2019_Jul_16_1004,2AFC_task,59.973827417916326,
stimuli/hdri_bump_10_a.png,stimuli/hdri_bump_10_b.png,0,21,21,9,"[1, 0]",left,1,17,21,f,y,y,2019_Jul_16_1004,2AFC_task,59.973827417916326,
stimuli/lamp_light_07_a.png,stimuli/lamp_light_07_b.png,0,22,22,36,"[0, 1]",right,1,17,21,f,y,y,2019_Jul_16_1004,2AFC_task,59.973827417916326,
stimuli/lamp_light_01_a.png,stimuli/lamp_light_01_b.png,0,23,23,30,"[0, 1]",right,1,17,21,f,y,y,2019_Jul_16_1004,2AFC_task,59.973827417916326,
stimuli/lamp_bump_03_a.png,stimuli/lamp_bump_03_b.png,0,24,24,22,"[0, 1]",right,1,17,21,f,y,y,2019_Jul_16_1004,2AFC_task,59.973827417916326,
stimuli/lamp_light_03_a.png,stimuli/lamp_light_03_b.png,0,25,25,32,"[1, 0]",left,1,17,21,f,y,y,2019_Jul_16_1004,2AFC_task,59.973827417916326,
stimuli/lamp_light_02_a.png,stimuli/lamp_light_02_b.png,0,26,26,31,"[0, 1]",right,1,17,21,f,y,y,2019_Jul_16_1004,2AFC_task,59.973827417916326,
stimuli/hdri_light_03_a.png,stimuli/hdri_light_03_b.png,0,27,27,12,"[0, 1]",right,1,17,21,f,y,y,2019_Jul_16_1004,2AFC_task,59.973827417916326,
stimuli/hdri_light_05_a.png,stimuli/hdri_light_05_b.png,0,28,28,14,"[1, 0]",left,1,17,21,f,y,y,2019_Jul_16_1004,2AFC_task,59.973827417916326,
stimuli/lamp_bump_07_a.png,stimuli/lamp_bump_07_b.png,0,29,29,26,"[0, 1]",left,0,17,21,f,y,y,2019_Jul_16_1004,2AFC_task,59.973827417916326,
stimuli/hdri_bump_06_a.png,stimuli/hdri_bump_06_b.png,0,30,30,5,"[1, 0]",left,1,17,21,f,y,y,2019_Jul_16_1004,2AFC_task,59.973827417916326,
stimuli/hdri_bump_04_a.png,stimuli/hdri_bump_04_b.png,0,31,31,3,"[0, 1]",right,1,17,21,f,y,y,2019_Jul_16_1004,2AFC_task,59.973827417916326,
stimuli/hdri_light_09_a.png,stimuli/hdri_light_09_b.png,0,32,32,18,"[0, 1]",left,0,17,21,f,y,y,2019_Jul_16_1004,2AFC_task,59.973827417916326,
stimuli/lamp_light_04_a.png,stimuli/lamp_light_04_b.png,0,33,33,33,"[0, 1]",right,1,17,21,f,y,y,2019_Jul_16_1004,2AFC_task,59.973827417916326,
stimuli/lamp_bump_10_a.png,stimuli/lamp_bump_10_b.png,0,34,34,29,"[1, 0]",left,1,17,21,f,y,y,2019_Jul_16_1004,2AFC_task,59.973827417916326,
stimuli/lamp_bump_05_a.png,stimuli/lamp_bump_05_b.png,0,35,35,24,"[1, 0]",left,1,17,21,f,y,y,2019_Jul_16_1004,2AFC_task,59.973827417916326,
stimuli/hdri_light_10_a.png,stimuli/hdri_light_10_b.png,0,36,36,19,"[0, 1]",right,1,17,21,f,y,y,2019_Jul_16_1004,2AFC_task,59.973827417916326,
stimuli/hdri_bump_01_a.png,stimuli/hdri_bump_01_b.png,0,37,37,0,"[1, 0]",left,1,17,21,f,y,y,2019_Jul_16_1004,2AFC_task,59.973827417916326,
stimuli/hdri_bump_05_a.png,stimuli/hdri_bump_05_b.png,0,38,38,4,"[0, 1]",right,1,17,21,f,y,y,2019_Jul_16_1004,2AFC_task,59.973827417916326,
stimuli/hdri_light_01_a.png,stimuli/hdri_light_01_b.png,0,39,39,10,"[1, 0]",left,1,17,21,f,y,y,2019_Jul_16_1004,2AFC_task,59.973827417916326,
stimuli/lamp_bump_01_a.png,stimuli/lamp_bump_01_b.png,1,0,40,20,"[1, 0]",right,0,17,21,f,y,y,2019_Jul_16_1004,2AFC_task,59.973827417916326,
stimuli/hdri_light_06_a.png,stimuli/hdri_light_06_b.png,1,1,41,15,"[0, 1]",left,0,17,21,f,y,y,2019_Jul_16_1004,2AFC_task,59.973827417916326,
stimuli/lamp_light_04_a.png,stimuli/lamp_light_04_b.png,1,2,42,33,"[0, 1]",right,1,17,21,f,y,y,2019_Jul_16_1004,2AFC_task,59.973827417916326,
stimuli/lamp_bump_03_a.png,stimuli/lamp_bump_03_b.png,1,3,43,22,"[0, 1]",right,1,17,21,f,y,y,2019_Jul_16_1004,2AFC_task,59.973827417916326,
stimuli/hdri_bump_07_a.png,stimuli/hdri_bump_07_b.png,1,4,44,6,"[0, 1]",left,0,17,21,f,y,y,2019_Jul_16_1004,2AFC_task,59.973827417916326,
stimuli/lamp_bump_10_a.png,stimuli/lamp_bump_10_b.png,1,5,45,29,"[0, 1]",right,1,17,21,f,y,y,2019_Jul_16_1004,2AFC_task,59.973827417916326,
stimuli/hdri_bump_01_a.png,stimuli/hdri_bump_01_b.png,1,6,46,0,"[0, 1]",right,1,17,21,f,y,y,2019_Jul_16_1004,2AFC_task,59.973827417916326,
stimuli/lamp_light_06_a.png,stimuli/lamp_light_06_b.png,1,7,47,35,"[0, 1]",right,1,17,21,f,y,y,2019_Jul_16_1004,2AFC_task,59.973827417916326,
stimuli/lamp_light_05_a.png,stimuli/lamp_light_05_b.png,1,8,48,34,"[1, 0]",left,1,17,21,f,y,y,2019_Jul_16_1004,2AFC_task,59.973827417916326,
stimuli/lamp_light_10_a.png,stimuli/lamp_light_10_b.png,1,9,49,39,"[1, 0]",left,1,17,21,f,y,y,2019_Jul_16_1004,2AFC_task,59.973827417916326,
stimuli/lamp_bump_06_a.png,stimuli/lamp_bump_06_b.png,1,10,50,25,"[1, 0]",right,0,17,21,f,y,y,2019_Jul_16_1004,2AFC_task,59.973827417916326,
stimuli/hdri_bump_02_a.png,stimuli/hdri_bump_02_b.png,1,11,51,1,"[1, 0]",left,1,17,21,f,y,y,2019_Jul_16_1004,2AFC_task,59.973827417916326,
stimuli/lamp_bump_05_a.png,stimuli/lamp_bump_05_b.png,1,12,52,24,"[1, 0]",left,1,17,21,f,y,y,2019_Jul_16_1004,2AFC_task,59.973827417916326,
stimuli/hdri_bump_03_a.png,stimuli/hdri_bump_03_b.png,1,13,53,2,"[0, 1]",right,1,17,21,f,y,y,2019_Jul_16_1004,2AFC_task,59.973827417916326,
stimuli/hdri_bump_10_a.png,stimuli/hdri_bump_10_b.png,1,14,54,9,"[0, 1]",right,1,17,21,f,y,y,2019_Jul_16_1004,2AFC_task,59.973827417916326,
stimuli/lamp_bump_09_a.png,stimuli/lamp_bump_09_b.png,1,15,55,28,"[0, 1]",left,0,17,21,f,y,y,2019_Jul_16_1004,2AFC_task,59.973827417916326,
stimuli/hdri_light_08_a.png,stimuli/hdri_light_08_b.png,1,16,56,17,"[1, 0]",left,1,17,21,f,y,y,2019_Jul_16_1004,2AFC_task,59.973827417916326,
stimuli/hdri_light_10_a.png,stimuli/hdri_light_10_b.png,1,17,57,19,"[0, 1]",left,0,17,21,f,y,y,2019_Jul_16_1004,2AFC_task,59.973827417916326,
stimuli/lamp_light_08_a.png,stimuli/lamp_light_08_b.png,1,18,58,37,"[0, 1]",right,1,17,21,f,y,y,2019_Jul_16_1004,2AFC_task,59.973827417916326,
stimuli/lamp_light_03_a.png,stimuli/lamp_light_03_b.png,1,19,59,32,"[0, 1]",right,1,17,21,f,y,y,2019_Jul_16_1004,2AFC_task,59.973827417916326,
stimuli/lamp_bump_04_a.png,stimuli/lamp_bump_04_b.png,1,20,60,23,"[0, 1]",left,0,17,21,f,y,y,2019_Jul_16_1004,2AFC_task,59.973827417916326,
stimuli/hdri_light_02_a.png,stimuli/hdri_light_02_b.png,1,21,61,11,"[1, 0]",left,1,17,21,f,y,y,2019_Jul_16_1004,2AFC_task,59.973827417916326,
stimuli/hdri_bump_06_a.png,stimuli/hdri_bump_06_b.png,1,22,62,5,"[1, 0]",right,0,17,21,f,y,y,2019_Jul_16_1004,2AFC_task,59.973827417916326,
stimuli/hdri_light_05_a.png,stimuli/hdri_light_05_b.png,1,23,63,14,"[0, 1]",left,0,17,21,f,y,y,2019_Jul_16_1004,2AFC_task,59.973827417916326,
stimuli/hdri_bump_04_a.png,stimuli/hdri_bump_04_b.png,1,24,64,3,"[1, 0]",left,1,17,21,f,y,y,2019_Jul_16_1004,2AFC_task,59.973827417916326,
stimuli/hdri_light_09_a.png,stimuli/hdri_light_09_b.png,1,25,65,18,"[0, 1]",left,0,17,21,f,y,y,2019_Jul_16_1004,2AFC_task,59.973827417916326,
stimuli/hdri_bump_05_a.png,stimuli/hdri_bump_05_b.png,1,26,66,4,"[0, 1]",right,1,17,21,f,y,y,2019_Jul_16_1004,2AFC_task,59.973827417916326,
stimuli/lamp_light_01_a.png,stimuli/lamp_light_01_b.png,1,27,67,30,"[1, 0]",right,0,17,21,f,y,y,2019_Jul_16_1004,2AFC_task,59.973827417916326,
stimuli/hdri_bump_08_a.png,stimuli/hdri_bump_08_b.png,1,28,68,7,"[1, 0]",left,1,17,21,f,y,y,2019_Jul_16_1004,2AFC_task,59.973827417916326,
stimuli/hdri_light_01_a.png,stimuli/hdri_light_01_b.png,1,29,69,10,"[1, 0]",right,0,17,21,f,y,y,2019_Jul_16_1004,2AFC_task,59.973827417916326,
stimuli/lamp_bump_02_a.png,stimuli/lamp_bump_02_b.png,1,30,70,21,"[0, 1]",left,0,17,21,f,y,y,2019_Jul_16_1004,2AFC_task,59.973827417916326,
stimuli/lamp_light_02_a.png,stimuli/lamp_light_02_b.png,1,31,71,31,"[0, 1]",right,1,17,21,f,y,y,2019_Jul_16_1004,2AFC_task,59.973827417916326,
stimuli/lamp_light_07_a.png,stimuli/lamp_light_07_b.png,1,32,72,36,"[0, 1]",right,1,17,21,f,y,y,2019_Jul_16_1004,2AFC_task,59.973827417916326,
stimuli/hdri_light_03_a.png,stimuli/hdri_light_03_b.png,1,33,73,12,"[0, 1]",right,1,17,21,f,y,y,2019_Jul_16_1004,2AFC_task,59.973827417916326,
stimuli/lamp_light_09_a.png,stimuli/lamp_light_09_b.png,1,34,74,38,"[0, 1]",right,1,17,21,f,y,y,2019_Jul_16_1004,2AFC_task,59.973827417916326,
stimuli/lamp_bump_08_a.png,stimuli/lamp_bump_08_b.png,1,35,75,27,"[0, 1]",left,0,17,21,f,y,y,2019_Jul_16_1004,2AFC_task,59.973827417916326,
stimuli/lamp_bump_07_a.png,stimuli/lamp_bump_07_b.png,1,36,76,26,"[0, 1]",left,0,17,21,f,y,y,2019_Jul_16_1004,2AFC_task,59.973827417916326,
stimuli/hdri_bump_09_a.png,stimuli/hdri_bump_09_b.png,1,37,77,8,"[0, 1]",left,0,17,21,f,y,y,2019_Jul_16_1004,2AFC_task,59.973827417916326,
stimuli/hdri_light_07_a.png,stimuli/hdri_light_07_b.png,1,38,78,16,"[1, 0]",left,1,17,21,f,y,y,2019_Jul_16_1004,2AFC_task,59.973827417916326,
stimuli/hdri_light_04_a.png,stimuli/hdri_light_04_b.png,1,39,79,13,"[1, 0]",left,1,17,21,f,y,y,2019_Jul_16_1004,2AFC_task,59.973827417916326,
stimuli/lamp_bump_02_a.png,stimuli/lamp_bump_02_b.png,2,0,80,21,"[1, 0]",right,0,17,21,f,y,y,2019_Jul_16_1004,2AFC_task,59.973827417916326,
stimuli/lamp_light_06_a.png,stimuli/lamp_light_06_b.png,2,1,81,35,"[0, 1]",right,1,17,21,f,y,y,2019_Jul_16_1004,2AFC_task,59.973827417916326,
stimuli/hdri_bump_09_a.png,stimuli/hdri_bump_09_b.png,2,2,82,8,"[0, 1]",right,1,17,21,f,y,y,2019_Jul_16_1004,2AFC_task,59.973827417916326,
stimuli/hdri_light_03_a.png,stimuli/hdri_light_03_b.png,2,3,83,12,"[1, 0]",left,1,17,21,f,y,y,2019_Jul_16_1004,2AFC_task,59.973827417916326,
stimuli/lamp_bump_06_a.png,stimuli/lamp_bump_06_b.png,2,4,84,25,"[1, 0]",right,0,17,21,f,y,y,2019_Jul_16_1004,2AFC_task,59.973827417916326,
stimuli/lamp_bump_05_a.png,stimuli/lamp_bump_05_b.png,2,5,85,24,"[1, 0]",left,1,17,21,f,y,y,2019_Jul_16_1004,2AFC_task,59.973827417916326,
stimuli/hdri_bump_05_a.png,stimuli/hdri_bump_05_b.png,2,6,86,4,"[0, 1]",right,1,17,21,f,y,y,2019_Jul_16_1004,2AFC_task,59.973827417916326,
stimuli/hdri_bump_03_a.png,stimuli/hdri_bump_03_b.png,2,7,87,2,"[1, 0]",left,1,17,21,f,y,y,2019_Jul_16_1004,2AFC_task,59.973827417916326,
stimuli/hdri_light_01_a.png,stimuli/hdri_light_01_b.png,2,8,88,10,"[1, 0]",right,0,17,21,f,y,y,2019_Jul_16_1004,2AFC_task,59.973827417916326,
stimuli/hdri_bump_07_a.png,stimuli/hdri_bump_07_b.png,2,9,89,6,"[0, 1]",right,1,17,21,f,y,y,2019_Jul_16_1004,2AFC_task,59.973827417916326,
stimuli/lamp_bump_04_a.png,stimuli/lamp_bump_04_b.png,2,10,90,23,"[0, 1]",left,0,17,21,f,y,y,2019_Jul_16_1004,2AFC_task,59.973827417916326,
stimuli/lamp_bump_09_a.png,stimuli/lamp_bump_09_b.png,2,11,91,28,"[0, 1]",left,0,17,21,f,y,y,2019_Jul_16_1004,2AFC_task,59.973827417916326,
stimuli/lamp_light_01_a.png,stimuli/lamp_light_01_b.png,2,12,92,30,"[0, 1]",right,1,17,21,f,y,y,2019_Jul_16_1004,2AFC_task,59.973827417916326,
stimuli/hdri_bump_10_a.png,stimuli/hdri_bump_10_b.png,2,13,93,9,"[0, 1]",right,1,17,21,f,y,y,2019_Jul_16_1004,2AFC_task,59.973827417916326,
stimuli/lamp_light_10_a.png,stimuli/lamp_light_10_b.png,2,14,94,39,"[1, 0]",left,1,17,21,f,y,y,2019_Jul_16_1004,2AFC_task,59.973827417916326,
stimuli/lamp_light_09_a.png,stimuli/lamp_light_09_b.png,2,15,95,38,"[0, 1]",right,1,17,21,f,y,y,2019_Jul_16_1004,2AFC_task,59.973827417916326,
stimuli/hdri_light_05_a.png,stimuli/hdri_light_05_b.png,2,16,96,14,"[1, 0]",right,0,17,21,f,y,y,2019_Jul_16_1004,2AFC_task,59.973827417916326,
stimuli/hdri_light_09_a.png,stimuli/hdri_light_09_b.png,2,17,97,18,"[1, 0]",right,0,17,21,f,y,y,2019_Jul_16_1004,2AFC_task,59.973827417916326,
stimuli/hdri_light_08_a.png,stimuli/hdri_light_08_b.png,2,18,98,17,"[0, 1]",right,1,17,21,f,y,y,2019_Jul_16_1004,2AFC_task,59.973827417916326,
stimuli/lamp_bump_10_a.png,stimuli/lamp_bump_10_b.png,2,19,99,29,"[1, 0]",left,1,17,21,f,y,y,2019_Jul_16_1004,2AFC_task,59.973827417916326,
stimuli/lamp_bump_07_a.png,stimuli/lamp_bump_07_b.png,2,20,100,26,"[1, 0]",right,0,17,21,f,y,y,2019_Jul_16_1004,2AFC_task,59.973827417916326,
stimuli/lamp_light_04_a.png,stimuli/lamp_light_04_b.png,2,21,101,33,"[1, 0]",right,0,17,21,f,y,y,2019_Jul_16_1004,2AFC_task,59.973827417916326,
stimuli/lamp_light_07_a.png,stimuli/lamp_light_07_b.png,2,22,102,36,"[0, 1]",right,1,17,21,f,y,y,2019_Jul_16_1004,2AFC_task,59.973827417916326,
stimuli/lamp_bump_01_a.png,stimuli/lamp_bump_01_b.png,2,23,103,20,"[0, 1]",left,0,17,21,f,y,y,2019_Jul_16_1004,2AFC_task,59.973827417916326,
stimuli/hdri_light_10_a.png,stimuli/hdri_light_10_b.png,2,24,104,19,"[0, 1]",right,1,17,21,f,y,y,2019_Jul_16_1004,2AFC_task,59.973827417916326,
stimuli/lamp_light_05_a.png,stimuli/lamp_light_05_b.png,2,25,105,34,"[1, 0]",left,1,17,21,f,y,y,2019_Jul_16_1004,2AFC_task,59.973827417916326,
stimuli/lamp_light_02_a.png,stimuli/lamp_light_02_b.png,2,26,106,31,"[1, 0]",left,1,17,21,f,y,y,2019_Jul_16_1004,2AFC_task,59.973827417916326,
stimuli/lamp_light_08_a.png,stimuli/lamp_light_08_b.png,2,27,107,37,"[0, 1]",right,1,17,21,f,y,y,2019_Jul_16_1004,2AFC_task,59.973827417916326,
stimuli/hdri_light_04_a.png,stimuli/hdri_light_04_b.png,2,28,108,13,"[1, 0]",right,0,17,21,f,y,y,2019_Jul_16_1004,2AFC_task,59.973827417916326,
stimuli/hdri_bump_01_a.png,stimuli/hdri_bump_01_b.png,2,29,109,0,"[1, 0]",left,1,17,21,f,y,y,2019_Jul_16_1004,2AFC_task,59.973827417916326,
stimuli/hdri_bump_02_a.png,stimuli/hdri_bump_02_b.png,2,30,110,1,"[1, 0]",right,0,17,21,f,y,y,2019_Jul_16_1004,2AFC_task,59.973827417916326,
stimuli/lamp_light_03_a.png,stimuli/lamp_light_03_b.png,2,31,111,32,"[0, 1]",right,1,17,21,f,y,y,2019_Jul_16_1004,2AFC_task,59.973827417916326,
stimuli/hdri_bump_08_a.png,stimuli/hdri_bump_08_b.png,2,32,112,7,"[0, 1]",right,1,17,21,f,y,y,2019_Jul_16_1004,2AFC_task,59.973827417916326,
stimuli/lamp_bump_03_a.png,stimuli/lamp_bump_03_b.png,2,33,113,22,"[1, 0]",left,1,17,21,f,y,y,2019_Jul_16_1004,2AFC_task,59.973827417916326,
stimuli/hdri_light_06_a.png,stimuli/hdri_light_06_b.png,2,34,114,15,"[0, 1]",left,0,17,21,f,y,y,2019_Jul_16_1004,2AFC_task,59.973827417916326,
stimuli/hdri_bump_06_a.png,stimuli/hdri_bump_06_b.png,2,35,115,5,"[0, 1]",right,1,17,21,f,y,y,2019_Jul_16_1004,2AFC_task,59.973827417916326,
stimuli/hdri_light_07_a.png,stimuli/hdri_light_07_b.png,2,36,116,16,"[1, 0]",left,1,17,21,f,y,y,2019_Jul_16_1004,2AFC_task,59.973827417916326,
stimuli/lamp_bump_08_a.png,stimuli/lamp_bump_08_b.png,2,37,117,27,"[1, 0]",right,0,17,21,f,y,y,2019_Jul_16_1004,2AFC_task,59.973827417916326,
stimuli/hdri_light_02_a.png,stimuli/hdri_light_02_b.png,2,38,118,11,"[0, 1]",left,0,17,21,f,y,y,2019_Jul_16_1004,2AFC_task,59.973827417916326,
stimuli/hdri_bump_04_a.png,stimuli/hdri_bump_04_b.png,2,39,119,3,"[0, 1]",right,1,17,21,f,y,y,2019_Jul_16_1004,2AFC_task,59.973827417916326,
stimuli/hdri_light_09_a.png,stimuli/hdri_light_09_b.png,3,0,120,18,"[1, 0]",right,0,17,21,f,y,y,2019_Jul_16_1004,2AFC_task,59.973827417916326,
stimuli/lamp_bump_04_a.png,stimuli/lamp_bump_04_b.png,3,1,121,23,"[1, 0]",right,0,17,21,f,y,y,2019_Jul_16_1004,2AFC_task,59.973827417916326,
stimuli/lamp_bump_10_a.png,stimuli/lamp_bump_10_b.png,3,2,122,29,"[0, 1]",right,1,17,21,f,y,y,2019_Jul_16_1004,2AFC_task,59.973827417916326,
stimuli/lamp_bump_02_a.png,stimuli/lamp_bump_02_b.png,3,3,123,21,"[1, 0]",right,0,17,21,f,y,y,2019_Jul_16_1004,2AFC_task,59.973827417916326,
stimuli/lamp_light_10_a.png,stimuli/lamp_light_10_b.png,3,4,124,39,"[1, 0]",left,1,17,21,f,y,y,2019_Jul_16_1004,2AFC_task,59.973827417916326,
stimuli/hdri_bump_10_a.png,stimuli/hdri_bump_10_b.png,3,5,125,9,"[0, 1]",right,1,17,21,f,y,y,2019_Jul_16_1004,2AFC_task,59.973827417916326,
stimuli/lamp_light_03_a.png,stimuli/lamp_light_03_b.png,3,6,126,32,"[1, 0]",left,1,17,21,f,y,y,2019_Jul_16_1004,2AFC_task,59.973827417916326,
stimuli/hdri_light_06_a.png,stimuli/hdri_light_06_b.png,3,7,127,15,"[0, 1]",left,0,17,21,f,y,y,2019_Jul_16_1004,2AFC_task,59.973827417916326,
stimuli/hdri_bump_02_a.png,stimuli/hdri_bump_02_b.png,3,8,128,1,"[1, 0]",left,1,17,21,f,y,y,2019_Jul_16_1004,2AFC_task,59.973827417916326,
stimuli/hdri_light_03_a.png,stimuli/hdri_light_03_b.png,3,9,129,12,"[0, 1]",right,1,17,21,f,y,y,2019_Jul_16_1004,2AFC_task,59.973827417916326,
stimuli/lamp_bump_09_a.png,stimuli/lamp_bump_09_b.png,3,10,130,28,"[0, 1]",right,1,17,21,f,y,y,2019_Jul_16_1004,2AFC_task,59.973827417916326,
stimuli/lamp_light_05_a.png,stimuli/lamp_light_05_b.png,3,11,131,34,"[1, 0]",left,1,17,21,f,y,y,2019_Jul_16_1004,2AFC_task,59.973827417916326,
stimuli/lamp_light_08_a.png,stimuli/lamp_light_08_b.png,3,12,132,37,"[1, 0]",left,1,17,21,f,y,y,2019_Jul_16_1004,2AFC_task,59.973827417916326,
stimuli/hdri_bump_07_a.png,stimuli/hdri_bump_07_b.png,3,13,133,6,"[1, 0]",right,0,17,21,f,y,y,2019_Jul_16_1004,2AFC_task,59.973827417916326,
stimuli/hdri_bump_06_a.png,stimuli/hdri_bump_06_b.png,3,14,134,5,"[0, 1]",left,0,17,21,f,y,y,2019_Jul_16_1004,2AFC_task,59.973827417916326,
stimuli/hdri_light_01_a.png,stimuli/hdri_light_01_b.png,3,15,135,10,"[1, 0]",right,0,17,21,f,y,y,2019_Jul_16_1004,2AFC_task,59.973827417916326,
stimuli/hdri_light_02_a.png,stimuli/hdri_light_02_b.png,3,16,136,11,"[0, 1]",right,1,17,21,f,y,y,2019_Jul_16_1004,2AFC_task,59.973827417916326,
stimuli/lamp_bump_01_a.png,stimuli/lamp_bump_01_b.png,3,17,137,20,"[0, 1]",left,0,17,21,f,y,y,2019_Jul_16_1004,2AFC_task,59.973827417916326,
stimuli/hdri_bump_01_a.png,stimuli/hdri_bump_01_b.png,3,18,138,0,"[0, 1]",right,1,17,21,f,y,y,2019_Jul_16_1004,2AFC_task,59.973827417916326,
stimuli/hdri_bump_08_a.png,stimuli/hdri_bump_08_b.png,3,19,139,7,"[1, 0]",left,1,17,21,f,y,y,2019_Jul_16_1004,2AFC_task,59.973827417916326,
stimuli/lamp_bump_08_a.png,stimuli/lamp_bump_08_b.png,3,20,140,27,"[1, 0]",right,0,17,21,f,y,y,2019_Jul_16_1004,2AFC_task,59.973827417916326,
stimuli/hdri_bump_09_a.png,stimuli/hdri_bump_09_b.png,3,21,141,8,"[1, 0]",right,0,17,21,f,y,y,2019_Jul_16_1004,2AFC_task,59.973827417916326,
stimuli/hdri_bump_04_a.png,stimuli/hdri_bump_04_b.png,3,22,142,3,"[0, 1]",right,1,17,21,f,y,y,2019_Jul_16_1004,2AFC_task,59.973827417916326,
stimuli/lamp_bump_03_a.png,stimuli/lamp_bump_03_b.png,3,23,143,22,"[0, 1]",right,1,17,21,f,y,y,2019_Jul_16_1004,2AFC_task,59.973827417916326,
stimuli/lamp_bump_05_a.png,stimuli/lamp_bump_05_b.png,3,24,144,24,"[0, 1]",right,1,17,21,f,y,y,2019_Jul_16_1004,2AFC_task,59.973827417916326,
stimuli/hdri_light_08_a.png,stimuli/hdri_light_08_b.png,3,25,145,17,"[1, 0]",left,1,17,21,f,y,y,2019_Jul_16_1004,2AFC_task,59.973827417916326,
stimuli/hdri_light_10_a.png,stimuli/hdri_light_10_b.png,3,26,146,19,"[0, 1]",right,1,17,21,f,y,y,2019_Jul_16_1004,2AFC_task,59.973827417916326,
stimuli/lamp_light_02_a.png,stimuli/lamp_light_02_b.png,3,27,147,31,"[0, 1]",left,0,17,21,f,y,y,2019_Jul_16_1004,2AFC_task,59.973827417916326,
stimuli/lamp_bump_07_a.png,stimuli/lamp_bump_07_b.png,3,28,148,26,"[1, 0]",right,0,17,21,f,y,y,2019_Jul_16_1004,2AFC_task,59.973827417916326,
stimuli/hdri_light_07_a.png,stimuli/hdri_light_07_b.png,3,29,149,16,"[1, 0]",left,1,17,21,f,y,y,2019_Jul_16_1004,2AFC_task,59.973827417916326,
stimuli/lamp_light_06_a.png,stimuli/lamp_light_06_b.png,3,30,150,35,"[1, 0]",left,1,17,21,f,y,y,2019_Jul_16_1004,2AFC_task,59.973827417916326,
stimuli/lamp_bump_06_a.png,stimuli/lamp_bump_06_b.png,3,31,151,25,"[1, 0]",right,0,17,21,f,y,y,2019_Jul_16_1004,2AFC_task,59.973827417916326,
stimuli/hdri_light_04_a.png,stimuli/hdri_light_04_b.png,3,32,152,13,"[0, 1]",right,1,17,21,f,y,y,2019_Jul_16_1004,2AFC_task,59.973827417916326,
stimuli/lamp_light_09_a.png,stimuli/lamp_light_09_b.png,3,33,153,38,"[1, 0]",left,1,17,21,f,y,y,2019_Jul_16_1004,2AFC_task,59.973827417916326,
stimuli/hdri_bump_03_a.png,stimuli/hdri_bump_03_b.png,3,34,154,2,"[0, 1]",right,1,17,21,f,y,y,2019_Jul_16_1004,2AFC_task,59.973827417916326,
stimuli/hdri_light_05_a.png,stimuli/hdri_light_05_b.png,3,35,155,14,"[1, 0]",right,0,17,21,f,y,y,2019_Jul_16_1004,2AFC_task,59.973827417916326,
stimuli/lamp_light_07_a.png,stimuli/lamp_light_07_b.png,3,36,156,36,"[1, 0]",left,1,17,21,f,y,y,2019_Jul_16_1004,2AFC_task,59.973827417916326,
stimuli/lamp_light_01_a.png,stimuli/lamp_light_01_b.png,3,37,157,30,"[0, 1]",left,0,17,21,f,y,y,2019_Jul_16_1004,2AFC_task,59.973827417916326,
stimuli/lamp_light_04_a.png,stimuli/lamp_light_04_b.png,3,38,158,33,"[0, 1]",right,1,17,21,f,y,y,2019_Jul_16_1004,2AFC_task,59.973827417916326,
stimuli/hdri_bump_05_a.png,stimuli/hdri_bump_05_b.png,3,39,159,4,"[1, 0]",left,1,17,21,f,y,y,2019_Jul_16_1004,2AFC_task,59.973827417916326,
stimuli/lamp_bump_05_a.png,stimuli/lamp_bump_05_b.png,4,0,160,24,"[1, 0]",left,1,17,21,f,y,y,2019_Jul_16_1004,2AFC_task,59.973827417916326,
stimuli/hdri_light_10_a.png,stimuli/hdri_light_10_b.png,4,1,161,19,"[1, 0]",left,1,17,21,f,y,y,2019_Jul_16_1004,2AFC_task,59.973827417916326,
stimuli/lamp_bump_10_a.png,stimuli/lamp_bump_10_b.png,4,2,162,29,"[1, 0]",left,1,17,21,f,y,y,2019_Jul_16_1004,2AFC_task,59.973827417916326,
stimuli/lamp_light_02_a.png,stimuli/lamp_light_02_b.png,4,3,163,31,"[1, 0]",left,1,17,21,f,y,y,2019_Jul_16_1004,2AFC_task,59.973827417916326,
stimuli/hdri_light_04_a.png,stimuli/hdri_light_04_b.png,4,4,164,13,"[1, 0]",left,1,17,21,f,y,y,2019_Jul_16_1004,2AFC_task,59.973827417916326,
stimuli/hdri_bump_05_a.png,stimuli/hdri_bump_05_b.png,4,5,165,4,"[0, 1]",right,1,17,21,f,y,y,2019_Jul_16_1004,2AFC_task,59.973827417916326,
stimuli/hdri_bump_07_a.png,stimuli/hdri_bump_07_b.png,4,6,166,6,"[1, 0]",left,1,17,21,f,y,y,2019_Jul_16_1004,2AFC_task,59.973827417916326,
stimuli/lamp_light_04_a.png,stimuli/lamp_light_04_b.png,4,7,167,33,"[1, 0]",left,1,17,21,f,y,y,2019_Jul_16_1004,2AFC_task,59.973827417916326,
stimuli/lamp_light_01_a.png,stimuli/lamp_light_01_b.png,4,8,168,30,"[1, 0]",left,1,17,21,f,y,y,2019_Jul_16_1004,2AFC_task,59.973827417916326,
stimuli/lamp_light_07_a.png,stimuli/lamp_light_07_b.png,4,9,169,36,"[1, 0]",left,1,17,21,f,y,y,2019_Jul_16_1004,2AFC_task,59.973827417916326,
stimuli/hdri_light_02_a.png,stimuli/hdri_light_02_b.png,4,10,170,11,"[1, 0]",left,1,17,21,f,y,y,2019_Jul_16_1004,2AFC_task,59.973827417916326,
stimuli/lamp_light_03_a.png,stimuli/lamp_light_03_b.png,4,11,171,32,"[0, 1]",right,1,17,21,f,y,y,2019_Jul_16_1004,2AFC_task,59.973827417916326,
stimuli/hdri_light_09_a.png,stimuli/hdri_light_09_b.png,4,12,172,18,"[0, 1]",left,0,17,21,f,y,y,2019_Jul_16_1004,2AFC_task,59.973827417916326,
stimuli/hdri_bump_04_a.png,stimuli/hdri_bump_04_b.png,4,13,173,3,"[1, 0]",left,1,17,21,f,y,y,2019_Jul_16_1004,2AFC_task,59.973827417916326,
stimuli/lamp_light_05_a.png,stimuli/lamp_light_05_b.png,4,14,174,34,"[1, 0]",left,1,17,21,f,y,y,2019_Jul_16_1004,2AFC_task,59.973827417916326,
stimuli/lamp_light_08_a.png,stimuli/lamp_light_08_b.png,4,15,175,37,"[0, 1]",right,1,17,21,f,y,y,2019_Jul_16_1004,2AFC_task,59.973827417916326,
stimuli/lamp_light_10_a.png,stimuli/lamp_light_10_b.png,4,16,176,39,"[1, 0]",left,1,17,21,f,y,y,2019_Jul_16_1004,2AFC_task,59.973827417916326,
stimuli/hdri_bump_08_a.png,stimuli/hdri_bump_08_b.png,4,17,177,7,"[0, 1]",left,0,17,21,f,y,y,2019_Jul_16_1004,2AFC_task,59.973827417916326,
stimuli/hdri_bump_01_a.png,stimuli/hdri_bump_01_b.png,4,18,178,0,"[1, 0]",left,1,17,21,f,y,y,2019_Jul_16_1004,2AFC_task,59.973827417916326,
stimuli/hdri_bump_09_a.png,stimuli/hdri_bump_09_b.png,4,19,179,8,"[1, 0]",left,1,17,21,f,y,y,2019_Jul_16_1004,2AFC_task,59.973827417916326,
stimuli/lamp_bump_06_a.png,stimuli/lamp_bump_06_b.png,4,20,180,25,"[1, 0]",right,0,17,21,f,y,y,2019_Jul_16_1004,2AFC_task,59.973827417916326,
stimuli/hdri_light_01_a.png,stimuli/hdri_light_01_b.png,4,21,181,10,"[1, 0]",right,0,17,21,f,y,y,2019_Jul_16_1004,2AFC_task,59.973827417916326,
stimuli/hdri_bump_02_a.png,stimuli/hdri_bump_02_b.png,4,22,182,1,"[0, 1]",right,1,17,21,f,y,y,2019_Jul_16_1004,2AFC_task,59.973827417916326,
stimuli/lamp_light_09_a.png,stimuli/lamp_light_09_b.png,4,23,183,38,"[0, 1]",right,1,17,21,f,y,y,2019_Jul_16_1004,2AFC_task,59.973827417916326,
stimuli/lamp_bump_02_a.png,stimuli/lamp_bump_02_b.png,4,24,184,21,"[1, 0]",right,0,17,21,f,y,y,2019_Jul_16_1004,2AFC_task,59.973827417916326,
stimuli/hdri_bump_03_a.png,stimuli/hdri_bump_03_b.png,4,25,185,2,"[0, 1]",right,1,17,21,f,y,y,2019_Jul_16_1004,2AFC_task,59.973827417916326,
stimuli/lamp_bump_01_a.png,stimuli/lamp_bump_01_b.png,4,26,186,20,"[0, 1]",left,0,17,21,f,y,y,2019_Jul_16_1004,2AFC_task,59.973827417916326,
stimuli/hdri_light_08_a.png,stimuli/hdri_light_08_b.png,4,27,187,17,"[0, 1]",right,1,17,21,f,y,y,2019_Jul_16_1004,2AFC_task,59.973827417916326,
stimuli/lamp_bump_09_a.png,stimuli/lamp_bump_09_b.png,4,28,188,28,"[1, 0]",left,1,17,21,f,y,y,2019_Jul_16_1004,2AFC_task,59.973827417916326,
stimuli/hdri_light_06_a.png,stimuli/hdri_light_06_b.png,4,29,189,15,"[1, 0]",right,0,17,21,f,y,y,2019_Jul_16_1004,2AFC_task,59.973827417916326,
stimuli/hdri_light_05_a.png,stimuli/hdri_light_05_b.png,4,30,190,14,"[1, 0]",right,0,17,21,f,y,y,2019_Jul_16_1004,2AFC_task,59.973827417916326,
stimuli/lamp_bump_07_a.png,stimuli/lamp_bump_07_b.png,4,31,191,26,"[1, 0]",right,0,17,21,f,y,y,2019_Jul_16_1004,2AFC_task,59.973827417916326,
stimuli/hdri_bump_06_a.png,stimuli/hdri_bump_06_b.png,4,32,192,5,"[0, 1]",right,1,17,21,f,y,y,2019_Jul_16_1004,2AFC_task,59.973827417916326,
stimuli/hdri_light_03_a.png,stimuli/hdri_light_03_b.png,4,33,193,12,"[0, 1]",right,1,17,21,f,y,y,2019_Jul_16_1004,2AFC_task,59.973827417916326,
stimuli/hdri_bump_10_a.png,stimuli/hdri_bump_10_b.png,4,34,194,9,"[0, 1]",right,1,17,21,f,y,y,2019_Jul_16_1004,2AFC_task,59.973827417916326,
stimuli/lamp_bump_03_a.png,stimuli/lamp_bump_03_b.png,4,35,195,22,"[0, 1]",right,1,17,21,f,y,y,2019_Jul_16_1004,2AFC_task,59.973827417916326,
stimuli/lamp_bump_04_a.png,stimuli/lamp_bump_04_b.png,4,36,196,23,"[1, 0]",right,0,17,21,f,y,y,2019_Jul_16_1004,2AFC_task,59.973827417916326,
stimuli/lamp_bump_08_a.png,stimuli/lamp_bump_08_b.png,4,37,197,27,"[0, 1]",left,0,17,21,f,y,y,2019_Jul_16_1004,2AFC_task,59.973827417916326,
stimuli/lamp_light_06_a.png,stimuli/lamp_light_06_b.png,4,38,198,35,"[0, 1]",right,1,17,21,f,y,y,2019_Jul_16_1004,2AFC_task,59.973827417916326,
stimuli/hdri_light_07_a.png,stimuli/hdri_light_07_b.png,4,39,199,16,"[1, 0]",left,1,17,21,f,y,y,2019_Jul_16_1004,2AFC_task,59.973827417916326,
stimuli/hdri_bump_06_a.png,stimuli/hdri_bump_06_b.png,5,0,200,5,"[1, 0]",right,0,17,21,f,y,y,2019_Jul_16_1004,2AFC_task,59.973827417916326,
stimuli/lamp_light_06_a.png,stimuli/lamp_light_06_b.png,5,1,201,35,"[0, 1]",right,1,17,21,f,y,y,2019_Jul_16_1004,2AFC_task,59.973827417916326,
stimuli/lamp_light_04_a.png,stimuli/lamp_light_04_b.png,5,2,202,33,"[1, 0]",left,1,17,21,f,y,y,2019_Jul_16_1004,2AFC_task,59.973827417916326,
stimuli/lamp_bump_09_a.png,stimuli/lamp_bump_09_b.png,5,3,203,28,"[1, 0]",right,0,17,21,f,y,y,2019_Jul_16_1004,2AFC_task,59.973827417916326,
stimuli/hdri_bump_04_a.png,stimuli/hdri_bump_04_b.png,5,4,204,3,"[1, 0]",left,1,17,21,f,y,y,2019_Jul_16_1004,2AFC_task,59.973827417916326,
stimuli/hdri_bump_07_a.png,stimuli/hdri_bump_07_b.png,5,5,205,6,"[0, 1]",right,1,17,21,f,y,y,2019_Jul_16_1004,2AFC_task,59.973827417916326,
stimuli/hdri_light_04_a.png,stimuli/hdri_light_04_b.png,5,6,206,13,"[1, 0]",left,1,17,21,f,y,y,2019_Jul_16_1004,2AFC_task,59.973827417916326,
stimuli/hdri_light_03_a.png,stimuli/hdri_light_03_b.png,5,7,207,12,"[0, 1]",right,1,17,21,f,y,y,2019_Jul_16_1004,2AFC_task,59.973827417916326,
stimuli/lamp_light_02_a.png,stimuli/lamp_light_02_b.png,5,8,208,31,"[0, 1]",right,1,17,21,f,y,y,2019_Jul_16_1004,2AFC_task,59.973827417916326,
stimuli/lamp_light_03_a.png,stimuli/lamp_light_03_b.png,5,9,209,32,"[1, 0]",left,1,17,21,f,y,y,2019_Jul_16_1004,2AFC_task,59.973827417916326,
stimuli/lamp_bump_01_a.png,stimuli/lamp_bump_01_b.png,5,10,210,20,"[1, 0]",right,0,17,21,f,y,y,2019_Jul_16_1004,2AFC_task,59.973827417916326,
stimuli/hdri_light_10_a.png,stimuli/hdri_light_10_b.png,5,11,211,19,"[1, 0]",left,1,17,21,f,y,y,2019_Jul_16_1004,2AFC_task,59.973827417916326,
stimuli/lamp_light_08_a.png,stimuli/lamp_light_08_b.png,5,12,212,37,"[1, 0]",left,1,17,21,f,y,y,2019_Jul_16_1004,2AFC_task,59.973827417916326,
stimuli/lamp_light_10_a.png,stimuli/lamp_light_10_b.png,5,13,213,39,"[0, 1]",right,1,17,21,f,y,y,2019_Jul_16_1004,2AFC_task,59.973827417916326,
stimuli/lamp_light_09_a.png,stimuli/lamp_light_09_b.png,5,14,214,38,"[1, 0]",left,1,17,21,f,y,y,2019_Jul_16_1004,2AFC_task,59.973827417916326,
stimuli/lamp_light_01_a.png,stimuli/lamp_light_01_b.png,5,15,215,30,"[1, 0]",left,1,17,21,f,y,y,2019_Jul_16_1004,2AFC_task,59.973827417916326,
stimuli/lamp_bump_07_a.png,stimuli/lamp_bump_07_b.png,5,16,216,26,"[0, 1]",left,0,17,21,f,y,y,2019_Jul_16_1004,2AFC_task,59.973827417916326,
stimuli/hdri_light_06_a.png,stimuli/hdri_light_06_b.png,5,17,217,15,"[0, 1]",left,0,17,21,f,y,y,2019_Jul_16_1004,2AFC_task,59.973827417916326,
stimuli/lamp_bump_10_a.png,stimuli/lamp_bump_10_b.png,5,18,218,29,"[0, 1]",left,0,17,21,f,y,y,2019_Jul_16_1004,2AFC_task,59.973827417916326,
stimuli/hdri_light_07_a.png,stimuli/hdri_light_07_b.png,5,19,219,16,"[1, 0]",left,1,17,21,f,y,y,2019_Jul_16_1004,2AFC_task,59.973827417916326,
stimuli/hdri_light_09_a.png,stimuli/hdri_light_09_b.png,5,20,220,18,"[0, 1]",left,0,17,21,f,y,y,2019_Jul_16_1004,2AFC_task,59.973827417916326,
stimuli/lamp_bump_08_a.png,stimuli/lamp_bump_08_b.png,5,21,221,27,"[0, 1]",left,0,17,21,f,y,y,2019_Jul_16_1004,2AFC_task,59.973827417916326,
stimuli/hdri_light_08_a.png,stimuli/hdri_light_08_b.png,5,22,222,17,"[1, 0]",left,1,17,21,f,y,y,2019_Jul_16_1004,2AFC_task,59.973827417916326,
stimuli/hdri_light_05_a.png,stimuli/hdri_light_05_b.png,5,23,223,14,"[1, 0]",right,0,17,21,f,y,y,2019_Jul_16_1004,2AFC_task,59.973827417916326,
stimuli/lamp_bump_02_a.png,stimuli/lamp_bump_02_b.png,5,24,224,21,"[0, 1]",left,0,17,21,f,y,y,2019_Jul_16_1004,2AFC_task,59.973827417916326,
stimuli/hdri_bump_09_a.png,stimuli/hdri_bump_09_b.png,5,25,225,8,"[1, 0]",right,0,17,21,f,y,y,2019_Jul_16_1004,2AFC_task,59.973827417916326,
stimuli/hdri_light_01_a.png,stimuli/hdri_light_01_b.png,5,26,226,10,"[0, 1]",right,1,17,21,f,y,y,2019_Jul_16_1004,2AFC_task,59.973827417916326,
stimuli/lamp_bump_05_a.png,stimuli/lamp_bump_05_b.png,5,27,227,24,"[0, 1]",right,1,17,21,f,y,y,2019_Jul_16_1004,2AFC_task,59.973827417916326,
stimuli/lamp_bump_03_a.png,stimuli/lamp_bump_03_b.png,5,28,228,22,"[0, 1]",right,1,17,21,f,y,y,2019_Jul_16_1004,2AFC_task,59.973827417916326,
stimuli/hdri_bump_02_a.png,stimuli/hdri_bump_02_b.png,5,29,229,1,"[0, 1]",right,1,17,21,f,y,y,2019_Jul_16_1004,2AFC_task,59.973827417916326,
stimuli/hdri_bump_10_a.png,stimuli/hdri_bump_10_b.png,5,30,230,9,"[0, 1]",right,1,17,21,f,y,y,2019_Jul_16_1004,2AFC_task,59.973827417916326,
stimuli/hdri_bump_08_a.png,stimuli/hdri_bump_08_b.png,5,31,231,7,"[1, 0]",left,1,17,21,f,y,y,2019_Jul_16_1004,2AFC_task,59.973827417916326,
stimuli/lamp_bump_06_a.png,stimuli/lamp_bump_06_b.png,5,32,232,25,"[1, 0]",right,0,17,21,f,y,y,2019_Jul_16_1004,2AFC_task,59.973827417916326,
stimuli/lamp_light_05_a.png,stimuli/lamp_light_05_b.png,5,33,233,34,"[1, 0]",left,1,17,21,f,y,y,2019_Jul_16_1004,2AFC_task,59.973827417916326,
stimuli/hdri_bump_05_a.png,stimuli/hdri_bump_05_b.png,5,34,234,4,"[0, 1]",right,1,17,21,f,y,y,2019_Jul_16_1004,2AFC_task,59.973827417916326,
stimuli/lamp_bump_04_a.png,stimuli/lamp_bump_04_b.png,5,35,235,23,"[1, 0]",left,1,17,21,f,y,y,2019_Jul_16_1004,2AFC_task,59.973827417916326,
stimuli/hdri_bump_03_a.png,stimuli/hdri_bump_03_b.png,5,36,236,2,"[1, 0]",left,1,17,21,f,y,y,2019_Jul_16_1004,2AFC_task,59.973827417916326,
stimuli/lamp_light_07_a.png,stimuli/lamp_light_07_b.png,5,37,237,36,"[1, 0]",left,1,17,21,f,y,y,2019_Jul_16_1004,2AFC_task,59.973827417916326,
stimuli/hdri_bump_01_a.png,stimuli/hdri_bump_01_b.png,5,38,238,0,"[1, 0]",left,1,17,21,f,y,y,2019_Jul_16_1004,2AFC_task,59.973827417916326,
stimuli/hdri_light_02_a.png,stimuli/hdri_light_02_b.png,5,39,239,11,"[1, 0]",left,1,17,21,f,y,y,2019_Jul_16_1004,2AFC_task,59.973827417916326,
stimuli/hdri_bump_02_a.png,stimuli/hdri_bump_02_b.png,6,0,240,1,"[1, 0]",left,1,17,21,f,y,y,2019_Jul_16_1004,2AFC_task,59.973827417916326,
stimuli/lamp_light_04_a.png,stimuli/lamp_light_04_b.png,6,1,241,33,"[0, 1]",right,1,17,21,f,y,y,2019_Jul_16_1004,2AFC_task,59.973827417916326,
stimuli/lamp_bump_06_a.png,stimuli/lamp_bump_06_b.png,6,2,242,25,"[1, 0]",right,0,17,21,f,y,y,2019_Jul_16_1004,2AFC_task,59.973827417916326,
stimuli/lamp_bump_08_a.png,stimuli/lamp_bump_08_b.png,6,3,243,27,"[0, 1]",left,0,17,21,f,y,y,2019_Jul_16_1004,2AFC_task,59.973827417916326,
stimuli/lamp_light_01_a.png,stimuli/lamp_light_01_b.png,6,4,244,30,"[1, 0]",left,1,17,21,f,y,y,2019_Jul_16_1004,2AFC_task,59.973827417916326,
stimuli/hdri_light_03_a.png,stimuli/hdri_light_03_b.png,6,5,245,12,"[1, 0]",left,1,17,21,f,y,y,2019_Jul_16_1004,2AFC_task,59.973827417916326,
stimuli/lamp_bump_05_a.png,stimuli/lamp_bump_05_b.png,6,6,246,24,"[1, 0]",left,1,17,21,f,y,y,2019_Jul_16_1004,2AFC_task,59.973827417916326,
stimuli/lamp_light_10_a.png,stimuli/lamp_light_10_b.png,6,7,247,39,"[1, 0]",left,1,17,21,f,y,y,2019_Jul_16_1004,2AFC_task,59.973827417916326,
stimuli/hdri_bump_09_a.png,stimuli/hdri_bump_09_b.png,6,8,248,8,"[0, 1]",right,1,17,21,f,y,y,2019_Jul_16_1004,2AFC_task,59.973827417916326,
stimuli/lamp_light_06_a.png,stimuli/lamp_light_06_b.png,6,9,249,35,"[1, 0]",left,1,17,21,f,y,y,2019_Jul_16_1004,2AFC_task,59.973827417916326,
stimuli/hdri_light_04_a.png,stimuli/hdri_light_04_b.png,6,10,250,13,"[1, 0]",right,0,17,21,f,y,y,2019_Jul_16_1004,2AFC_task,59.973827417916326,
stimuli/lamp_bump_10_a.png,stimuli/lamp_bump_10_b.png,6,11,251,29,"[1, 0]",left,1,17,21,f,y,y,2019_Jul_16_1004,2AFC_task,59.973827417916326,
stimuli/hdri_bump_06_a.png,stimuli/hdri_bump_06_b.png,6,12,252,5,"[1, 0]",right,0,17,21,f,y,y,2019_Jul_16_1004,2AFC_task,59.973827417916326,
stimuli/hdri_light_09_a.png,stimuli/hdri_light_09_b.png,6,13,253,18,"[0, 1]",left,0,17,21,f,y,y,2019_Jul_16_1004,2AFC_task,59.973827417916326,
stimuli/lamp_bump_07_a.png,stimuli/lamp_bump_07_b.png,6,14,254,26,"[1, 0]",right,0,17,21,f,y,y,2019_Jul_16_1004,2AFC_task,59.973827417916326,
stimuli/hdri_bump_10_a.png,stimuli/hdri_bump_10_b.png,6,15,255,9,"[0, 1]",right,1,17,21,f,y,y,2019_Jul_16_1004,2AFC_task,59.973827417916326,
stimuli/hdri_light_05_a.png,stimuli/hdri_light_05_b.png,6,16,256,14,"[0, 1]",left,0,17,21,f,y,y,2019_Jul_16_1004,2AFC_task,59.973827417916326,
stimuli/lamp_bump_01_a.png,stimuli/lamp_bump_01_b.png,6,17,257,20,"[1, 0]",right,0,17,21,f,y,y,2019_Jul_16_1004,2AFC_task,59.973827417916326,
stimuli/hdri_bump_01_a.png,stimuli/hdri_bump_01_b.png,6,18,258,0,"[1, 0]",left,1,17,21,f,y,y,2019_Jul_16_1004,2AFC_task,59.973827417916326,
stimuli/hdri_bump_04_a.png,stimuli/hdri_bump_04_b.png,6,19,259,3,"[1, 0]",left,1,17,21,f,y,y,2019_Jul_16_1004,2AFC_task,59.973827417916326,
stimuli/lamp_bump_03_a.png,stimuli/lamp_bump_03_b.png,6,20,260,22,"[1, 0]",left,1,17,21,f,y,y,2019_Jul_16_1004,2AFC_task,59.973827417916326,
stimuli/lamp_light_03_a.png,stimuli/lamp_light_03_b.png,6,21,261,32,"[0, 1]",right,1,17,21,f,y,y,2019_Jul_16_1004,2AFC_task,59.973827417916326,
stimuli/hdri_light_02_a.png,stimuli/hdri_light_02_b.png,6,22,262,11,"[1, 0]",left,1,17,21,f,y,y,2019_Jul_16_1004,2AFC_task,59.973827417916326,
stimuli/lamp_light_02_a.png,stimuli/lamp_light_02_b.png,6,23,263,31,"[1, 0]",left,1,17,21,f,y,y,2019_Jul_16_1004,2AFC_task,59.973827417916326,
stimuli/lamp_bump_09_a.png,stimuli/lamp_bump_09_b.png,6,24,264,28,"[1, 0]",right,0,17,21,f,y,y,2019_Jul_16_1004,2AFC_task,59.973827417916326,
stimuli/hdri_light_06_a.png,stimuli/hdri_light_06_b.png,6,25,265,15,"[0, 1]",left,0,17,21,f,y,y,2019_Jul_16_1004,2AFC_task,59.973827417916326,
stimuli/hdri_bump_03_a.png,stimuli/hdri_bump_03_b.png,6,26,266,2,"[1, 0]",left,1,17,21,f,y,y,2019_Jul_16_1004,2AFC_task,59.973827417916326,
stimuli/hdri_light_01_a.png,stimuli/hdri_light_01_b.png,6,27,267,10,"[1, 0]",left,1,17,21,f,y,y,2019_Jul_16_1004,2AFC_task,59.973827417916326,
stimuli/lamp_bump_02_a.png,stimuli/lamp_bump_02_b.png,6,28,268,21,"[1, 0]",right,0,17,21,f,y,y,2019_Jul_16_1004,2AFC_task,59.973827417916326,
stimuli/hdri_light_07_a.png,stimuli/hdri_light_07_b.png,6,29,269,16,"[0, 1]",right,1,17,21,f,y,y,2019_Jul_16_1004,2AFC_task,59.973827417916326,
stimuli/lamp_light_09_a.png,stimuli/lamp_light_09_b.png,6,30,270,38,"[1, 0]",left,1,17,21,f,y,y,2019_Jul_16_1004,2AFC_task,59.973827417916326,
stimuli/lamp_light_08_a.png,stimuli/lamp_light_08_b.png,6,31,271,37,"[1, 0]",left,1,17,21,f,y,y,2019_Jul_16_1004,2AFC_task,59.973827417916326,
stimuli/lamp_bump_04_a.png,stimuli/lamp_bump_04_b.png,6,32,272,23,"[1, 0]",right,0,17,21,f,y,y,2019_Jul_16_1004,2AFC_task,59.973827417916326,
stimuli/hdri_bump_07_a.png,stimuli/hdri_bump_07_b.png,6,33,273,6,"[0, 1]",right,1,17,21,f,y,y,2019_Jul_16_1004,2AFC_task,59.973827417916326,
stimuli/lamp_light_05_a.png,stimuli/lamp_light_05_b.png,6,34,274,34,"[0, 1]",right,1,17,21,f,y,y,2019_Jul_16_1004,2AFC_task,59.973827417916326,
stimuli/hdri_light_10_a.png,stimuli/hdri_light_10_b.png,6,35,275,19,"[0, 1]",right,1,17,21,f,y,y,2019_Jul_16_1004,2AFC_task,59.973827417916326,
stimuli/hdri_bump_08_a.png,stimuli/hdri_bump_08_b.png,6,36,276,7,"[1, 0]",right,0,17,21,f,y,y,2019_Jul_16_1004,2AFC_task,59.973827417916326,
stimuli/hdri_bump_05_a.png,stimuli/hdri_bump_05_b.png,6,37,277,4,"[1, 0]",left,1,17,21,f,y,y,2019_Jul_16_1004,2AFC_task,59.973827417916326,
stimuli/hdri_light_08_a.png,stimuli/hdri_light_08_b.png,6,38,278,17,"[0, 1]",right,1,17,21,f,y,y,2019_Jul_16_1004,2AFC_task,59.973827417916326,
stimuli/lamp_light_07_a.png,stimuli/lamp_light_07_b.png,6,39,279,36,"[0, 1]",right,1,17,21,f,y,y,2019_Jul_16_1004,2AFC_task,59.973827417916326,
stimuli/lamp_light_03_a.png,stimuli/lamp_light_03_b.png,7,0,280,32,"[1, 0]",left,1,17,21,f,y,y,2019_Jul_16_1004,2AFC_task,59.973827417916326,
stimuli/hdri_bump_03_a.png,stimuli/hdri_bump_03_b.png,7,1,281,2,"[0, 1]",right,1,17,21,f,y,y,2019_Jul_16_1004,2AFC_task,59.973827417916326,
stimuli/hdri_light_03_a.png,stimuli/hdri_light_03_b.png,7,2,282,12,"[1, 0]",left,1,17,21,f,y,y,2019_Jul_16_1004,2AFC_task,59.973827417916326,
stimuli/hdri_light_10_a.png,stimuli/hdri_light_10_b.png,7,3,283,19,"[0, 1]",right,1,17,21,f,y,y,2019_Jul_16_1004,2AFC_task,59.973827417916326,
stimuli/hdri_bump_05_a.png,stimuli/hdri_bump_05_b.png,7,4,284,4,"[1, 0]",left,1,17,21,f,y,y,2019_Jul_16_1004,2AFC_task,59.973827417916326,
stimuli/lamp_light_04_a.png,stimuli/lamp_light_04_b.png,7,5,285,33,"[0, 1]",right,1,17,21,f,y,y,2019_Jul_16_1004,2AFC_task,59.973827417916326,
stimuli/lamp_bump_09_a.png,stimuli/lamp_bump_09_b.png,7,6,286,28,"[0, 1]",right,1,17,21,f,y,y,2019_Jul_16_1004,2AFC_task,59.973827417916326,
stimuli/hdri_light_02_a.png,stimuli/hdri_light_02_b.png,7,7,287,11,"[0, 1]",right,1,17,21,f,y,y,2019_Jul_16_1004,2AFC_task,59.973827417916326,
stimuli/hdri_bump_09_a.png,stimuli/hdri_bump_09_b.png,7,8,288,8,"[1, 0]",right,0,17,21,f,y,y,2019_Jul_16_1004,2AFC_task,59.973827417916326,
stimuli/lamp_bump_03_a.png,stimuli/lamp_bump_03_b.png,7,9,289,22,"[0, 1]",right,1,17,21,f,y,y,2019_Jul_16_1004,2AFC_task,59.973827417916326,
stimuli/lamp_bump_01_a.png,stimuli/lamp_bump_01_b.png,7,10,290,20,"[1, 0]",right,0,17,21,f,y,y,2019_Jul_16_1004,2AFC_task,59.973827417916326,
stimuli/lamp_bump_02_a.png,stimuli/lamp_bump_02_b.png,7,11,291,21,"[1, 0]",right,0,17,21,f,y,y,2019_Jul_16_1004,2AFC_task,59.973827417916326,
stimuli/lamp_bump_04_a.png,stimuli/lamp_bump_04_b.png,7,12,292,23,"[1, 0]",left,1,17,21,f,y,y,2019_Jul_16_1004,2AFC_task,59.973827417916326,
stimuli/hdri_light_05_a.png,stimuli/hdri_light_05_b.png,7,13,293,14,"[0, 1]",right,1,17,21,f,y,y,2019_Jul_16_1004,2AFC_task,59.973827417916326,
stimuli/lamp_light_07_a.png,stimuli/lamp_light_07_b.png,7,14,294,36,"[1, 0]",left,1,17,21,f,y,y,2019_Jul_16_1004,2AFC_task,59.973827417916326,
stimuli/hdri_bump_07_a.png,stimuli/hdri_bump_07_b.png,7,15,295,6,"[0, 1]",right,1,17,21,f,y,y,2019_Jul_16_1004,2AFC_task,59.973827417916326,
stimuli/lamp_light_01_a.png,stimuli/lamp_light_01_b.png,7,16,296,30,"[1, 0]",left,1,17,21,f,y,y,2019_Jul_16_1004,2AFC_task,59.973827417916326,
stimuli/hdri_bump_01_a.png,stimuli/hdri_bump_01_b.png,7,17,297,0,"[0, 1]",right,1,17,21,f,y,y,2019_Jul_16_1004,2AFC_task,59.973827417916326,
stimuli/hdri_light_06_a.png,stimuli/hdri_light_06_b.png,7,18,298,15,"[0, 1]",left,0,17,21,f,y,y,2019_Jul_16_1004,2AFC_task,59.973827417916326,
stimuli/hdri_light_01_a.png,stimuli/hdri_light_01_b.png,7,19,299,10,"[1, 0]",right,0,17,21,f,y,y,2019_Jul_16_1004,2AFC_task,59.973827417916326,
stimuli/hdri_bump_06_a.png,stimuli/hdri_bump_06_b.png,7,20,300,5,"[1, 0]",right,0,17,21,f,y,y,2019_Jul_16_1004,2AFC_task,59.973827417916326,
stimuli/lamp_light_05_a.png,stimuli/lamp_light_05_b.png,7,21,301,34,"[1, 0]",left,1,17,21,f,y,y,2019_Jul_16_1004,2AFC_task,59.973827417916326,
stimuli/lamp_light_02_a.png,stimuli/lamp_light_02_b.png,7,22,302,31,"[1, 0]",left,1,17,21,f,y,y,2019_Jul_16_1004,2AFC_task,59.973827417916326,
stimuli/lamp_bump_06_a.png,stimuli/lamp_bump_06_b.png,7,23,303,25,"[1, 0]",right,0,17,21,f,y,y,2019_Jul_16_1004,2AFC_task,59.973827417916326,
stimuli/hdri_light_08_a.png,stimuli/hdri_light_08_b.png,7,24,304,17,"[1, 0]",left,1,17,21,f,y,y,2019_Jul_16_1004,2AFC_task,59.973827417916326,
stimuli/hdri_light_04_a.png,stimuli/hdri_light_04_b.png,7,25,305,13,"[0, 1]",right,1,17,21,f,y,y,2019_Jul_16_1004,2AFC_task,59.973827417916326,
stimuli/lamp_bump_07_a.png,stimuli/lamp_bump_07_b.png,7,26,306,26,"[0, 1]",left,0,17,21,f,y,y,2019_Jul_16_1004,2AFC_task,59.973827417916326,
stimuli/lamp_light_10_a.png,stimuli/lamp_light_10_b.png,7,27,307,39,"[0, 1]",right,1,17,21,f,y,y,2019_Jul_16_1004,2AFC_task,59.973827417916326,
stimuli/hdri_bump_04_a.png,stimuli/hdri_bump_04_b.png,7,28,308,3,"[0, 1]",right,1,17,21,f,y,y,2019_Jul_16_1004,2AFC_task,59.973827417916326,
stimuli/lamp_bump_05_a.png,stimuli/lamp_bump_05_b.png,7,29,309,24,"[0, 1]",right,1,17,21,f,y,y,2019_Jul_16_1004,2AFC_task,59.973827417916326,
stimuli/lamp_light_08_a.png,stimuli/lamp_light_08_b.png,7,30,310,37,"[1, 0]",left,1,17,21,f,y,y,2019_Jul_16_1004,2AFC_task,59.973827417916326,
stimuli/hdri_bump_10_a.png,stimuli/hdri_bump_10_b.png,7,31,311,9,"[1, 0]",left,1,17,21,f,y,y,2019_Jul_16_1004,2AFC_task,59.973827417916326,
stimuli/hdri_light_07_a.png,stimuli/hdri_light_07_b.png,7,32,312,16,"[1, 0]",left,1,17,21,f,y,y,2019_Jul_16_1004,2AFC_task,59.973827417916326,
stimuli/lamp_light_06_a.png,stimuli/lamp_light_06_b.png,7,33,313,35,"[0, 1]",right,1,17,21,f,y,y,2019_Jul_16_1004,2AFC_task,59.973827417916326,
stimuli/lamp_light_09_a.png,stimuli/lamp_light_09_b.png,7,34,314,38,"[1, 0]",left,1,17,21,f,y,y,2019_Jul_16_1004,2AFC_task,59.973827417916326,
stimuli/lamp_bump_10_a.png,stimuli/lamp_bump_10_b.png,7,35,315,29,"[1, 0]",left,1,17,21,f,y,y,2019_Jul_16_1004,2AFC_task,59.973827417916326,
stimuli/hdri_light_09_a.png,stimuli/hdri_light_09_b.png,7,36,316,18,"[0, 1]",left,0,17,21,f,y,y,2019_Jul_16_1004,2AFC_task,59.973827417916326,
stimuli/hdri_bump_08_a.png,stimuli/hdri_bump_08_b.png,7,37,317,7,"[0, 1]",left,0,17,21,f,y,y,2019_Jul_16_1004,2AFC_task,59.973827417916326,
stimuli/lamp_bump_08_a.png,stimuli/lamp_bump_08_b.png,7,38,318,27,"[0, 1]",left,0,17,21,f,y,y,2019_Jul_16_1004,2AFC_task,59.973827417916326,
stimuli/hdri_bump_02_a.png,stimuli/hdri_bump_02_b.png,7,39,319,1,"[0, 1]",right,1,17,21,f,y,y,2019_Jul_16_1004,2AFC_task,59.973827417916326,
