stimOne,stimTwo,trials_1.thisRepN,trials_1.thisTrialN,trials_1.thisN,trials_1.thisIndex,presentation_positions,resp_key,corresponding_image,participant ID (two digits, e.g. 01),age,gender (m/f/-),normal or corrected-to-normal vision (y/n),normal colour vision (y/n),date,expName,frameRate,
stimuli/lamp_light_05_a.png,stimuli/lamp_light_05_b.png,0,0,0,34,"[1, 0]",left,1,19,26,f,y,y,2019_Jul_16_1218,2AFC_task,59.94186838000393,
stimuli/lamp_bump_02_a.png,stimuli/lamp_bump_02_b.png,0,1,1,21,"[1, 0]",right,0,19,26,f,y,y,2019_Jul_16_1218,2AFC_task,59.94186838000393,
stimuli/hdri_bump_01_a.png,stimuli/hdri_bump_01_b.png,0,2,2,0,"[0, 1]",right,1,19,26,f,y,y,2019_Jul_16_1218,2AFC_task,59.94186838000393,
stimuli/hdri_light_02_a.png,stimuli/hdri_light_02_b.png,0,3,3,11,"[1, 0]",right,0,19,26,f,y,y,2019_Jul_16_1218,2AFC_task,59.94186838000393,
stimuli/lamp_light_02_a.png,stimuli/lamp_light_02_b.png,0,4,4,31,"[1, 0]",left,1,19,26,f,y,y,2019_Jul_16_1218,2AFC_task,59.94186838000393,
stimuli/lamp_bump_07_a.png,stimuli/lamp_bump_07_b.png,0,5,5,26,"[1, 0]",right,0,19,26,f,y,y,2019_Jul_16_1218,2AFC_task,59.94186838000393,
stimuli/lamp_light_08_a.png,stimuli/lamp_light_08_b.png,0,6,6,37,"[1, 0]",left,1,19,26,f,y,y,2019_Jul_16_1218,2AFC_task,59.94186838000393,
stimuli/hdri_bump_02_a.png,stimuli/hdri_bump_02_b.png,0,7,7,1,"[1, 0]",left,1,19,26,f,y,y,2019_Jul_16_1218,2AFC_task,59.94186838000393,
stimuli/lamp_light_10_a.png,stimuli/lamp_light_10_b.png,0,8,8,39,"[1, 0]",left,1,19,26,f,y,y,2019_Jul_16_1218,2AFC_task,59.94186838000393,
stimuli/lamp_bump_03_a.png,stimuli/lamp_bump_03_b.png,0,9,9,22,"[1, 0]",left,1,19,26,f,y,y,2019_Jul_16_1218,2AFC_task,59.94186838000393,
stimuli/lamp_bump_09_a.png,stimuli/lamp_bump_09_b.png,0,10,10,28,"[1, 0]",right,0,19,26,f,y,y,2019_Jul_16_1218,2AFC_task,59.94186838000393,
stimuli/hdri_light_09_a.png,stimuli/hdri_light_09_b.png,0,11,11,18,"[0, 1]",left,0,19,26,f,y,y,2019_Jul_16_1218,2AFC_task,59.94186838000393,
stimuli/hdri_bump_07_a.png,stimuli/hdri_bump_07_b.png,0,12,12,6,"[1, 0]",left,1,19,26,f,y,y,2019_Jul_16_1218,2AFC_task,59.94186838000393,
stimuli/lamp_bump_08_a.png,stimuli/lamp_bump_08_b.png,0,13,13,27,"[1, 0]",right,0,19,26,f,y,y,2019_Jul_16_1218,2AFC_task,59.94186838000393,
stimuli/hdri_light_06_a.png,stimuli/hdri_light_06_b.png,0,14,14,15,"[0, 1]",left,0,19,26,f,y,y,2019_Jul_16_1218,2AFC_task,59.94186838000393,
stimuli/hdri_bump_10_a.png,stimuli/hdri_bump_10_b.png,0,15,15,9,"[0, 1]",right,1,19,26,f,y,y,2019_Jul_16_1218,2AFC_task,59.94186838000393,
stimuli/lamp_light_09_a.png,stimuli/lamp_light_09_b.png,0,16,16,38,"[0, 1]",right,1,19,26,f,y,y,2019_Jul_16_1218,2AFC_task,59.94186838000393,
stimuli/hdri_light_04_a.png,stimuli/hdri_light_04_b.png,0,17,17,13,"[1, 0]",right,0,19,26,f,y,y,2019_Jul_16_1218,2AFC_task,59.94186838000393,
stimuli/hdri_bump_09_a.png,stimuli/hdri_bump_09_b.png,0,18,18,8,"[0, 1]",right,1,19,26,f,y,y,2019_Jul_16_1218,2AFC_task,59.94186838000393,
stimuli/lamp_bump_04_a.png,stimuli/lamp_bump_04_b.png,0,19,19,23,"[0, 1]",right,1,19,26,f,y,y,2019_Jul_16_1218,2AFC_task,59.94186838000393,
stimuli/lamp_bump_10_a.png,stimuli/lamp_bump_10_b.png,0,20,20,29,"[0, 1]",right,1,19,26,f,y,y,2019_Jul_16_1218,2AFC_task,59.94186838000393,
stimuli/lamp_bump_06_a.png,stimuli/lamp_bump_06_b.png,0,21,21,25,"[1, 0]",left,1,19,26,f,y,y,2019_Jul_16_1218,2AFC_task,59.94186838000393,
stimuli/hdri_bump_06_a.png,stimuli/hdri_bump_06_b.png,0,22,22,5,"[1, 0]",left,1,19,26,f,y,y,2019_Jul_16_1218,2AFC_task,59.94186838000393,
stimuli/hdri_bump_03_a.png,stimuli/hdri_bump_03_b.png,0,23,23,2,"[0, 1]",right,1,19,26,f,y,y,2019_Jul_16_1218,2AFC_task,59.94186838000393,
stimuli/lamp_light_01_a.png,stimuli/lamp_light_01_b.png,0,24,24,30,"[1, 0]",left,1,19,26,f,y,y,2019_Jul_16_1218,2AFC_task,59.94186838000393,
stimuli/lamp_bump_05_a.png,stimuli/lamp_bump_05_b.png,0,25,25,24,"[1, 0]",left,1,19,26,f,y,y,2019_Jul_16_1218,2AFC_task,59.94186838000393,
stimuli/lamp_light_06_a.png,stimuli/lamp_light_06_b.png,0,26,26,35,"[0, 1]",right,1,19,26,f,y,y,2019_Jul_16_1218,2AFC_task,59.94186838000393,
stimuli/lamp_light_03_a.png,stimuli/lamp_light_03_b.png,0,27,27,32,"[0, 1]",right,1,19,26,f,y,y,2019_Jul_16_1218,2AFC_task,59.94186838000393,
stimuli/hdri_light_07_a.png,stimuli/hdri_light_07_b.png,0,28,28,16,"[1, 0]",left,1,19,26,f,y,y,2019_Jul_16_1218,2AFC_task,59.94186838000393,
stimuli/hdri_light_01_a.png,stimuli/hdri_light_01_b.png,0,29,29,10,"[1, 0]",right,0,19,26,f,y,y,2019_Jul_16_1218,2AFC_task,59.94186838000393,
stimuli/lamp_bump_01_a.png,stimuli/lamp_bump_01_b.png,0,30,30,20,"[0, 1]",right,1,19,26,f,y,y,2019_Jul_16_1218,2AFC_task,59.94186838000393,
stimuli/lamp_light_04_a.png,stimuli/lamp_light_04_b.png,0,31,31,33,"[1, 0]",left,1,19,26,f,y,y,2019_Jul_16_1218,2AFC_task,59.94186838000393,
stimuli/hdri_light_03_a.png,stimuli/hdri_light_03_b.png,0,32,32,12,"[0, 1]",left,0,19,26,f,y,y,2019_Jul_16_1218,2AFC_task,59.94186838000393,
stimuli/hdri_light_08_a.png,stimuli/hdri_light_08_b.png,0,33,33,17,"[0, 1]",right,1,19,26,f,y,y,2019_Jul_16_1218,2AFC_task,59.94186838000393,
stimuli/hdri_bump_05_a.png,stimuli/hdri_bump_05_b.png,0,34,34,4,"[0, 1]",right,1,19,26,f,y,y,2019_Jul_16_1218,2AFC_task,59.94186838000393,
stimuli/lamp_light_07_a.png,stimuli/lamp_light_07_b.png,0,35,35,36,"[1, 0]",left,1,19,26,f,y,y,2019_Jul_16_1218,2AFC_task,59.94186838000393,
stimuli/hdri_light_10_a.png,stimuli/hdri_light_10_b.png,0,36,36,19,"[0, 1]",right,1,19,26,f,y,y,2019_Jul_16_1218,2AFC_task,59.94186838000393,
stimuli/hdri_bump_08_a.png,stimuli/hdri_bump_08_b.png,0,37,37,7,"[1, 0]",left,1,19,26,f,y,y,2019_Jul_16_1218,2AFC_task,59.94186838000393,
stimuli/hdri_bump_04_a.png,stimuli/hdri_bump_04_b.png,0,38,38,3,"[0, 1]",right,1,19,26,f,y,y,2019_Jul_16_1218,2AFC_task,59.94186838000393,
stimuli/hdri_light_05_a.png,stimuli/hdri_light_05_b.png,0,39,39,14,"[0, 1]",left,0,19,26,f,y,y,2019_Jul_16_1218,2AFC_task,59.94186838000393,
stimuli/hdri_light_03_a.png,stimuli/hdri_light_03_b.png,1,0,40,12,"[0, 1]",left,0,19,26,f,y,y,2019_Jul_16_1218,2AFC_task,59.94186838000393,
stimuli/hdri_bump_02_a.png,stimuli/hdri_bump_02_b.png,1,1,41,1,"[1, 0]",left,1,19,26,f,y,y,2019_Jul_16_1218,2AFC_task,59.94186838000393,
stimuli/lamp_light_02_a.png,stimuli/lamp_light_02_b.png,1,2,42,31,"[1, 0]",left,1,19,26,f,y,y,2019_Jul_16_1218,2AFC_task,59.94186838000393,
stimuli/lamp_light_04_a.png,stimuli/lamp_light_04_b.png,1,3,43,33,"[0, 1]",right,1,19,26,f,y,y,2019_Jul_16_1218,2AFC_task,59.94186838000393,
stimuli/lamp_bump_01_a.png,stimuli/lamp_bump_01_b.png,1,4,44,20,"[0, 1]",right,1,19,26,f,y,y,2019_Jul_16_1218,2AFC_task,59.94186838000393,
stimuli/hdri_bump_03_a.png,stimuli/hdri_bump_03_b.png,1,5,45,2,"[0, 1]",left,0,19,26,f,y,y,2019_Jul_16_1218,2AFC_task,59.94186838000393,
stimuli/hdri_light_04_a.png,stimuli/hdri_light_04_b.png,1,6,46,13,"[1, 0]",right,0,19,26,f,y,y,2019_Jul_16_1218,2AFC_task,59.94186838000393,
stimuli/lamp_light_05_a.png,stimuli/lamp_light_05_b.png,1,7,47,34,"[0, 1]",right,1,19,26,f,y,y,2019_Jul_16_1218,2AFC_task,59.94186838000393,
stimuli/hdri_light_06_a.png,stimuli/hdri_light_06_b.png,1,8,48,15,"[1, 0]",right,0,19,26,f,y,y,2019_Jul_16_1218,2AFC_task,59.94186838000393,
stimuli/hdri_light_05_a.png,stimuli/hdri_light_05_b.png,1,9,49,14,"[0, 1]",left,0,19,26,f,y,y,2019_Jul_16_1218,2AFC_task,59.94186838000393,
stimuli/hdri_light_08_a.png,stimuli/hdri_light_08_b.png,1,10,50,17,"[0, 1]",right,1,19,26,f,y,y,2019_Jul_16_1218,2AFC_task,59.94186838000393,
stimuli/lamp_light_01_a.png,stimuli/lamp_light_01_b.png,1,11,51,30,"[0, 1]",right,1,19,26,f,y,y,2019_Jul_16_1218,2AFC_task,59.94186838000393,
stimuli/lamp_light_07_a.png,stimuli/lamp_light_07_b.png,1,12,52,36,"[0, 1]",right,1,19,26,f,y,y,2019_Jul_16_1218,2AFC_task,59.94186838000393,
stimuli/lamp_bump_04_a.png,stimuli/lamp_bump_04_b.png,1,13,53,23,"[0, 1]",left,0,19,26,f,y,y,2019_Jul_16_1218,2AFC_task,59.94186838000393,
stimuli/lamp_light_10_a.png,stimuli/lamp_light_10_b.png,1,14,54,39,"[1, 0]",left,1,19,26,f,y,y,2019_Jul_16_1218,2AFC_task,59.94186838000393,
stimuli/lamp_light_03_a.png,stimuli/lamp_light_03_b.png,1,15,55,32,"[1, 0]",left,1,19,26,f,y,y,2019_Jul_16_1218,2AFC_task,59.94186838000393,
stimuli/lamp_bump_07_a.png,stimuli/lamp_bump_07_b.png,1,16,56,26,"[1, 0]",right,0,19,26,f,y,y,2019_Jul_16_1218,2AFC_task,59.94186838000393,
stimuli/lamp_bump_05_a.png,stimuli/lamp_bump_05_b.png,1,17,57,24,"[0, 1]",right,1,19,26,f,y,y,2019_Jul_16_1218,2AFC_task,59.94186838000393,
stimuli/lamp_bump_10_a.png,stimuli/lamp_bump_10_b.png,1,18,58,29,"[1, 0]",left,1,19,26,f,y,y,2019_Jul_16_1218,2AFC_task,59.94186838000393,
stimuli/lamp_bump_03_a.png,stimuli/lamp_bump_03_b.png,1,19,59,22,"[1, 0]",left,1,19,26,f,y,y,2019_Jul_16_1218,2AFC_task,59.94186838000393,
stimuli/hdri_light_07_a.png,stimuli/hdri_light_07_b.png,1,20,60,16,"[0, 1]",right,1,19,26,f,y,y,2019_Jul_16_1218,2AFC_task,59.94186838000393,
stimuli/lamp_light_06_a.png,stimuli/lamp_light_06_b.png,1,21,61,35,"[1, 0]",left,1,19,26,f,y,y,2019_Jul_16_1218,2AFC_task,59.94186838000393,
stimuli/hdri_bump_09_a.png,stimuli/hdri_bump_09_b.png,1,22,62,8,"[1, 0]",left,1,19,26,f,y,y,2019_Jul_16_1218,2AFC_task,59.94186838000393,
stimuli/lamp_bump_09_a.png,stimuli/lamp_bump_09_b.png,1,23,63,28,"[0, 1]",right,1,19,26,f,y,y,2019_Jul_16_1218,2AFC_task,59.94186838000393,
stimuli/hdri_bump_01_a.png,stimuli/hdri_bump_01_b.png,1,24,64,0,"[0, 1]",right,1,19,26,f,y,y,2019_Jul_16_1218,2AFC_task,59.94186838000393,
stimuli/hdri_bump_04_a.png,stimuli/hdri_bump_04_b.png,1,25,65,3,"[1, 0]",left,1,19,26,f,y,y,2019_Jul_16_1218,2AFC_task,59.94186838000393,
stimuli/lamp_light_08_a.png,stimuli/lamp_light_08_b.png,1,26,66,37,"[1, 0]",left,1,19,26,f,y,y,2019_Jul_16_1218,2AFC_task,59.94186838000393,
stimuli/hdri_light_10_a.png,stimuli/hdri_light_10_b.png,1,27,67,19,"[1, 0]",left,1,19,26,f,y,y,2019_Jul_16_1218,2AFC_task,59.94186838000393,
stimuli/hdri_light_02_a.png,stimuli/hdri_light_02_b.png,1,28,68,11,"[0, 1]",left,0,19,26,f,y,y,2019_Jul_16_1218,2AFC_task,59.94186838000393,
stimuli/lamp_bump_02_a.png,stimuli/lamp_bump_02_b.png,1,29,69,21,"[0, 1]",left,0,19,26,f,y,y,2019_Jul_16_1218,2AFC_task,59.94186838000393,
stimuli/lamp_bump_06_a.png,stimuli/lamp_bump_06_b.png,1,30,70,25,"[1, 0]",left,1,19,26,f,y,y,2019_Jul_16_1218,2AFC_task,59.94186838000393,
stimuli/hdri_bump_05_a.png,stimuli/hdri_bump_05_b.png,1,31,71,4,"[1, 0]",left,1,19,26,f,y,y,2019_Jul_16_1218,2AFC_task,59.94186838000393,
stimuli/lamp_light_09_a.png,stimuli/lamp_light_09_b.png,1,32,72,38,"[1, 0]",left,1,19,26,f,y,y,2019_Jul_16_1218,2AFC_task,59.94186838000393,
stimuli/hdri_light_01_a.png,stimuli/hdri_light_01_b.png,1,33,73,10,"[0, 1]",right,1,19,26,f,y,y,2019_Jul_16_1218,2AFC_task,59.94186838000393,
stimuli/hdri_bump_06_a.png,stimuli/hdri_bump_06_b.png,1,34,74,5,"[0, 1]",right,1,19,26,f,y,y,2019_Jul_16_1218,2AFC_task,59.94186838000393,
stimuli/hdri_bump_08_a.png,stimuli/hdri_bump_08_b.png,1,35,75,7,"[1, 0]",left,1,19,26,f,y,y,2019_Jul_16_1218,2AFC_task,59.94186838000393,
stimuli/hdri_bump_07_a.png,stimuli/hdri_bump_07_b.png,1,36,76,6,"[0, 1]",right,1,19,26,f,y,y,2019_Jul_16_1218,2AFC_task,59.94186838000393,
stimuli/hdri_light_09_a.png,stimuli/hdri_light_09_b.png,1,37,77,18,"[1, 0]",right,0,19,26,f,y,y,2019_Jul_16_1218,2AFC_task,59.94186838000393,
stimuli/lamp_bump_08_a.png,stimuli/lamp_bump_08_b.png,1,38,78,27,"[1, 0]",left,1,19,26,f,y,y,2019_Jul_16_1218,2AFC_task,59.94186838000393,
stimuli/hdri_bump_10_a.png,stimuli/hdri_bump_10_b.png,1,39,79,9,"[0, 1]",right,1,19,26,f,y,y,2019_Jul_16_1218,2AFC_task,59.94186838000393,
stimuli/hdri_light_09_a.png,stimuli/hdri_light_09_b.png,2,0,80,18,"[1, 0]",right,0,19,26,f,y,y,2019_Jul_16_1218,2AFC_task,59.94186838000393,
stimuli/lamp_bump_05_a.png,stimuli/lamp_bump_05_b.png,2,1,81,24,"[1, 0]",left,1,19,26,f,y,y,2019_Jul_16_1218,2AFC_task,59.94186838000393,
stimuli/hdri_bump_01_a.png,stimuli/hdri_bump_01_b.png,2,2,82,0,"[1, 0]",left,1,19,26,f,y,y,2019_Jul_16_1218,2AFC_task,59.94186838000393,
stimuli/hdri_bump_06_a.png,stimuli/hdri_bump_06_b.png,2,3,83,5,"[1, 0]",left,1,19,26,f,y,y,2019_Jul_16_1218,2AFC_task,59.94186838000393,
stimuli/hdri_bump_08_a.png,stimuli/hdri_bump_08_b.png,2,4,84,7,"[0, 1]",right,1,19,26,f,y,y,2019_Jul_16_1218,2AFC_task,59.94186838000393,
stimuli/hdri_light_02_a.png,stimuli/hdri_light_02_b.png,2,5,85,11,"[0, 1]",left,0,19,26,f,y,y,2019_Jul_16_1218,2AFC_task,59.94186838000393,
stimuli/lamp_light_10_a.png,stimuli/lamp_light_10_b.png,2,6,86,39,"[0, 1]",right,1,19,26,f,y,y,2019_Jul_16_1218,2AFC_task,59.94186838000393,
stimuli/lamp_light_04_a.png,stimuli/lamp_light_04_b.png,2,7,87,33,"[1, 0]",left,1,19,26,f,y,y,2019_Jul_16_1218,2AFC_task,59.94186838000393,
stimuli/lamp_bump_03_a.png,stimuli/lamp_bump_03_b.png,2,8,88,22,"[0, 1]",right,1,19,26,f,y,y,2019_Jul_16_1218,2AFC_task,59.94186838000393,
stimuli/hdri_bump_03_a.png,stimuli/hdri_bump_03_b.png,2,9,89,2,"[1, 0]",left,1,19,26,f,y,y,2019_Jul_16_1218,2AFC_task,59.94186838000393,
stimuli/lamp_light_05_a.png,stimuli/lamp_light_05_b.png,2,10,90,34,"[0, 1]",right,1,19,26,f,y,y,2019_Jul_16_1218,2AFC_task,59.94186838000393,
stimuli/lamp_bump_02_a.png,stimuli/lamp_bump_02_b.png,2,11,91,21,"[1, 0]",left,1,19,26,f,y,y,2019_Jul_16_1218,2AFC_task,59.94186838000393,
stimuli/lamp_light_09_a.png,stimuli/lamp_light_09_b.png,2,12,92,38,"[0, 1]",right,1,19,26,f,y,y,2019_Jul_16_1218,2AFC_task,59.94186838000393,
stimuli/hdri_light_07_a.png,stimuli/hdri_light_07_b.png,2,13,93,16,"[1, 0]",left,1,19,26,f,y,y,2019_Jul_16_1218,2AFC_task,59.94186838000393,
stimuli/hdri_light_01_a.png,stimuli/hdri_light_01_b.png,2,14,94,10,"[1, 0]",right,0,19,26,f,y,y,2019_Jul_16_1218,2AFC_task,59.94186838000393,
stimuli/lamp_bump_10_a.png,stimuli/lamp_bump_10_b.png,2,15,95,29,"[0, 1]",right,1,19,26,f,y,y,2019_Jul_16_1218,2AFC_task,59.94186838000393,
stimuli/lamp_light_03_a.png,stimuli/lamp_light_03_b.png,2,16,96,32,"[0, 1]",right,1,19,26,f,y,y,2019_Jul_16_1218,2AFC_task,59.94186838000393,
stimuli/hdri_bump_10_a.png,stimuli/hdri_bump_10_b.png,2,17,97,9,"[0, 1]",right,1,19,26,f,y,y,2019_Jul_16_1218,2AFC_task,59.94186838000393,
stimuli/hdri_bump_07_a.png,stimuli/hdri_bump_07_b.png,2,18,98,6,"[1, 0]",left,1,19,26,f,y,y,2019_Jul_16_1218,2AFC_task,59.94186838000393,
stimuli/lamp_bump_06_a.png,stimuli/lamp_bump_06_b.png,2,19,99,25,"[0, 1]",right,1,19,26,f,y,y,2019_Jul_16_1218,2AFC_task,59.94186838000393,
stimuli/hdri_light_08_a.png,stimuli/hdri_light_08_b.png,2,20,100,17,"[0, 1]",right,1,19,26,f,y,y,2019_Jul_16_1218,2AFC_task,59.94186838000393,
stimuli/lamp_light_06_a.png,stimuli/lamp_light_06_b.png,2,21,101,35,"[0, 1]",right,1,19,26,f,y,y,2019_Jul_16_1218,2AFC_task,59.94186838000393,
stimuli/hdri_bump_05_a.png,stimuli/hdri_bump_05_b.png,2,22,102,4,"[0, 1]",right,1,19,26,f,y,y,2019_Jul_16_1218,2AFC_task,59.94186838000393,
stimuli/lamp_bump_08_a.png,stimuli/lamp_bump_08_b.png,2,23,103,27,"[1, 0]",left,1,19,26,f,y,y,2019_Jul_16_1218,2AFC_task,59.94186838000393,
stimuli/lamp_light_07_a.png,stimuli/lamp_light_07_b.png,2,24,104,36,"[1, 0]",left,1,19,26,f,y,y,2019_Jul_16_1218,2AFC_task,59.94186838000393,
stimuli/hdri_bump_09_a.png,stimuli/hdri_bump_09_b.png,2,25,105,8,"[0, 1]",right,1,19,26,f,y,y,2019_Jul_16_1218,2AFC_task,59.94186838000393,
stimuli/hdri_bump_04_a.png,stimuli/hdri_bump_04_b.png,2,26,106,3,"[0, 1]",right,1,19,26,f,y,y,2019_Jul_16_1218,2AFC_task,59.94186838000393,
stimuli/lamp_light_08_a.png,stimuli/lamp_light_08_b.png,2,27,107,37,"[0, 1]",right,1,19,26,f,y,y,2019_Jul_16_1218,2AFC_task,59.94186838000393,
stimuli/lamp_bump_01_a.png,stimuli/lamp_bump_01_b.png,2,28,108,20,"[0, 1]",right,1,19,26,f,y,y,2019_Jul_16_1218,2AFC_task,59.94186838000393,
stimuli/lamp_light_02_a.png,stimuli/lamp_light_02_b.png,2,29,109,31,"[0, 1]",right,1,19,26,f,y,y,2019_Jul_16_1218,2AFC_task,59.94186838000393,
stimuli/hdri_light_05_a.png,stimuli/hdri_light_05_b.png,2,30,110,14,"[1, 0]",right,0,19,26,f,y,y,2019_Jul_16_1218,2AFC_task,59.94186838000393,
stimuli/lamp_bump_07_a.png,stimuli/lamp_bump_07_b.png,2,31,111,26,"[1, 0]",left,1,19,26,f,y,y,2019_Jul_16_1218,2AFC_task,59.94186838000393,
stimuli/lamp_light_01_a.png,stimuli/lamp_light_01_b.png,2,32,112,30,"[0, 1]",right,1,19,26,f,y,y,2019_Jul_16_1218,2AFC_task,59.94186838000393,
stimuli/hdri_light_10_a.png,stimuli/hdri_light_10_b.png,2,33,113,19,"[0, 1]",right,1,19,26,f,y,y,2019_Jul_16_1218,2AFC_task,59.94186838000393,
stimuli/lamp_bump_09_a.png,stimuli/lamp_bump_09_b.png,2,34,114,28,"[0, 1]",left,0,19,26,f,y,y,2019_Jul_16_1218,2AFC_task,59.94186838000393,
stimuli/hdri_light_06_a.png,stimuli/hdri_light_06_b.png,2,35,115,15,"[1, 0]",right,0,19,26,f,y,y,2019_Jul_16_1218,2AFC_task,59.94186838000393,
stimuli/lamp_bump_04_a.png,stimuli/lamp_bump_04_b.png,2,36,116,23,"[0, 1]",right,1,19,26,f,y,y,2019_Jul_16_1218,2AFC_task,59.94186838000393,
stimuli/hdri_light_04_a.png,stimuli/hdri_light_04_b.png,2,37,117,13,"[1, 0]",right,0,19,26,f,y,y,2019_Jul_16_1218,2AFC_task,59.94186838000393,
stimuli/hdri_bump_02_a.png,stimuli/hdri_bump_02_b.png,2,38,118,1,"[0, 1]",right,1,19,26,f,y,y,2019_Jul_16_1218,2AFC_task,59.94186838000393,
stimuli/hdri_light_03_a.png,stimuli/hdri_light_03_b.png,2,39,119,12,"[1, 0]",left,1,19,26,f,y,y,2019_Jul_16_1218,2AFC_task,59.94186838000393,
stimuli/hdri_light_02_a.png,stimuli/hdri_light_02_b.png,3,0,120,11,"[0, 1]",left,0,19,26,f,y,y,2019_Jul_16_1218,2AFC_task,59.94186838000393,
stimuli/hdri_light_10_a.png,stimuli/hdri_light_10_b.png,3,1,121,19,"[0, 1]",right,1,19,26,f,y,y,2019_Jul_16_1218,2AFC_task,59.94186838000393,
stimuli/lamp_bump_01_a.png,stimuli/lamp_bump_01_b.png,3,2,122,20,"[0, 1]",right,1,19,26,f,y,y,2019_Jul_16_1218,2AFC_task,59.94186838000393,
stimuli/hdri_light_05_a.png,stimuli/hdri_light_05_b.png,3,3,123,14,"[1, 0]",right,0,19,26,f,y,y,2019_Jul_16_1218,2AFC_task,59.94186838000393,
stimuli/lamp_bump_04_a.png,stimuli/lamp_bump_04_b.png,3,4,124,23,"[1, 0]",left,1,19,26,f,y,y,2019_Jul_16_1218,2AFC_task,59.94186838000393,
stimuli/hdri_bump_01_a.png,stimuli/hdri_bump_01_b.png,3,5,125,0,"[1, 0]",left,1,19,26,f,y,y,2019_Jul_16_1218,2AFC_task,59.94186838000393,
stimuli/hdri_bump_06_a.png,stimuli/hdri_bump_06_b.png,3,6,126,5,"[0, 1]",right,1,19,26,f,y,y,2019_Jul_16_1218,2AFC_task,59.94186838000393,
stimuli/hdri_bump_08_a.png,stimuli/hdri_bump_08_b.png,3,7,127,7,"[0, 1]",right,1,19,26,f,y,y,2019_Jul_16_1218,2AFC_task,59.94186838000393,
stimuli/lamp_bump_03_a.png,stimuli/lamp_bump_03_b.png,3,8,128,22,"[0, 1]",right,1,19,26,f,y,y,2019_Jul_16_1218,2AFC_task,59.94186838000393,
stimuli/lamp_light_05_a.png,stimuli/lamp_light_05_b.png,3,9,129,34,"[0, 1]",right,1,19,26,f,y,y,2019_Jul_16_1218,2AFC_task,59.94186838000393,
stimuli/hdri_bump_05_a.png,stimuli/hdri_bump_05_b.png,3,10,130,4,"[0, 1]",right,1,19,26,f,y,y,2019_Jul_16_1218,2AFC_task,59.94186838000393,
stimuli/lamp_light_08_a.png,stimuli/lamp_light_08_b.png,3,11,131,37,"[0, 1]",right,1,19,26,f,y,y,2019_Jul_16_1218,2AFC_task,59.94186838000393,
stimuli/hdri_light_06_a.png,stimuli/hdri_light_06_b.png,3,12,132,15,"[0, 1]",left,0,19,26,f,y,y,2019_Jul_16_1218,2AFC_task,59.94186838000393,
stimuli/hdri_light_03_a.png,stimuli/hdri_light_03_b.png,3,13,133,12,"[0, 1]",left,0,19,26,f,y,y,2019_Jul_16_1218,2AFC_task,59.94186838000393,
stimuli/lamp_bump_07_a.png,stimuli/lamp_bump_07_b.png,3,14,134,26,"[0, 1]",right,1,19,26,f,y,y,2019_Jul_16_1218,2AFC_task,59.94186838000393,
stimuli/lamp_light_02_a.png,stimuli/lamp_light_02_b.png,3,15,135,31,"[1, 0]",left,1,19,26,f,y,y,2019_Jul_16_1218,2AFC_task,59.94186838000393,
stimuli/lamp_light_01_a.png,stimuli/lamp_light_01_b.png,3,16,136,30,"[0, 1]",right,1,19,26,f,y,y,2019_Jul_16_1218,2AFC_task,59.94186838000393,
stimuli/lamp_light_03_a.png,stimuli/lamp_light_03_b.png,3,17,137,32,"[0, 1]",right,1,19,26,f,y,y,2019_Jul_16_1218,2AFC_task,59.94186838000393,
stimuli/hdri_bump_03_a.png,stimuli/hdri_bump_03_b.png,3,18,138,2,"[1, 0]",left,1,19,26,f,y,y,2019_Jul_16_1218,2AFC_task,59.94186838000393,
stimuli/lamp_bump_05_a.png,stimuli/lamp_bump_05_b.png,3,19,139,24,"[0, 1]",right,1,19,26,f,y,y,2019_Jul_16_1218,2AFC_task,59.94186838000393,
stimuli/hdri_bump_04_a.png,stimuli/hdri_bump_04_b.png,3,20,140,3,"[0, 1]",right,1,19,26,f,y,y,2019_Jul_16_1218,2AFC_task,59.94186838000393,
stimuli/hdri_bump_10_a.png,stimuli/hdri_bump_10_b.png,3,21,141,9,"[0, 1]",right,1,19,26,f,y,y,2019_Jul_16_1218,2AFC_task,59.94186838000393,
stimuli/lamp_light_04_a.png,stimuli/lamp_light_04_b.png,3,22,142,33,"[1, 0]",left,1,19,26,f,y,y,2019_Jul_16_1218,2AFC_task,59.94186838000393,
stimuli/hdri_light_09_a.png,stimuli/hdri_light_09_b.png,3,23,143,18,"[1, 0]",right,0,19,26,f,y,y,2019_Jul_16_1218,2AFC_task,59.94186838000393,
stimuli/hdri_light_08_a.png,stimuli/hdri_light_08_b.png,3,24,144,17,"[0, 1]",right,1,19,26,f,y,y,2019_Jul_16_1218,2AFC_task,59.94186838000393,
stimuli/lamp_light_09_a.png,stimuli/lamp_light_09_b.png,3,25,145,38,"[1, 0]",left,1,19,26,f,y,y,2019_Jul_16_1218,2AFC_task,59.94186838000393,
stimuli/hdri_light_07_a.png,stimuli/hdri_light_07_b.png,3,26,146,16,"[0, 1]",right,1,19,26,f,y,y,2019_Jul_16_1218,2AFC_task,59.94186838000393,
stimuli/lamp_bump_09_a.png,stimuli/lamp_bump_09_b.png,3,27,147,28,"[0, 1]",left,0,19,26,f,y,y,2019_Jul_16_1218,2AFC_task,59.94186838000393,
stimuli/hdri_light_04_a.png,stimuli/hdri_light_04_b.png,3,28,148,13,"[1, 0]",right,0,19,26,f,y,y,2019_Jul_16_1218,2AFC_task,59.94186838000393,
stimuli/lamp_bump_06_a.png,stimuli/lamp_bump_06_b.png,3,29,149,25,"[0, 1]",right,1,19,26,f,y,y,2019_Jul_16_1218,2AFC_task,59.94186838000393,
stimuli/lamp_light_06_a.png,stimuli/lamp_light_06_b.png,3,30,150,35,"[0, 1]",right,1,19,26,f,y,y,2019_Jul_16_1218,2AFC_task,59.94186838000393,
stimuli/lamp_bump_08_a.png,stimuli/lamp_bump_08_b.png,3,31,151,27,"[0, 1]",right,1,19,26,f,y,y,2019_Jul_16_1218,2AFC_task,59.94186838000393,
stimuli/hdri_light_01_a.png,stimuli/hdri_light_01_b.png,3,32,152,10,"[1, 0]",right,0,19,26,f,y,y,2019_Jul_16_1218,2AFC_task,59.94186838000393,
stimuli/lamp_bump_10_a.png,stimuli/lamp_bump_10_b.png,3,33,153,29,"[1, 0]",left,1,19,26,f,y,y,2019_Jul_16_1218,2AFC_task,59.94186838000393,
stimuli/lamp_light_07_a.png,stimuli/lamp_light_07_b.png,3,34,154,36,"[0, 1]",right,1,19,26,f,y,y,2019_Jul_16_1218,2AFC_task,59.94186838000393,
stimuli/lamp_light_10_a.png,stimuli/lamp_light_10_b.png,3,35,155,39,"[1, 0]",left,1,19,26,f,y,y,2019_Jul_16_1218,2AFC_task,59.94186838000393,
stimuli/hdri_bump_07_a.png,stimuli/hdri_bump_07_b.png,3,36,156,6,"[1, 0]",left,1,19,26,f,y,y,2019_Jul_16_1218,2AFC_task,59.94186838000393,
stimuli/hdri_bump_02_a.png,stimuli/hdri_bump_02_b.png,3,37,157,1,"[1, 0]",left,1,19,26,f,y,y,2019_Jul_16_1218,2AFC_task,59.94186838000393,
stimuli/lamp_bump_02_a.png,stimuli/lamp_bump_02_b.png,3,38,158,21,"[0, 1]",right,1,19,26,f,y,y,2019_Jul_16_1218,2AFC_task,59.94186838000393,
stimuli/hdri_bump_09_a.png,stimuli/hdri_bump_09_b.png,3,39,159,8,"[1, 0]",left,1,19,26,f,y,y,2019_Jul_16_1218,2AFC_task,59.94186838000393,
stimuli/lamp_light_06_a.png,stimuli/lamp_light_06_b.png,4,0,160,35,"[1, 0]",left,1,19,26,f,y,y,2019_Jul_16_1218,2AFC_task,59.94186838000393,
stimuli/lamp_light_01_a.png,stimuli/lamp_light_01_b.png,4,1,161,30,"[1, 0]",left,1,19,26,f,y,y,2019_Jul_16_1218,2AFC_task,59.94186838000393,
stimuli/lamp_bump_04_a.png,stimuli/lamp_bump_04_b.png,4,2,162,23,"[0, 1]",right,1,19,26,f,y,y,2019_Jul_16_1218,2AFC_task,59.94186838000393,
stimuli/lamp_bump_07_a.png,stimuli/lamp_bump_07_b.png,4,3,163,26,"[1, 0]",right,0,19,26,f,y,y,2019_Jul_16_1218,2AFC_task,59.94186838000393,
stimuli/lamp_bump_08_a.png,stimuli/lamp_bump_08_b.png,4,4,164,27,"[1, 0]",right,0,19,26,f,y,y,2019_Jul_16_1218,2AFC_task,59.94186838000393,
stimuli/hdri_bump_01_a.png,stimuli/hdri_bump_01_b.png,4,5,165,0,"[1, 0]",left,1,19,26,f,y,y,2019_Jul_16_1218,2AFC_task,59.94186838000393,
stimuli/hdri_light_03_a.png,stimuli/hdri_light_03_b.png,4,6,166,12,"[0, 1]",left,0,19,26,f,y,y,2019_Jul_16_1218,2AFC_task,59.94186838000393,
stimuli/hdri_light_05_a.png,stimuli/hdri_light_05_b.png,4,7,167,14,"[0, 1]",left,0,19,26,f,y,y,2019_Jul_16_1218,2AFC_task,59.94186838000393,
stimuli/lamp_light_04_a.png,stimuli/lamp_light_04_b.png,4,8,168,33,"[1, 0]",left,1,19,26,f,y,y,2019_Jul_16_1218,2AFC_task,59.94186838000393,
stimuli/hdri_light_02_a.png,stimuli/hdri_light_02_b.png,4,9,169,11,"[0, 1]",left,0,19,26,f,y,y,2019_Jul_16_1218,2AFC_task,59.94186838000393,
stimuli/lamp_light_07_a.png,stimuli/lamp_light_07_b.png,4,10,170,36,"[1, 0]",left,1,19,26,f,y,y,2019_Jul_16_1218,2AFC_task,59.94186838000393,
stimuli/hdri_bump_05_a.png,stimuli/hdri_bump_05_b.png,4,11,171,4,"[1, 0]",left,1,19,26,f,y,y,2019_Jul_16_1218,2AFC_task,59.94186838000393,
stimuli/hdri_bump_08_a.png,stimuli/hdri_bump_08_b.png,4,12,172,7,"[1, 0]",left,1,19,26,f,y,y,2019_Jul_16_1218,2AFC_task,59.94186838000393,
stimuli/hdri_light_04_a.png,stimuli/hdri_light_04_b.png,4,13,173,13,"[0, 1]",right,1,19,26,f,y,y,2019_Jul_16_1218,2AFC_task,59.94186838000393,
stimuli/lamp_bump_06_a.png,stimuli/lamp_bump_06_b.png,4,14,174,25,"[0, 1]",left,0,19,26,f,y,y,2019_Jul_16_1218,2AFC_task,59.94186838000393,
stimuli/hdri_light_06_a.png,stimuli/hdri_light_06_b.png,4,15,175,15,"[0, 1]",left,0,19,26,f,y,y,2019_Jul_16_1218,2AFC_task,59.94186838000393,
stimuli/lamp_bump_05_a.png,stimuli/lamp_bump_05_b.png,4,16,176,24,"[0, 1]",right,1,19,26,f,y,y,2019_Jul_16_1218,2AFC_task,59.94186838000393,
stimuli/hdri_bump_04_a.png,stimuli/hdri_bump_04_b.png,4,17,177,3,"[1, 0]",left,1,19,26,f,y,y,2019_Jul_16_1218,2AFC_task,59.94186838000393,
stimuli/lamp_bump_02_a.png,stimuli/lamp_bump_02_b.png,4,18,178,21,"[0, 1]",right,1,19,26,f,y,y,2019_Jul_16_1218,2AFC_task,59.94186838000393,
stimuli/hdri_light_10_a.png,stimuli/hdri_light_10_b.png,4,19,179,19,"[0, 1]",right,1,19,26,f,y,y,2019_Jul_16_1218,2AFC_task,59.94186838000393,
stimuli/hdri_light_01_a.png,stimuli/hdri_light_01_b.png,4,20,180,10,"[0, 1]",left,0,19,26,f,y,y,2019_Jul_16_1218,2AFC_task,59.94186838000393,
stimuli/lamp_bump_10_a.png,stimuli/lamp_bump_10_b.png,4,21,181,29,"[0, 1]",right,1,19,26,f,y,y,2019_Jul_16_1218,2AFC_task,59.94186838000393,
stimuli/lamp_light_02_a.png,stimuli/lamp_light_02_b.png,4,22,182,31,"[0, 1]",right,1,19,26,f,y,y,2019_Jul_16_1218,2AFC_task,59.94186838000393,
stimuli/hdri_bump_07_a.png,stimuli/hdri_bump_07_b.png,4,23,183,6,"[0, 1]",right,1,19,26,f,y,y,2019_Jul_16_1218,2AFC_task,59.94186838000393,
stimuli/hdri_bump_03_a.png,stimuli/hdri_bump_03_b.png,4,24,184,2,"[1, 0]",left,1,19,26,f,y,y,2019_Jul_16_1218,2AFC_task,59.94186838000393,
stimuli/lamp_light_05_a.png,stimuli/lamp_light_05_b.png,4,25,185,34,"[0, 1]",right,1,19,26,f,y,y,2019_Jul_16_1218,2AFC_task,59.94186838000393,
stimuli/lamp_bump_01_a.png,stimuli/lamp_bump_01_b.png,4,26,186,20,"[0, 1]",right,1,19,26,f,y,y,2019_Jul_16_1218,2AFC_task,59.94186838000393,
stimuli/hdri_light_09_a.png,stimuli/hdri_light_09_b.png,4,27,187,18,"[1, 0]",right,0,19,26,f,y,y,2019_Jul_16_1218,2AFC_task,59.94186838000393,
stimuli/hdri_light_07_a.png,stimuli/hdri_light_07_b.png,4,28,188,16,"[0, 1]",right,1,19,26,f,y,y,2019_Jul_16_1218,2AFC_task,59.94186838000393,
stimuli/hdri_bump_10_a.png,stimuli/hdri_bump_10_b.png,4,29,189,9,"[1, 0]",left,1,19,26,f,y,y,2019_Jul_16_1218,2AFC_task,59.94186838000393,
stimuli/lamp_light_09_a.png,stimuli/lamp_light_09_b.png,4,30,190,38,"[1, 0]",left,1,19,26,f,y,y,2019_Jul_16_1218,2AFC_task,59.94186838000393,
stimuli/hdri_bump_09_a.png,stimuli/hdri_bump_09_b.png,4,31,191,8,"[0, 1]",right,1,19,26,f,y,y,2019_Jul_16_1218,2AFC_task,59.94186838000393,
stimuli/hdri_bump_02_a.png,stimuli/hdri_bump_02_b.png,4,32,192,1,"[0, 1]",right,1,19,26,f,y,y,2019_Jul_16_1218,2AFC_task,59.94186838000393,
stimuli/hdri_bump_06_a.png,stimuli/hdri_bump_06_b.png,4,33,193,5,"[1, 0]",left,1,19,26,f,y,y,2019_Jul_16_1218,2AFC_task,59.94186838000393,
stimuli/lamp_light_08_a.png,stimuli/lamp_light_08_b.png,4,34,194,37,"[1, 0]",left,1,19,26,f,y,y,2019_Jul_16_1218,2AFC_task,59.94186838000393,
stimuli/lamp_light_03_a.png,stimuli/lamp_light_03_b.png,4,35,195,32,"[1, 0]",right,0,19,26,f,y,y,2019_Jul_16_1218,2AFC_task,59.94186838000393,
stimuli/lamp_bump_09_a.png,stimuli/lamp_bump_09_b.png,4,36,196,28,"[1, 0]",left,1,19,26,f,y,y,2019_Jul_16_1218,2AFC_task,59.94186838000393,
stimuli/lamp_bump_03_a.png,stimuli/lamp_bump_03_b.png,4,37,197,22,"[1, 0]",left,1,19,26,f,y,y,2019_Jul_16_1218,2AFC_task,59.94186838000393,
stimuli/hdri_light_08_a.png,stimuli/hdri_light_08_b.png,4,38,198,17,"[0, 1]",right,1,19,26,f,y,y,2019_Jul_16_1218,2AFC_task,59.94186838000393,
stimuli/lamp_light_10_a.png,stimuli/lamp_light_10_b.png,4,39,199,39,"[1, 0]",left,1,19,26,f,y,y,2019_Jul_16_1218,2AFC_task,59.94186838000393,
stimuli/hdri_light_03_a.png,stimuli/hdri_light_03_b.png,5,0,200,12,"[1, 0]",right,0,19,26,f,y,y,2019_Jul_16_1218,2AFC_task,59.94186838000393,
stimuli/lamp_light_03_a.png,stimuli/lamp_light_03_b.png,5,1,201,32,"[1, 0]",left,1,19,26,f,y,y,2019_Jul_16_1218,2AFC_task,59.94186838000393,
stimuli/lamp_bump_03_a.png,stimuli/lamp_bump_03_b.png,5,2,202,22,"[1, 0]",left,1,19,26,f,y,y,2019_Jul_16_1218,2AFC_task,59.94186838000393,
stimuli/lamp_light_09_a.png,stimuli/lamp_light_09_b.png,5,3,203,38,"[1, 0]",left,1,19,26,f,y,y,2019_Jul_16_1218,2AFC_task,59.94186838000393,
stimuli/hdri_light_09_a.png,stimuli/hdri_light_09_b.png,5,4,204,18,"[1, 0]",right,0,19,26,f,y,y,2019_Jul_16_1218,2AFC_task,59.94186838000393,
stimuli/lamp_light_01_a.png,stimuli/lamp_light_01_b.png,5,5,205,30,"[0, 1]",right,1,19,26,f,y,y,2019_Jul_16_1218,2AFC_task,59.94186838000393,
stimuli/lamp_light_07_a.png,stimuli/lamp_light_07_b.png,5,6,206,36,"[1, 0]",left,1,19,26,f,y,y,2019_Jul_16_1218,2AFC_task,59.94186838000393,
stimuli/hdri_bump_06_a.png,stimuli/hdri_bump_06_b.png,5,7,207,5,"[0, 1]",right,1,19,26,f,y,y,2019_Jul_16_1218,2AFC_task,59.94186838000393,
stimuli/lamp_bump_10_a.png,stimuli/lamp_bump_10_b.png,5,8,208,29,"[0, 1]",right,1,19,26,f,y,y,2019_Jul_16_1218,2AFC_task,59.94186838000393,
stimuli/lamp_bump_02_a.png,stimuli/lamp_bump_02_b.png,5,9,209,21,"[1, 0]",left,1,19,26,f,y,y,2019_Jul_16_1218,2AFC_task,59.94186838000393,
stimuli/hdri_bump_05_a.png,stimuli/hdri_bump_05_b.png,5,10,210,4,"[0, 1]",right,1,19,26,f,y,y,2019_Jul_16_1218,2AFC_task,59.94186838000393,
stimuli/lamp_bump_06_a.png,stimuli/lamp_bump_06_b.png,5,11,211,25,"[1, 0]",left,1,19,26,f,y,y,2019_Jul_16_1218,2AFC_task,59.94186838000393,
stimuli/hdri_light_01_a.png,stimuli/hdri_light_01_b.png,5,12,212,10,"[1, 0]",right,0,19,26,f,y,y,2019_Jul_16_1218,2AFC_task,59.94186838000393,
stimuli/hdri_light_04_a.png,stimuli/hdri_light_04_b.png,5,13,213,13,"[0, 1]",left,0,19,26,f,y,y,2019_Jul_16_1218,2AFC_task,59.94186838000393,
stimuli/hdri_light_06_a.png,stimuli/hdri_light_06_b.png,5,14,214,15,"[0, 1]",left,0,19,26,f,y,y,2019_Jul_16_1218,2AFC_task,59.94186838000393,
stimuli/lamp_light_02_a.png,stimuli/lamp_light_02_b.png,5,15,215,31,"[1, 0]",left,1,19,26,f,y,y,2019_Jul_16_1218,2AFC_task,59.94186838000393,
stimuli/lamp_light_08_a.png,stimuli/lamp_light_08_b.png,5,16,216,37,"[0, 1]",right,1,19,26,f,y,y,2019_Jul_16_1218,2AFC_task,59.94186838000393,
stimuli/hdri_light_08_a.png,stimuli/hdri_light_08_b.png,5,17,217,17,"[1, 0]",left,1,19,26,f,y,y,2019_Jul_16_1218,2AFC_task,59.94186838000393,
stimuli/hdri_light_05_a.png,stimuli/hdri_light_05_b.png,5,18,218,14,"[1, 0]",right,0,19,26,f,y,y,2019_Jul_16_1218,2AFC_task,59.94186838000393,
stimuli/hdri_light_07_a.png,stimuli/hdri_light_07_b.png,5,19,219,16,"[0, 1]",right,1,19,26,f,y,y,2019_Jul_16_1218,2AFC_task,59.94186838000393,
stimuli/lamp_light_05_a.png,stimuli/lamp_light_05_b.png,5,20,220,34,"[1, 0]",left,1,19,26,f,y,y,2019_Jul_16_1218,2AFC_task,59.94186838000393,
stimuli/lamp_bump_04_a.png,stimuli/lamp_bump_04_b.png,5,21,221,23,"[1, 0]",right,0,19,26,f,y,y,2019_Jul_16_1218,2AFC_task,59.94186838000393,
stimuli/hdri_light_10_a.png,stimuli/hdri_light_10_b.png,5,22,222,19,"[0, 1]",right,1,19,26,f,y,y,2019_Jul_16_1218,2AFC_task,59.94186838000393,
stimuli/hdri_bump_02_a.png,stimuli/hdri_bump_02_b.png,5,23,223,1,"[1, 0]",left,1,19,26,f,y,y,2019_Jul_16_1218,2AFC_task,59.94186838000393,
stimuli/lamp_bump_05_a.png,stimuli/lamp_bump_05_b.png,5,24,224,24,"[1, 0]",left,1,19,26,f,y,y,2019_Jul_16_1218,2AFC_task,59.94186838000393,
stimuli/hdri_light_02_a.png,stimuli/hdri_light_02_b.png,5,25,225,11,"[1, 0]",right,0,19,26,f,y,y,2019_Jul_16_1218,2AFC_task,59.94186838000393,
stimuli/hdri_bump_10_a.png,stimuli/hdri_bump_10_b.png,5,26,226,9,"[0, 1]",right,1,19,26,f,y,y,2019_Jul_16_1218,2AFC_task,59.94186838000393,
stimuli/hdri_bump_04_a.png,stimuli/hdri_bump_04_b.png,5,27,227,3,"[0, 1]",right,1,19,26,f,y,y,2019_Jul_16_1218,2AFC_task,59.94186838000393,
stimuli/lamp_bump_08_a.png,stimuli/lamp_bump_08_b.png,5,28,228,27,"[0, 1]",right,1,19,26,f,y,y,2019_Jul_16_1218,2AFC_task,59.94186838000393,
stimuli/lamp_bump_01_a.png,stimuli/lamp_bump_01_b.png,5,29,229,20,"[1, 0]",left,1,19,26,f,y,y,2019_Jul_16_1218,2AFC_task,59.94186838000393,
stimuli/lamp_bump_07_a.png,stimuli/lamp_bump_07_b.png,5,30,230,26,"[1, 0]",right,0,19,26,f,y,y,2019_Jul_16_1218,2AFC_task,59.94186838000393,
stimuli/hdri_bump_03_a.png,stimuli/hdri_bump_03_b.png,5,31,231,2,"[1, 0]",left,1,19,26,f,y,y,2019_Jul_16_1218,2AFC_task,59.94186838000393,
stimuli/lamp_light_04_a.png,stimuli/lamp_light_04_b.png,5,32,232,33,"[0, 1]",right,1,19,26,f,y,y,2019_Jul_16_1218,2AFC_task,59.94186838000393,
stimuli/lamp_light_06_a.png,stimuli/lamp_light_06_b.png,5,33,233,35,"[1, 0]",left,1,19,26,f,y,y,2019_Jul_16_1218,2AFC_task,59.94186838000393,
stimuli/lamp_light_10_a.png,stimuli/lamp_light_10_b.png,5,34,234,39,"[1, 0]",left,1,19,26,f,y,y,2019_Jul_16_1218,2AFC_task,59.94186838000393,
stimuli/hdri_bump_09_a.png,stimuli/hdri_bump_09_b.png,5,35,235,8,"[0, 1]",right,1,19,26,f,y,y,2019_Jul_16_1218,2AFC_task,59.94186838000393,
stimuli/hdri_bump_01_a.png,stimuli/hdri_bump_01_b.png,5,36,236,0,"[1, 0]",left,1,19,26,f,y,y,2019_Jul_16_1218,2AFC_task,59.94186838000393,
stimuli/hdri_bump_08_a.png,stimuli/hdri_bump_08_b.png,5,37,237,7,"[0, 1]",right,1,19,26,f,y,y,2019_Jul_16_1218,2AFC_task,59.94186838000393,
stimuli/hdri_bump_07_a.png,stimuli/hdri_bump_07_b.png,5,38,238,6,"[0, 1]",right,1,19,26,f,y,y,2019_Jul_16_1218,2AFC_task,59.94186838000393,
stimuli/lamp_bump_09_a.png,stimuli/lamp_bump_09_b.png,5,39,239,28,"[0, 1]",left,0,19,26,f,y,y,2019_Jul_16_1218,2AFC_task,59.94186838000393,
stimuli/lamp_light_08_a.png,stimuli/lamp_light_08_b.png,6,0,240,37,"[1, 0]",left,1,19,26,f,y,y,2019_Jul_16_1218,2AFC_task,59.94186838000393,
stimuli/hdri_bump_03_a.png,stimuli/hdri_bump_03_b.png,6,1,241,2,"[0, 1]",right,1,19,26,f,y,y,2019_Jul_16_1218,2AFC_task,59.94186838000393,
stimuli/lamp_light_01_a.png,stimuli/lamp_light_01_b.png,6,2,242,30,"[0, 1]",right,1,19,26,f,y,y,2019_Jul_16_1218,2AFC_task,59.94186838000393,
stimuli/hdri_bump_04_a.png,stimuli/hdri_bump_04_b.png,6,3,243,3,"[1, 0]",left,1,19,26,f,y,y,2019_Jul_16_1218,2AFC_task,59.94186838000393,
stimuli/lamp_bump_06_a.png,stimuli/lamp_bump_06_b.png,6,4,244,25,"[1, 0]",right,0,19,26,f,y,y,2019_Jul_16_1218,2AFC_task,59.94186838000393,
stimuli/lamp_light_05_a.png,stimuli/lamp_light_05_b.png,6,5,245,34,"[0, 1]",right,1,19,26,f,y,y,2019_Jul_16_1218,2AFC_task,59.94186838000393,
stimuli/lamp_light_06_a.png,stimuli/lamp_light_06_b.png,6,6,246,35,"[0, 1]",right,1,19,26,f,y,y,2019_Jul_16_1218,2AFC_task,59.94186838000393,
stimuli/hdri_light_01_a.png,stimuli/hdri_light_01_b.png,6,7,247,10,"[1, 0]",right,0,19,26,f,y,y,2019_Jul_16_1218,2AFC_task,59.94186838000393,
stimuli/hdri_light_04_a.png,stimuli/hdri_light_04_b.png,6,8,248,13,"[0, 1]",left,0,19,26,f,y,y,2019_Jul_16_1218,2AFC_task,59.94186838000393,
stimuli/hdri_light_03_a.png,stimuli/hdri_light_03_b.png,6,9,249,12,"[1, 0]",right,0,19,26,f,y,y,2019_Jul_16_1218,2AFC_task,59.94186838000393,
stimuli/hdri_bump_09_a.png,stimuli/hdri_bump_09_b.png,6,10,250,8,"[0, 1]",right,1,19,26,f,y,y,2019_Jul_16_1218,2AFC_task,59.94186838000393,
stimuli/hdri_light_02_a.png,stimuli/hdri_light_02_b.png,6,11,251,11,"[0, 1]",left,0,19,26,f,y,y,2019_Jul_16_1218,2AFC_task,59.94186838000393,
stimuli/hdri_bump_01_a.png,stimuli/hdri_bump_01_b.png,6,12,252,0,"[0, 1]",right,1,19,26,f,y,y,2019_Jul_16_1218,2AFC_task,59.94186838000393,
stimuli/hdri_bump_06_a.png,stimuli/hdri_bump_06_b.png,6,13,253,5,"[0, 1]",right,1,19,26,f,y,y,2019_Jul_16_1218,2AFC_task,59.94186838000393,
stimuli/hdri_light_07_a.png,stimuli/hdri_light_07_b.png,6,14,254,16,"[1, 0]",left,1,19,26,f,y,y,2019_Jul_16_1218,2AFC_task,59.94186838000393,
stimuli/hdri_light_05_a.png,stimuli/hdri_light_05_b.png,6,15,255,14,"[1, 0]",right,0,19,26,f,y,y,2019_Jul_16_1218,2AFC_task,59.94186838000393,
stimuli/lamp_light_03_a.png,stimuli/lamp_light_03_b.png,6,16,256,32,"[0, 1]",right,1,19,26,f,y,y,2019_Jul_16_1218,2AFC_task,59.94186838000393,
stimuli/hdri_light_09_a.png,stimuli/hdri_light_09_b.png,6,17,257,18,"[1, 0]",right,0,19,26,f,y,y,2019_Jul_16_1218,2AFC_task,59.94186838000393,
stimuli/lamp_light_04_a.png,stimuli/lamp_light_04_b.png,6,18,258,33,"[0, 1]",right,1,19,26,f,y,y,2019_Jul_16_1218,2AFC_task,59.94186838000393,
stimuli/lamp_light_09_a.png,stimuli/lamp_light_09_b.png,6,19,259,38,"[0, 1]",right,1,19,26,f,y,y,2019_Jul_16_1218,2AFC_task,59.94186838000393,
stimuli/lamp_bump_07_a.png,stimuli/lamp_bump_07_b.png,6,20,260,26,"[1, 0]",right,0,19,26,f,y,y,2019_Jul_16_1218,2AFC_task,59.94186838000393,
stimuli/lamp_bump_05_a.png,stimuli/lamp_bump_05_b.png,6,21,261,24,"[1, 0]",left,1,19,26,f,y,y,2019_Jul_16_1218,2AFC_task,59.94186838000393,
stimuli/lamp_bump_01_a.png,stimuli/lamp_bump_01_b.png,6,22,262,20,"[1, 0]",right,0,19,26,f,y,y,2019_Jul_16_1218,2AFC_task,59.94186838000393,
stimuli/hdri_light_10_a.png,stimuli/hdri_light_10_b.png,6,23,263,19,"[0, 1]",right,1,19,26,f,y,y,2019_Jul_16_1218,2AFC_task,59.94186838000393,
stimuli/lamp_light_10_a.png,stimuli/lamp_light_10_b.png,6,24,264,39,"[1, 0]",left,1,19,26,f,y,y,2019_Jul_16_1218,2AFC_task,59.94186838000393,
stimuli/lamp_bump_04_a.png,stimuli/lamp_bump_04_b.png,6,25,265,23,"[0, 1]",left,0,19,26,f,y,y,2019_Jul_16_1218,2AFC_task,59.94186838000393,
stimuli/lamp_bump_10_a.png,stimuli/lamp_bump_10_b.png,6,26,266,29,"[0, 1]",right,1,19,26,f,y,y,2019_Jul_16_1218,2AFC_task,59.94186838000393,
stimuli/hdri_light_06_a.png,stimuli/hdri_light_06_b.png,6,27,267,15,"[0, 1]",left,0,19,26,f,y,y,2019_Jul_16_1218,2AFC_task,59.94186838000393,
stimuli/lamp_bump_02_a.png,stimuli/lamp_bump_02_b.png,6,28,268,21,"[1, 0]",right,0,19,26,f,y,y,2019_Jul_16_1218,2AFC_task,59.94186838000393,
stimuli/hdri_bump_07_a.png,stimuli/hdri_bump_07_b.png,6,29,269,6,"[0, 1]",right,1,19,26,f,y,y,2019_Jul_16_1218,2AFC_task,59.94186838000393,
stimuli/lamp_bump_03_a.png,stimuli/lamp_bump_03_b.png,6,30,270,22,"[0, 1]",right,1,19,26,f,y,y,2019_Jul_16_1218,2AFC_task,59.94186838000393,
stimuli/hdri_bump_05_a.png,stimuli/hdri_bump_05_b.png,6,31,271,4,"[1, 0]",left,1,19,26,f,y,y,2019_Jul_16_1218,2AFC_task,59.94186838000393,
stimuli/hdri_bump_08_a.png,stimuli/hdri_bump_08_b.png,6,32,272,7,"[0, 1]",right,1,19,26,f,y,y,2019_Jul_16_1218,2AFC_task,59.94186838000393,
stimuli/hdri_bump_10_a.png,stimuli/hdri_bump_10_b.png,6,33,273,9,"[0, 1]",right,1,19,26,f,y,y,2019_Jul_16_1218,2AFC_task,59.94186838000393,
stimuli/hdri_bump_02_a.png,stimuli/hdri_bump_02_b.png,6,34,274,1,"[1, 0]",left,1,19,26,f,y,y,2019_Jul_16_1218,2AFC_task,59.94186838000393,
stimuli/lamp_light_02_a.png,stimuli/lamp_light_02_b.png,6,35,275,31,"[0, 1]",right,1,19,26,f,y,y,2019_Jul_16_1218,2AFC_task,59.94186838000393,
stimuli/hdri_light_08_a.png,stimuli/hdri_light_08_b.png,6,36,276,17,"[0, 1]",right,1,19,26,f,y,y,2019_Jul_16_1218,2AFC_task,59.94186838000393,
stimuli/lamp_bump_08_a.png,stimuli/lamp_bump_08_b.png,6,37,277,27,"[0, 1]",left,0,19,26,f,y,y,2019_Jul_16_1218,2AFC_task,59.94186838000393,
stimuli/lamp_light_07_a.png,stimuli/lamp_light_07_b.png,6,38,278,36,"[0, 1]",right,1,19,26,f,y,y,2019_Jul_16_1218,2AFC_task,59.94186838000393,
stimuli/lamp_bump_09_a.png,stimuli/lamp_bump_09_b.png,6,39,279,28,"[1, 0]",left,1,19,26,f,y,y,2019_Jul_16_1218,2AFC_task,59.94186838000393,
stimuli/hdri_light_10_a.png,stimuli/hdri_light_10_b.png,7,0,280,19,"[0, 1]",right,1,19,26,f,y,y,2019_Jul_16_1218,2AFC_task,59.94186838000393,
stimuli/hdri_light_05_a.png,stimuli/hdri_light_05_b.png,7,1,281,14,"[0, 1]",left,0,19,26,f,y,y,2019_Jul_16_1218,2AFC_task,59.94186838000393,
stimuli/hdri_light_07_a.png,stimuli/hdri_light_07_b.png,7,2,282,16,"[0, 1]",right,1,19,26,f,y,y,2019_Jul_16_1218,2AFC_task,59.94186838000393,
stimuli/lamp_bump_05_a.png,stimuli/lamp_bump_05_b.png,7,3,283,24,"[0, 1]",right,1,19,26,f,y,y,2019_Jul_16_1218,2AFC_task,59.94186838000393,
stimuli/lamp_light_01_a.png,stimuli/lamp_light_01_b.png,7,4,284,30,"[1, 0]",left,1,19,26,f,y,y,2019_Jul_16_1218,2AFC_task,59.94186838000393,
stimuli/hdri_bump_10_a.png,stimuli/hdri_bump_10_b.png,7,5,285,9,"[0, 1]",right,1,19,26,f,y,y,2019_Jul_16_1218,2AFC_task,59.94186838000393,
stimuli/hdri_bump_09_a.png,stimuli/hdri_bump_09_b.png,7,6,286,8,"[1, 0]",left,1,19,26,f,y,y,2019_Jul_16_1218,2AFC_task,59.94186838000393,
stimuli/hdri_bump_06_a.png,stimuli/hdri_bump_06_b.png,7,7,287,5,"[0, 1]",right,1,19,26,f,y,y,2019_Jul_16_1218,2AFC_task,59.94186838000393,
stimuli/hdri_bump_03_a.png,stimuli/hdri_bump_03_b.png,7,8,288,2,"[1, 0]",left,1,19,26,f,y,y,2019_Jul_16_1218,2AFC_task,59.94186838000393,
stimuli/hdri_light_06_a.png,stimuli/hdri_light_06_b.png,7,9,289,15,"[1, 0]",right,0,19,26,f,y,y,2019_Jul_16_1218,2AFC_task,59.94186838000393,
stimuli/hdri_light_01_a.png,stimuli/hdri_light_01_b.png,7,10,290,10,"[1, 0]",left,1,19,26,f,y,y,2019_Jul_16_1218,2AFC_task,59.94186838000393,
stimuli/hdri_light_03_a.png,stimuli/hdri_light_03_b.png,7,11,291,12,"[0, 1]",left,0,19,26,f,y,y,2019_Jul_16_1218,2AFC_task,59.94186838000393,
stimuli/hdri_light_04_a.png,stimuli/hdri_light_04_b.png,7,12,292,13,"[1, 0]",right,0,19,26,f,y,y,2019_Jul_16_1218,2AFC_task,59.94186838000393,
stimuli/hdri_bump_01_a.png,stimuli/hdri_bump_01_b.png,7,13,293,0,"[1, 0]",left,1,19,26,f,y,y,2019_Jul_16_1218,2AFC_task,59.94186838000393,
stimuli/lamp_bump_01_a.png,stimuli/lamp_bump_01_b.png,7,14,294,20,"[1, 0]",right,0,19,26,f,y,y,2019_Jul_16_1218,2AFC_task,59.94186838000393,
stimuli/hdri_bump_04_a.png,stimuli/hdri_bump_04_b.png,7,15,295,3,"[0, 1]",right,1,19,26,f,y,y,2019_Jul_16_1218,2AFC_task,59.94186838000393,
stimuli/lamp_light_02_a.png,stimuli/lamp_light_02_b.png,7,16,296,31,"[0, 1]",right,1,19,26,f,y,y,2019_Jul_16_1218,2AFC_task,59.94186838000393,
stimuli/lamp_bump_06_a.png,stimuli/lamp_bump_06_b.png,7,17,297,25,"[1, 0]",right,0,19,26,f,y,y,2019_Jul_16_1218,2AFC_task,59.94186838000393,
stimuli/lamp_bump_02_a.png,stimuli/lamp_bump_02_b.png,7,18,298,21,"[0, 1]",left,0,19,26,f,y,y,2019_Jul_16_1218,2AFC_task,59.94186838000393,
stimuli/lamp_light_07_a.png,stimuli/lamp_light_07_b.png,7,19,299,36,"[0, 1]",right,1,19,26,f,y,y,2019_Jul_16_1218,2AFC_task,59.94186838000393,
stimuli/lamp_bump_03_a.png,stimuli/lamp_bump_03_b.png,7,20,300,22,"[0, 1]",right,1,19,26,f,y,y,2019_Jul_16_1218,2AFC_task,59.94186838000393,
stimuli/lamp_bump_08_a.png,stimuli/lamp_bump_08_b.png,7,21,301,27,"[1, 0]",left,1,19,26,f,y,y,2019_Jul_16_1218,2AFC_task,59.94186838000393,
stimuli/lamp_light_10_a.png,stimuli/lamp_light_10_b.png,7,22,302,39,"[1, 0]",left,1,19,26,f,y,y,2019_Jul_16_1218,2AFC_task,59.94186838000393,
stimuli/hdri_bump_07_a.png,stimuli/hdri_bump_07_b.png,7,23,303,6,"[0, 1]",right,1,19,26,f,y,y,2019_Jul_16_1218,2AFC_task,59.94186838000393,
stimuli/hdri_light_02_a.png,stimuli/hdri_light_02_b.png,7,24,304,11,"[0, 1]",left,0,19,26,f,y,y,2019_Jul_16_1218,2AFC_task,59.94186838000393,
stimuli/hdri_bump_05_a.png,stimuli/hdri_bump_05_b.png,7,25,305,4,"[1, 0]",left,1,19,26,f,y,y,2019_Jul_16_1218,2AFC_task,59.94186838000393,
stimuli/lamp_light_03_a.png,stimuli/lamp_light_03_b.png,7,26,306,32,"[0, 1]",right,1,19,26,f,y,y,2019_Jul_16_1218,2AFC_task,59.94186838000393,
stimuli/lamp_bump_04_a.png,stimuli/lamp_bump_04_b.png,7,27,307,23,"[0, 1]",left,0,19,26,f,y,y,2019_Jul_16_1218,2AFC_task,59.94186838000393,
stimuli/lamp_light_06_a.png,stimuli/lamp_light_06_b.png,7,28,308,35,"[0, 1]",right,1,19,26,f,y,y,2019_Jul_16_1218,2AFC_task,59.94186838000393,
stimuli/lamp_light_08_a.png,stimuli/lamp_light_08_b.png,7,29,309,37,"[0, 1]",right,1,19,26,f,y,y,2019_Jul_16_1218,2AFC_task,59.94186838000393,
stimuli/lamp_bump_10_a.png,stimuli/lamp_bump_10_b.png,7,30,310,29,"[1, 0]",left,1,19,26,f,y,y,2019_Jul_16_1218,2AFC_task,59.94186838000393,
stimuli/hdri_bump_08_a.png,stimuli/hdri_bump_08_b.png,7,31,311,7,"[0, 1]",right,1,19,26,f,y,y,2019_Jul_16_1218,2AFC_task,59.94186838000393,
stimuli/lamp_light_04_a.png,stimuli/lamp_light_04_b.png,7,32,312,33,"[0, 1]",right,1,19,26,f,y,y,2019_Jul_16_1218,2AFC_task,59.94186838000393,
stimuli/hdri_light_09_a.png,stimuli/hdri_light_09_b.png,7,33,313,18,"[0, 1]",left,0,19,26,f,y,y,2019_Jul_16_1218,2AFC_task,59.94186838000393,
stimuli/lamp_light_05_a.png,stimuli/lamp_light_05_b.png,7,34,314,34,"[1, 0]",left,1,19,26,f,y,y,2019_Jul_16_1218,2AFC_task,59.94186838000393,
stimuli/hdri_light_08_a.png,stimuli/hdri_light_08_b.png,7,35,315,17,"[1, 0]",left,1,19,26,f,y,y,2019_Jul_16_1218,2AFC_task,59.94186838000393,
stimuli/lamp_bump_07_a.png,stimuli/lamp_bump_07_b.png,7,36,316,26,"[1, 0]",right,0,19,26,f,y,y,2019_Jul_16_1218,2AFC_task,59.94186838000393,
stimuli/lamp_light_09_a.png,stimuli/lamp_light_09_b.png,7,37,317,38,"[1, 0]",left,1,19,26,f,y,y,2019_Jul_16_1218,2AFC_task,59.94186838000393,
stimuli/hdri_bump_02_a.png,stimuli/hdri_bump_02_b.png,7,38,318,1,"[0, 1]",right,1,19,26,f,y,y,2019_Jul_16_1218,2AFC_task,59.94186838000393,
stimuli/lamp_bump_09_a.png,stimuli/lamp_bump_09_b.png,7,39,319,28,"[1, 0]",right,0,19,26,f,y,y,2019_Jul_16_1218,2AFC_task,59.94186838000393,
