stimOne,stimTwo,trials_1.thisRepN,trials_1.thisTrialN,trials_1.thisN,trials_1.thisIndex,presentation_positions,resp_key,corresponding_image,participant ID (two digits, e.g. 01),age,gender (m/f/-),normal or corrected-to-normal vision (y/n),normal colour vision (y/n),date,expName,frameRate,
stimuli/hdri_bump_02_a.png,stimuli/hdri_bump_02_b.png,0,0,0,1,"[0, 1]",right,1,20,20,f,y,y,2019_Jul_11_1442,2AFC_task,59.97850365232628,
stimuli/hdri_bump_09_a.png,stimuli/hdri_bump_09_b.png,0,1,1,8,"[1, 0]",right,0,20,20,f,y,y,2019_Jul_11_1442,2AFC_task,59.97850365232628,
stimuli/lamp_light_07_a.png,stimuli/lamp_light_07_b.png,0,2,2,36,"[0, 1]",left,0,20,20,f,y,y,2019_Jul_11_1442,2AFC_task,59.97850365232628,
stimuli/lamp_light_08_a.png,stimuli/lamp_light_08_b.png,0,3,3,37,"[0, 1]",right,1,20,20,f,y,y,2019_Jul_11_1442,2AFC_task,59.97850365232628,
stimuli/lamp_bump_08_a.png,stimuli/lamp_bump_08_b.png,0,4,4,27,"[0, 1]",right,1,20,20,f,y,y,2019_Jul_11_1442,2AFC_task,59.97850365232628,
stimuli/hdri_light_09_a.png,stimuli/hdri_light_09_b.png,0,5,5,18,"[0, 1]",right,1,20,20,f,y,y,2019_Jul_11_1442,2AFC_task,59.97850365232628,
stimuli/lamp_bump_01_a.png,stimuli/lamp_bump_01_b.png,0,6,6,20,"[1, 0]",right,0,20,20,f,y,y,2019_Jul_11_1442,2AFC_task,59.97850365232628,
stimuli/hdri_light_04_a.png,stimuli/hdri_light_04_b.png,0,7,7,13,"[0, 1]",left,0,20,20,f,y,y,2019_Jul_11_1442,2AFC_task,59.97850365232628,
stimuli/hdri_bump_04_a.png,stimuli/hdri_bump_04_b.png,0,8,8,3,"[0, 1]",right,1,20,20,f,y,y,2019_Jul_11_1442,2AFC_task,59.97850365232628,
stimuli/hdri_light_02_a.png,stimuli/hdri_light_02_b.png,0,9,9,11,"[0, 1]",left,0,20,20,f,y,y,2019_Jul_11_1442,2AFC_task,59.97850365232628,
stimuli/lamp_light_03_a.png,stimuli/lamp_light_03_b.png,0,10,10,32,"[0, 1]",left,0,20,20,f,y,y,2019_Jul_11_1442,2AFC_task,59.97850365232628,
stimuli/hdri_light_01_a.png,stimuli/hdri_light_01_b.png,0,11,11,10,"[1, 0]",right,0,20,20,f,y,y,2019_Jul_11_1442,2AFC_task,59.97850365232628,
stimuli/hdri_bump_01_a.png,stimuli/hdri_bump_01_b.png,0,12,12,0,"[0, 1]",left,0,20,20,f,y,y,2019_Jul_11_1442,2AFC_task,59.97850365232628,
stimuli/hdri_bump_08_a.png,stimuli/hdri_bump_08_b.png,0,13,13,7,"[1, 0]",left,1,20,20,f,y,y,2019_Jul_11_1442,2AFC_task,59.97850365232628,
stimuli/hdri_bump_06_a.png,stimuli/hdri_bump_06_b.png,0,14,14,5,"[0, 1]",right,1,20,20,f,y,y,2019_Jul_11_1442,2AFC_task,59.97850365232628,
stimuli/hdri_light_08_a.png,stimuli/hdri_light_08_b.png,0,15,15,17,"[0, 1]",right,1,20,20,f,y,y,2019_Jul_11_1442,2AFC_task,59.97850365232628,
stimuli/lamp_bump_04_a.png,stimuli/lamp_bump_04_b.png,0,16,16,23,"[1, 0]",left,1,20,20,f,y,y,2019_Jul_11_1442,2AFC_task,59.97850365232628,
stimuli/hdri_light_07_a.png,stimuli/hdri_light_07_b.png,0,17,17,16,"[1, 0]",left,1,20,20,f,y,y,2019_Jul_11_1442,2AFC_task,59.97850365232628,
stimuli/hdri_light_05_a.png,stimuli/hdri_light_05_b.png,0,18,18,14,"[0, 1]",left,0,20,20,f,y,y,2019_Jul_11_1442,2AFC_task,59.97850365232628,
stimuli/lamp_light_05_a.png,stimuli/lamp_light_05_b.png,0,19,19,34,"[0, 1]",left,0,20,20,f,y,y,2019_Jul_11_1442,2AFC_task,59.97850365232628,
stimuli/lamp_light_09_a.png,stimuli/lamp_light_09_b.png,0,20,20,38,"[1, 0]",right,0,20,20,f,y,y,2019_Jul_11_1442,2AFC_task,59.97850365232628,
stimuli/hdri_light_03_a.png,stimuli/hdri_light_03_b.png,0,21,21,12,"[1, 0]",left,1,20,20,f,y,y,2019_Jul_11_1442,2AFC_task,59.97850365232628,
stimuli/lamp_bump_07_a.png,stimuli/lamp_bump_07_b.png,0,22,22,26,"[0, 1]",left,0,20,20,f,y,y,2019_Jul_11_1442,2AFC_task,59.97850365232628,
stimuli/lamp_bump_06_a.png,stimuli/lamp_bump_06_b.png,0,23,23,25,"[0, 1]",left,0,20,20,f,y,y,2019_Jul_11_1442,2AFC_task,59.97850365232628,
stimuli/lamp_light_02_a.png,stimuli/lamp_light_02_b.png,0,24,24,31,"[1, 0]",right,0,20,20,f,y,y,2019_Jul_11_1442,2AFC_task,59.97850365232628,
stimuli/hdri_bump_03_a.png,stimuli/hdri_bump_03_b.png,0,25,25,2,"[1, 0]",left,1,20,20,f,y,y,2019_Jul_11_1442,2AFC_task,59.97850365232628,
stimuli/lamp_light_06_a.png,stimuli/lamp_light_06_b.png,0,26,26,35,"[0, 1]",left,0,20,20,f,y,y,2019_Jul_11_1442,2AFC_task,59.97850365232628,
stimuli/lamp_bump_09_a.png,stimuli/lamp_bump_09_b.png,0,27,27,28,"[1, 0]",left,1,20,20,f,y,y,2019_Jul_11_1442,2AFC_task,59.97850365232628,
stimuli/hdri_light_10_a.png,stimuli/hdri_light_10_b.png,0,28,28,19,"[0, 1]",left,0,20,20,f,y,y,2019_Jul_11_1442,2AFC_task,59.97850365232628,
stimuli/lamp_bump_05_a.png,stimuli/lamp_bump_05_b.png,0,29,29,24,"[1, 0]",left,1,20,20,f,y,y,2019_Jul_11_1442,2AFC_task,59.97850365232628,
stimuli/lamp_bump_02_a.png,stimuli/lamp_bump_02_b.png,0,30,30,21,"[0, 1]",right,1,20,20,f,y,y,2019_Jul_11_1442,2AFC_task,59.97850365232628,
stimuli/lamp_light_10_a.png,stimuli/lamp_light_10_b.png,0,31,31,39,"[1, 0]",right,0,20,20,f,y,y,2019_Jul_11_1442,2AFC_task,59.97850365232628,
stimuli/hdri_bump_05_a.png,stimuli/hdri_bump_05_b.png,0,32,32,4,"[1, 0]",left,1,20,20,f,y,y,2019_Jul_11_1442,2AFC_task,59.97850365232628,
stimuli/hdri_bump_10_a.png,stimuli/hdri_bump_10_b.png,0,33,33,9,"[1, 0]",left,1,20,20,f,y,y,2019_Jul_11_1442,2AFC_task,59.97850365232628,
stimuli/hdri_light_06_a.png,stimuli/hdri_light_06_b.png,0,34,34,15,"[1, 0]",left,1,20,20,f,y,y,2019_Jul_11_1442,2AFC_task,59.97850365232628,
stimuli/hdri_bump_07_a.png,stimuli/hdri_bump_07_b.png,0,35,35,6,"[1, 0]",left,1,20,20,f,y,y,2019_Jul_11_1442,2AFC_task,59.97850365232628,
stimuli/lamp_bump_10_a.png,stimuli/lamp_bump_10_b.png,0,36,36,29,"[0, 1]",right,1,20,20,f,y,y,2019_Jul_11_1442,2AFC_task,59.97850365232628,
stimuli/lamp_light_01_a.png,stimuli/lamp_light_01_b.png,0,37,37,30,"[0, 1]",left,0,20,20,f,y,y,2019_Jul_11_1442,2AFC_task,59.97850365232628,
stimuli/lamp_bump_03_a.png,stimuli/lamp_bump_03_b.png,0,38,38,22,"[0, 1]",right,1,20,20,f,y,y,2019_Jul_11_1442,2AFC_task,59.97850365232628,
stimuli/lamp_light_04_a.png,stimuli/lamp_light_04_b.png,0,39,39,33,"[0, 1]",left,0,20,20,f,y,y,2019_Jul_11_1442,2AFC_task,59.97850365232628,
stimuli/hdri_light_07_a.png,stimuli/hdri_light_07_b.png,1,0,40,16,"[1, 0]",left,1,20,20,f,y,y,2019_Jul_11_1442,2AFC_task,59.97850365232628,
stimuli/lamp_light_07_a.png,stimuli/lamp_light_07_b.png,1,1,41,36,"[0, 1]",left,0,20,20,f,y,y,2019_Jul_11_1442,2AFC_task,59.97850365232628,
stimuli/hdri_bump_07_a.png,stimuli/hdri_bump_07_b.png,1,2,42,6,"[1, 0]",left,1,20,20,f,y,y,2019_Jul_11_1442,2AFC_task,59.97850365232628,
stimuli/lamp_light_04_a.png,stimuli/lamp_light_04_b.png,1,3,43,33,"[1, 0]",right,0,20,20,f,y,y,2019_Jul_11_1442,2AFC_task,59.97850365232628,
stimuli/hdri_bump_05_a.png,stimuli/hdri_bump_05_b.png,1,4,44,4,"[0, 1]",right,1,20,20,f,y,y,2019_Jul_11_1442,2AFC_task,59.97850365232628,
stimuli/hdri_light_01_a.png,stimuli/hdri_light_01_b.png,1,5,45,10,"[1, 0]",right,0,20,20,f,y,y,2019_Jul_11_1442,2AFC_task,59.97850365232628,
stimuli/lamp_bump_09_a.png,stimuli/lamp_bump_09_b.png,1,6,46,28,"[1, 0]",left,1,20,20,f,y,y,2019_Jul_11_1442,2AFC_task,59.97850365232628,
stimuli/hdri_bump_01_a.png,stimuli/hdri_bump_01_b.png,1,7,47,0,"[1, 0]",left,1,20,20,f,y,y,2019_Jul_11_1442,2AFC_task,59.97850365232628,
stimuli/lamp_bump_06_a.png,stimuli/lamp_bump_06_b.png,1,8,48,25,"[1, 0]",left,1,20,20,f,y,y,2019_Jul_11_1442,2AFC_task,59.97850365232628,
stimuli/lamp_bump_10_a.png,stimuli/lamp_bump_10_b.png,1,9,49,29,"[0, 1]",right,1,20,20,f,y,y,2019_Jul_11_1442,2AFC_task,59.97850365232628,
stimuli/lamp_bump_04_a.png,stimuli/lamp_bump_04_b.png,1,10,50,23,"[1, 0]",left,1,20,20,f,y,y,2019_Jul_11_1442,2AFC_task,59.97850365232628,
stimuli/lamp_light_02_a.png,stimuli/lamp_light_02_b.png,1,11,51,31,"[1, 0]",right,0,20,20,f,y,y,2019_Jul_11_1442,2AFC_task,59.97850365232628,
stimuli/lamp_bump_08_a.png,stimuli/lamp_bump_08_b.png,1,12,52,27,"[1, 0]",left,1,20,20,f,y,y,2019_Jul_11_1442,2AFC_task,59.97850365232628,
stimuli/lamp_light_09_a.png,stimuli/lamp_light_09_b.png,1,13,53,38,"[0, 1]",left,0,20,20,f,y,y,2019_Jul_11_1442,2AFC_task,59.97850365232628,
stimuli/lamp_bump_01_a.png,stimuli/lamp_bump_01_b.png,1,14,54,20,"[0, 1]",right,1,20,20,f,y,y,2019_Jul_11_1442,2AFC_task,59.97850365232628,
stimuli/hdri_light_08_a.png,stimuli/hdri_light_08_b.png,1,15,55,17,"[1, 0]",left,1,20,20,f,y,y,2019_Jul_11_1442,2AFC_task,59.97850365232628,
stimuli/lamp_light_10_a.png,stimuli/lamp_light_10_b.png,1,16,56,39,"[0, 1]",right,1,20,20,f,y,y,2019_Jul_11_1442,2AFC_task,59.97850365232628,
stimuli/lamp_light_05_a.png,stimuli/lamp_light_05_b.png,1,17,57,34,"[1, 0]",right,0,20,20,f,y,y,2019_Jul_11_1442,2AFC_task,59.97850365232628,
stimuli/lamp_bump_07_a.png,stimuli/lamp_bump_07_b.png,1,18,58,26,"[1, 0]",left,1,20,20,f,y,y,2019_Jul_11_1442,2AFC_task,59.97850365232628,
stimuli/lamp_light_01_a.png,stimuli/lamp_light_01_b.png,1,19,59,30,"[0, 1]",left,0,20,20,f,y,y,2019_Jul_11_1442,2AFC_task,59.97850365232628,
stimuli/lamp_light_03_a.png,stimuli/lamp_light_03_b.png,1,20,60,32,"[1, 0]",right,0,20,20,f,y,y,2019_Jul_11_1442,2AFC_task,59.97850365232628,
stimuli/hdri_light_10_a.png,stimuli/hdri_light_10_b.png,1,21,61,19,"[1, 0]",left,1,20,20,f,y,y,2019_Jul_11_1442,2AFC_task,59.97850365232628,
stimuli/lamp_bump_02_a.png,stimuli/lamp_bump_02_b.png,1,22,62,21,"[0, 1]",right,1,20,20,f,y,y,2019_Jul_11_1442,2AFC_task,59.97850365232628,
stimuli/hdri_bump_06_a.png,stimuli/hdri_bump_06_b.png,1,23,63,5,"[1, 0]",left,1,20,20,f,y,y,2019_Jul_11_1442,2AFC_task,59.97850365232628,
stimuli/hdri_light_02_a.png,stimuli/hdri_light_02_b.png,1,24,64,11,"[1, 0]",left,1,20,20,f,y,y,2019_Jul_11_1442,2AFC_task,59.97850365232628,
stimuli/hdri_light_06_a.png,stimuli/hdri_light_06_b.png,1,25,65,15,"[1, 0]",left,1,20,20,f,y,y,2019_Jul_11_1442,2AFC_task,59.97850365232628,
stimuli/hdri_light_03_a.png,stimuli/hdri_light_03_b.png,1,26,66,12,"[0, 1]",left,0,20,20,f,y,y,2019_Jul_11_1442,2AFC_task,59.97850365232628,
stimuli/hdri_bump_10_a.png,stimuli/hdri_bump_10_b.png,1,27,67,9,"[1, 0]",left,1,20,20,f,y,y,2019_Jul_11_1442,2AFC_task,59.97850365232628,
stimuli/hdri_bump_04_a.png,stimuli/hdri_bump_04_b.png,1,28,68,3,"[0, 1]",right,1,20,20,f,y,y,2019_Jul_11_1442,2AFC_task,59.97850365232628,
stimuli/hdri_bump_03_a.png,stimuli/hdri_bump_03_b.png,1,29,69,2,"[1, 0]",left,1,20,20,f,y,y,2019_Jul_11_1442,2AFC_task,59.97850365232628,
stimuli/hdri_light_04_a.png,stimuli/hdri_light_04_b.png,1,30,70,13,"[1, 0]",left,1,20,20,f,y,y,2019_Jul_11_1442,2AFC_task,59.97850365232628,
stimuli/lamp_bump_05_a.png,stimuli/lamp_bump_05_b.png,1,31,71,24,"[1, 0]",left,1,20,20,f,y,y,2019_Jul_11_1442,2AFC_task,59.97850365232628,
stimuli/lamp_light_06_a.png,stimuli/lamp_light_06_b.png,1,32,72,35,"[1, 0]",right,0,20,20,f,y,y,2019_Jul_11_1442,2AFC_task,59.97850365232628,
stimuli/lamp_light_08_a.png,stimuli/lamp_light_08_b.png,1,33,73,37,"[0, 1]",left,0,20,20,f,y,y,2019_Jul_11_1442,2AFC_task,59.97850365232628,
stimuli/lamp_bump_03_a.png,stimuli/lamp_bump_03_b.png,1,34,74,22,"[0, 1]",right,1,20,20,f,y,y,2019_Jul_11_1442,2AFC_task,59.97850365232628,
stimuli/hdri_light_09_a.png,stimuli/hdri_light_09_b.png,1,35,75,18,"[0, 1]",left,0,20,20,f,y,y,2019_Jul_11_1442,2AFC_task,59.97850365232628,
stimuli/hdri_bump_02_a.png,stimuli/hdri_bump_02_b.png,1,36,76,1,"[1, 0]",right,0,20,20,f,y,y,2019_Jul_11_1442,2AFC_task,59.97850365232628,
stimuli/hdri_bump_09_a.png,stimuli/hdri_bump_09_b.png,1,37,77,8,"[0, 1]",left,0,20,20,f,y,y,2019_Jul_11_1442,2AFC_task,59.97850365232628,
stimuli/hdri_light_05_a.png,stimuli/hdri_light_05_b.png,1,38,78,14,"[1, 0]",right,0,20,20,f,y,y,2019_Jul_11_1442,2AFC_task,59.97850365232628,
stimuli/hdri_bump_08_a.png,stimuli/hdri_bump_08_b.png,1,39,79,7,"[0, 1]",left,0,20,20,f,y,y,2019_Jul_11_1442,2AFC_task,59.97850365232628,
stimuli/lamp_bump_07_a.png,stimuli/lamp_bump_07_b.png,2,0,80,26,"[0, 1]",right,1,20,20,f,y,y,2019_Jul_11_1442,2AFC_task,59.97850365232628,
stimuli/hdri_bump_02_a.png,stimuli/hdri_bump_02_b.png,2,1,81,1,"[1, 0]",left,1,20,20,f,y,y,2019_Jul_11_1442,2AFC_task,59.97850365232628,
stimuli/hdri_light_07_a.png,stimuli/hdri_light_07_b.png,2,2,82,16,"[0, 1]",right,1,20,20,f,y,y,2019_Jul_11_1442,2AFC_task,59.97850365232628,
stimuli/lamp_light_10_a.png,stimuli/lamp_light_10_b.png,2,3,83,39,"[1, 0]",right,0,20,20,f,y,y,2019_Jul_11_1442,2AFC_task,59.97850365232628,
stimuli/lamp_light_08_a.png,stimuli/lamp_light_08_b.png,2,4,84,37,"[1, 0]",right,0,20,20,f,y,y,2019_Jul_11_1442,2AFC_task,59.97850365232628,
stimuli/lamp_bump_05_a.png,stimuli/lamp_bump_05_b.png,2,5,85,24,"[0, 1]",right,1,20,20,f,y,y,2019_Jul_11_1442,2AFC_task,59.97850365232628,
stimuli/lamp_bump_03_a.png,stimuli/lamp_bump_03_b.png,2,6,86,22,"[0, 1]",right,1,20,20,f,y,y,2019_Jul_11_1442,2AFC_task,59.97850365232628,
stimuli/lamp_light_03_a.png,stimuli/lamp_light_03_b.png,2,7,87,32,"[1, 0]",right,0,20,20,f,y,y,2019_Jul_11_1442,2AFC_task,59.97850365232628,
stimuli/hdri_light_09_a.png,stimuli/hdri_light_09_b.png,2,8,88,18,"[1, 0]",left,1,20,20,f,y,y,2019_Jul_11_1442,2AFC_task,59.97850365232628,
stimuli/lamp_light_02_a.png,stimuli/lamp_light_02_b.png,2,9,89,31,"[0, 1]",left,0,20,20,f,y,y,2019_Jul_11_1442,2AFC_task,59.97850365232628,
stimuli/hdri_light_06_a.png,stimuli/hdri_light_06_b.png,2,10,90,15,"[1, 0]",left,1,20,20,f,y,y,2019_Jul_11_1442,2AFC_task,59.97850365232628,
stimuli/lamp_light_06_a.png,stimuli/lamp_light_06_b.png,2,11,91,35,"[1, 0]",right,0,20,20,f,y,y,2019_Jul_11_1442,2AFC_task,59.97850365232628,
stimuli/hdri_light_10_a.png,stimuli/hdri_light_10_b.png,2,12,92,19,"[0, 1]",left,0,20,20,f,y,y,2019_Jul_11_1442,2AFC_task,59.97850365232628,
stimuli/lamp_light_05_a.png,stimuli/lamp_light_05_b.png,2,13,93,34,"[1, 0]",left,1,20,20,f,y,y,2019_Jul_11_1442,2AFC_task,59.97850365232628,
stimuli/hdri_bump_05_a.png,stimuli/hdri_bump_05_b.png,2,14,94,4,"[0, 1]",right,1,20,20,f,y,y,2019_Jul_11_1442,2AFC_task,59.97850365232628,
stimuli/hdri_bump_07_a.png,stimuli/hdri_bump_07_b.png,2,15,95,6,"[1, 0]",left,1,20,20,f,y,y,2019_Jul_11_1442,2AFC_task,59.97850365232628,
stimuli/hdri_light_01_a.png,stimuli/hdri_light_01_b.png,2,16,96,10,"[1, 0]",right,0,20,20,f,y,y,2019_Jul_11_1442,2AFC_task,59.97850365232628,
stimuli/lamp_bump_10_a.png,stimuli/lamp_bump_10_b.png,2,17,97,29,"[1, 0]",left,1,20,20,f,y,y,2019_Jul_11_1442,2AFC_task,59.97850365232628,
stimuli/hdri_bump_10_a.png,stimuli/hdri_bump_10_b.png,2,18,98,9,"[1, 0]",left,1,20,20,f,y,y,2019_Jul_11_1442,2AFC_task,59.97850365232628,
stimuli/hdri_bump_09_a.png,stimuli/hdri_bump_09_b.png,2,19,99,8,"[0, 1]",right,1,20,20,f,y,y,2019_Jul_11_1442,2AFC_task,59.97850365232628,
stimuli/lamp_light_09_a.png,stimuli/lamp_light_09_b.png,2,20,100,38,"[0, 1]",right,1,20,20,f,y,y,2019_Jul_11_1442,2AFC_task,59.97850365232628,
stimuli/lamp_bump_09_a.png,stimuli/lamp_bump_09_b.png,2,21,101,28,"[0, 1]",left,0,20,20,f,y,y,2019_Jul_11_1442,2AFC_task,59.97850365232628,
stimuli/hdri_bump_06_a.png,stimuli/hdri_bump_06_b.png,2,22,102,5,"[0, 1]",right,1,20,20,f,y,y,2019_Jul_11_1442,2AFC_task,59.97850365232628,
stimuli/lamp_bump_08_a.png,stimuli/lamp_bump_08_b.png,2,23,103,27,"[1, 0]",left,1,20,20,f,y,y,2019_Jul_11_1442,2AFC_task,59.97850365232628,
stimuli/hdri_light_08_a.png,stimuli/hdri_light_08_b.png,2,24,104,17,"[1, 0]",left,1,20,20,f,y,y,2019_Jul_11_1442,2AFC_task,59.97850365232628,
stimuli/hdri_bump_03_a.png,stimuli/hdri_bump_03_b.png,2,25,105,2,"[1, 0]",left,1,20,20,f,y,y,2019_Jul_11_1442,2AFC_task,59.97850365232628,
stimuli/lamp_light_01_a.png,stimuli/lamp_light_01_b.png,2,26,106,30,"[0, 1]",right,1,20,20,f,y,y,2019_Jul_11_1442,2AFC_task,59.97850365232628,
stimuli/lamp_light_07_a.png,stimuli/lamp_light_07_b.png,2,27,107,36,"[0, 1]",left,0,20,20,f,y,y,2019_Jul_11_1442,2AFC_task,59.97850365232628,
stimuli/hdri_light_02_a.png,stimuli/hdri_light_02_b.png,2,28,108,11,"[0, 1]",left,0,20,20,f,y,y,2019_Jul_11_1442,2AFC_task,59.97850365232628,
stimuli/hdri_bump_01_a.png,stimuli/hdri_bump_01_b.png,2,29,109,0,"[1, 0]",left,1,20,20,f,y,y,2019_Jul_11_1442,2AFC_task,59.97850365232628,
stimuli/hdri_light_04_a.png,stimuli/hdri_light_04_b.png,2,30,110,13,"[1, 0]",right,0,20,20,f,y,y,2019_Jul_11_1442,2AFC_task,59.97850365232628,
stimuli/lamp_bump_02_a.png,stimuli/lamp_bump_02_b.png,2,31,111,21,"[1, 0]",right,0,20,20,f,y,y,2019_Jul_11_1442,2AFC_task,59.97850365232628,
stimuli/lamp_bump_04_a.png,stimuli/lamp_bump_04_b.png,2,32,112,23,"[1, 0]",left,1,20,20,f,y,y,2019_Jul_11_1442,2AFC_task,59.97850365232628,
stimuli/hdri_light_05_a.png,stimuli/hdri_light_05_b.png,2,33,113,14,"[1, 0]",right,0,20,20,f,y,y,2019_Jul_11_1442,2AFC_task,59.97850365232628,
stimuli/hdri_light_03_a.png,stimuli/hdri_light_03_b.png,2,34,114,12,"[0, 1]",right,1,20,20,f,y,y,2019_Jul_11_1442,2AFC_task,59.97850365232628,
stimuli/lamp_light_04_a.png,stimuli/lamp_light_04_b.png,2,35,115,33,"[1, 0]",left,1,20,20,f,y,y,2019_Jul_11_1442,2AFC_task,59.97850365232628,
stimuli/hdri_bump_08_a.png,stimuli/hdri_bump_08_b.png,2,36,116,7,"[1, 0]",right,0,20,20,f,y,y,2019_Jul_11_1442,2AFC_task,59.97850365232628,
stimuli/hdri_bump_04_a.png,stimuli/hdri_bump_04_b.png,2,37,117,3,"[1, 0]",right,0,20,20,f,y,y,2019_Jul_11_1442,2AFC_task,59.97850365232628,
stimuli/lamp_bump_06_a.png,stimuli/lamp_bump_06_b.png,2,38,118,25,"[1, 0]",right,0,20,20,f,y,y,2019_Jul_11_1442,2AFC_task,59.97850365232628,
stimuli/lamp_bump_01_a.png,stimuli/lamp_bump_01_b.png,2,39,119,20,"[1, 0]",right,0,20,20,f,y,y,2019_Jul_11_1442,2AFC_task,59.97850365232628,
stimuli/hdri_bump_06_a.png,stimuli/hdri_bump_06_b.png,3,0,120,5,"[0, 1]",right,1,20,20,f,y,y,2019_Jul_11_1442,2AFC_task,59.97850365232628,
stimuli/hdri_light_10_a.png,stimuli/hdri_light_10_b.png,3,1,121,19,"[1, 0]",right,0,20,20,f,y,y,2019_Jul_11_1442,2AFC_task,59.97850365232628,
stimuli/hdri_bump_07_a.png,stimuli/hdri_bump_07_b.png,3,2,122,6,"[1, 0]",right,0,20,20,f,y,y,2019_Jul_11_1442,2AFC_task,59.97850365232628,
stimuli/hdri_light_04_a.png,stimuli/hdri_light_04_b.png,3,3,123,13,"[1, 0]",right,0,20,20,f,y,y,2019_Jul_11_1442,2AFC_task,59.97850365232628,
stimuli/hdri_bump_10_a.png,stimuli/hdri_bump_10_b.png,3,4,124,9,"[0, 1]",right,1,20,20,f,y,y,2019_Jul_11_1442,2AFC_task,59.97850365232628,
stimuli/hdri_light_08_a.png,stimuli/hdri_light_08_b.png,3,5,125,17,"[1, 0]",left,1,20,20,f,y,y,2019_Jul_11_1442,2AFC_task,59.97850365232628,
stimuli/hdri_bump_05_a.png,stimuli/hdri_bump_05_b.png,3,6,126,4,"[1, 0]",left,1,20,20,f,y,y,2019_Jul_11_1442,2AFC_task,59.97850365232628,
stimuli/hdri_bump_04_a.png,stimuli/hdri_bump_04_b.png,3,7,127,3,"[1, 0]",left,1,20,20,f,y,y,2019_Jul_11_1442,2AFC_task,59.97850365232628,
stimuli/hdri_light_07_a.png,stimuli/hdri_light_07_b.png,3,8,128,16,"[0, 1]",right,1,20,20,f,y,y,2019_Jul_11_1442,2AFC_task,59.97850365232628,
stimuli/lamp_bump_09_a.png,stimuli/lamp_bump_09_b.png,3,9,129,28,"[0, 1]",right,1,20,20,f,y,y,2019_Jul_11_1442,2AFC_task,59.97850365232628,
stimuli/hdri_light_02_a.png,stimuli/hdri_light_02_b.png,3,10,130,11,"[0, 1]",right,1,20,20,f,y,y,2019_Jul_11_1442,2AFC_task,59.97850365232628,
stimuli/lamp_light_04_a.png,stimuli/lamp_light_04_b.png,3,11,131,33,"[1, 0]",right,0,20,20,f,y,y,2019_Jul_11_1442,2AFC_task,59.97850365232628,
stimuli/lamp_light_03_a.png,stimuli/lamp_light_03_b.png,3,12,132,32,"[0, 1]",right,1,20,20,f,y,y,2019_Jul_11_1442,2AFC_task,59.97850365232628,
stimuli/lamp_bump_07_a.png,stimuli/lamp_bump_07_b.png,3,13,133,26,"[0, 1]",left,0,20,20,f,y,y,2019_Jul_11_1442,2AFC_task,59.97850365232628,
stimuli/hdri_bump_08_a.png,stimuli/hdri_bump_08_b.png,3,14,134,7,"[0, 1]",right,1,20,20,f,y,y,2019_Jul_11_1442,2AFC_task,59.97850365232628,
stimuli/hdri_bump_09_a.png,stimuli/hdri_bump_09_b.png,3,15,135,8,"[0, 1]",right,1,20,20,f,y,y,2019_Jul_11_1442,2AFC_task,59.97850365232628,
stimuli/hdri_light_03_a.png,stimuli/hdri_light_03_b.png,3,16,136,12,"[1, 0]",left,1,20,20,f,y,y,2019_Jul_11_1442,2AFC_task,59.97850365232628,
stimuli/lamp_light_09_a.png,stimuli/lamp_light_09_b.png,3,17,137,38,"[0, 1]",right,1,20,20,f,y,y,2019_Jul_11_1442,2AFC_task,59.97850365232628,
stimuli/lamp_bump_04_a.png,stimuli/lamp_bump_04_b.png,3,18,138,23,"[1, 0]",left,1,20,20,f,y,y,2019_Jul_11_1442,2AFC_task,59.97850365232628,
stimuli/lamp_light_10_a.png,stimuli/lamp_light_10_b.png,3,19,139,39,"[1, 0]",right,0,20,20,f,y,y,2019_Jul_11_1442,2AFC_task,59.97850365232628,
stimuli/lamp_bump_03_a.png,stimuli/lamp_bump_03_b.png,3,20,140,22,"[0, 1]",right,1,20,20,f,y,y,2019_Jul_11_1442,2AFC_task,59.97850365232628,
stimuli/lamp_light_05_a.png,stimuli/lamp_light_05_b.png,3,21,141,34,"[1, 0]",right,0,20,20,f,y,y,2019_Jul_11_1442,2AFC_task,59.97850365232628,
stimuli/lamp_bump_06_a.png,stimuli/lamp_bump_06_b.png,3,22,142,25,"[0, 1]",right,1,20,20,f,y,y,2019_Jul_11_1442,2AFC_task,59.97850365232628,
stimuli/lamp_bump_08_a.png,stimuli/lamp_bump_08_b.png,3,23,143,27,"[1, 0]",left,1,20,20,f,y,y,2019_Jul_11_1442,2AFC_task,59.97850365232628,
stimuli/lamp_light_08_a.png,stimuli/lamp_light_08_b.png,3,24,144,37,"[1, 0]",right,0,20,20,f,y,y,2019_Jul_11_1442,2AFC_task,59.97850365232628,
stimuli/lamp_light_07_a.png,stimuli/lamp_light_07_b.png,3,25,145,36,"[0, 1]",right,1,20,20,f,y,y,2019_Jul_11_1442,2AFC_task,59.97850365232628,
stimuli/hdri_bump_02_a.png,stimuli/hdri_bump_02_b.png,3,26,146,1,"[0, 1]",right,1,20,20,f,y,y,2019_Jul_11_1442,2AFC_task,59.97850365232628,
stimuli/lamp_light_06_a.png,stimuli/lamp_light_06_b.png,3,27,147,35,"[1, 0]",right,0,20,20,f,y,y,2019_Jul_11_1442,2AFC_task,59.97850365232628,
stimuli/hdri_light_01_a.png,stimuli/hdri_light_01_b.png,3,28,148,10,"[0, 1]",left,0,20,20,f,y,y,2019_Jul_11_1442,2AFC_task,59.97850365232628,
stimuli/hdri_light_09_a.png,stimuli/hdri_light_09_b.png,3,29,149,18,"[0, 1]",right,1,20,20,f,y,y,2019_Jul_11_1442,2AFC_task,59.97850365232628,
stimuli/hdri_light_06_a.png,stimuli/hdri_light_06_b.png,3,30,150,15,"[1, 0]",left,1,20,20,f,y,y,2019_Jul_11_1442,2AFC_task,59.97850365232628,
stimuli/lamp_light_01_a.png,stimuli/lamp_light_01_b.png,3,31,151,30,"[0, 1]",left,0,20,20,f,y,y,2019_Jul_11_1442,2AFC_task,59.97850365232628,
stimuli/lamp_bump_01_a.png,stimuli/lamp_bump_01_b.png,3,32,152,20,"[1, 0]",right,0,20,20,f,y,y,2019_Jul_11_1442,2AFC_task,59.97850365232628,
stimuli/hdri_light_05_a.png,stimuli/hdri_light_05_b.png,3,33,153,14,"[0, 1]",left,0,20,20,f,y,y,2019_Jul_11_1442,2AFC_task,59.97850365232628,
stimuli/hdri_bump_03_a.png,stimuli/hdri_bump_03_b.png,3,34,154,2,"[0, 1]",right,1,20,20,f,y,y,2019_Jul_11_1442,2AFC_task,59.97850365232628,
stimuli/lamp_bump_10_a.png,stimuli/lamp_bump_10_b.png,3,35,155,29,"[0, 1]",right,1,20,20,f,y,y,2019_Jul_11_1442,2AFC_task,59.97850365232628,
stimuli/lamp_light_02_a.png,stimuli/lamp_light_02_b.png,3,36,156,31,"[1, 0]",right,0,20,20,f,y,y,2019_Jul_11_1442,2AFC_task,59.97850365232628,
stimuli/hdri_bump_01_a.png,stimuli/hdri_bump_01_b.png,3,37,157,0,"[0, 1]",right,1,20,20,f,y,y,2019_Jul_11_1442,2AFC_task,59.97850365232628,
stimuli/lamp_bump_05_a.png,stimuli/lamp_bump_05_b.png,3,38,158,24,"[0, 1]",right,1,20,20,f,y,y,2019_Jul_11_1442,2AFC_task,59.97850365232628,
stimuli/lamp_bump_02_a.png,stimuli/lamp_bump_02_b.png,3,39,159,21,"[0, 1]",right,1,20,20,f,y,y,2019_Jul_11_1442,2AFC_task,59.97850365232628,
stimuli/hdri_bump_06_a.png,stimuli/hdri_bump_06_b.png,4,0,160,5,"[0, 1]",right,1,20,20,f,y,y,2019_Jul_11_1442,2AFC_task,59.97850365232628,
stimuli/hdri_bump_07_a.png,stimuli/hdri_bump_07_b.png,4,1,161,6,"[0, 1]",right,1,20,20,f,y,y,2019_Jul_11_1442,2AFC_task,59.97850365232628,
stimuli/hdri_bump_08_a.png,stimuli/hdri_bump_08_b.png,4,2,162,7,"[0, 1]",right,1,20,20,f,y,y,2019_Jul_11_1442,2AFC_task,59.97850365232628,
stimuli/hdri_bump_10_a.png,stimuli/hdri_bump_10_b.png,4,3,163,9,"[1, 0]",left,1,20,20,f,y,y,2019_Jul_11_1442,2AFC_task,59.97850365232628,
stimuli/hdri_light_09_a.png,stimuli/hdri_light_09_b.png,4,4,164,18,"[1, 0]",left,1,20,20,f,y,y,2019_Jul_11_1442,2AFC_task,59.97850365232628,
stimuli/hdri_light_01_a.png,stimuli/hdri_light_01_b.png,4,5,165,10,"[0, 1]",left,0,20,20,f,y,y,2019_Jul_11_1442,2AFC_task,59.97850365232628,
stimuli/lamp_light_01_a.png,stimuli/lamp_light_01_b.png,4,6,166,30,"[0, 1]",left,0,20,20,f,y,y,2019_Jul_11_1442,2AFC_task,59.97850365232628,
stimuli/lamp_light_09_a.png,stimuli/lamp_light_09_b.png,4,7,167,38,"[0, 1]",left,0,20,20,f,y,y,2019_Jul_11_1442,2AFC_task,59.97850365232628,
stimuli/lamp_bump_04_a.png,stimuli/lamp_bump_04_b.png,4,8,168,23,"[0, 1]",right,1,20,20,f,y,y,2019_Jul_11_1442,2AFC_task,59.97850365232628,
stimuli/hdri_bump_09_a.png,stimuli/hdri_bump_09_b.png,4,9,169,8,"[1, 0]",left,1,20,20,f,y,y,2019_Jul_11_1442,2AFC_task,59.97850365232628,
stimuli/hdri_light_07_a.png,stimuli/hdri_light_07_b.png,4,10,170,16,"[0, 1]",right,1,20,20,f,y,y,2019_Jul_11_1442,2AFC_task,59.97850365232628,
stimuli/lamp_light_04_a.png,stimuli/lamp_light_04_b.png,4,11,171,33,"[1, 0]",right,0,20,20,f,y,y,2019_Jul_11_1442,2AFC_task,59.97850365232628,
stimuli/lamp_bump_08_a.png,stimuli/lamp_bump_08_b.png,4,12,172,27,"[0, 1]",right,1,20,20,f,y,y,2019_Jul_11_1442,2AFC_task,59.97850365232628,
stimuli/hdri_light_05_a.png,stimuli/hdri_light_05_b.png,4,13,173,14,"[1, 0]",right,0,20,20,f,y,y,2019_Jul_11_1442,2AFC_task,59.97850365232628,
stimuli/lamp_light_06_a.png,stimuli/lamp_light_06_b.png,4,14,174,35,"[0, 1]",right,1,20,20,f,y,y,2019_Jul_11_1442,2AFC_task,59.97850365232628,
stimuli/lamp_light_02_a.png,stimuli/lamp_light_02_b.png,4,15,175,31,"[1, 0]",right,0,20,20,f,y,y,2019_Jul_11_1442,2AFC_task,59.97850365232628,
stimuli/hdri_bump_05_a.png,stimuli/hdri_bump_05_b.png,4,16,176,4,"[0, 1]",right,1,20,20,f,y,y,2019_Jul_11_1442,2AFC_task,59.97850365232628,
stimuli/hdri_light_10_a.png,stimuli/hdri_light_10_b.png,4,17,177,19,"[0, 1]",left,0,20,20,f,y,y,2019_Jul_11_1442,2AFC_task,59.97850365232628,
stimuli/lamp_bump_10_a.png,stimuli/lamp_bump_10_b.png,4,18,178,29,"[1, 0]",left,1,20,20,f,y,y,2019_Jul_11_1442,2AFC_task,59.97850365232628,
stimuli/lamp_bump_03_a.png,stimuli/lamp_bump_03_b.png,4,19,179,22,"[1, 0]",left,1,20,20,f,y,y,2019_Jul_11_1442,2AFC_task,59.97850365232628,
stimuli/lamp_bump_01_a.png,stimuli/lamp_bump_01_b.png,4,20,180,20,"[1, 0]",left,1,20,20,f,y,y,2019_Jul_11_1442,2AFC_task,59.97850365232628,
stimuli/hdri_light_04_a.png,stimuli/hdri_light_04_b.png,4,21,181,13,"[1, 0]",right,0,20,20,f,y,y,2019_Jul_11_1442,2AFC_task,59.97850365232628,
stimuli/lamp_bump_06_a.png,stimuli/lamp_bump_06_b.png,4,22,182,25,"[0, 1]",right,1,20,20,f,y,y,2019_Jul_11_1442,2AFC_task,59.97850365232628,
stimuli/lamp_bump_09_a.png,stimuli/lamp_bump_09_b.png,4,23,183,28,"[0, 1]",right,1,20,20,f,y,y,2019_Jul_11_1442,2AFC_task,59.97850365232628,
stimuli/lamp_bump_02_a.png,stimuli/lamp_bump_02_b.png,4,24,184,21,"[1, 0]",left,1,20,20,f,y,y,2019_Jul_11_1442,2AFC_task,59.97850365232628,
stimuli/hdri_bump_04_a.png,stimuli/hdri_bump_04_b.png,4,25,185,3,"[0, 1]",right,1,20,20,f,y,y,2019_Jul_11_1442,2AFC_task,59.97850365232628,
stimuli/lamp_bump_07_a.png,stimuli/lamp_bump_07_b.png,4,26,186,26,"[0, 1]",right,1,20,20,f,y,y,2019_Jul_11_1442,2AFC_task,59.97850365232628,
stimuli/hdri_light_06_a.png,stimuli/hdri_light_06_b.png,4,27,187,15,"[1, 0]",left,1,20,20,f,y,y,2019_Jul_11_1442,2AFC_task,59.97850365232628,
stimuli/lamp_light_05_a.png,stimuli/lamp_light_05_b.png,4,28,188,34,"[1, 0]",right,0,20,20,f,y,y,2019_Jul_11_1442,2AFC_task,59.97850365232628,
stimuli/hdri_light_08_a.png,stimuli/hdri_light_08_b.png,4,29,189,17,"[0, 1]",right,1,20,20,f,y,y,2019_Jul_11_1442,2AFC_task,59.97850365232628,
stimuli/hdri_light_03_a.png,stimuli/hdri_light_03_b.png,4,30,190,12,"[1, 0]",left,1,20,20,f,y,y,2019_Jul_11_1442,2AFC_task,59.97850365232628,
stimuli/lamp_light_10_a.png,stimuli/lamp_light_10_b.png,4,31,191,39,"[1, 0]",right,0,20,20,f,y,y,2019_Jul_11_1442,2AFC_task,59.97850365232628,
stimuli/hdri_bump_03_a.png,stimuli/hdri_bump_03_b.png,4,32,192,2,"[1, 0]",left,1,20,20,f,y,y,2019_Jul_11_1442,2AFC_task,59.97850365232628,
stimuli/hdri_bump_02_a.png,stimuli/hdri_bump_02_b.png,4,33,193,1,"[1, 0]",left,1,20,20,f,y,y,2019_Jul_11_1442,2AFC_task,59.97850365232628,
stimuli/lamp_light_08_a.png,stimuli/lamp_light_08_b.png,4,34,194,37,"[0, 1]",left,0,20,20,f,y,y,2019_Jul_11_1442,2AFC_task,59.97850365232628,
stimuli/lamp_light_07_a.png,stimuli/lamp_light_07_b.png,4,35,195,36,"[1, 0]",right,0,20,20,f,y,y,2019_Jul_11_1442,2AFC_task,59.97850365232628,
stimuli/hdri_light_02_a.png,stimuli/hdri_light_02_b.png,4,36,196,11,"[0, 1]",left,0,20,20,f,y,y,2019_Jul_11_1442,2AFC_task,59.97850365232628,
stimuli/lamp_light_03_a.png,stimuli/lamp_light_03_b.png,4,37,197,32,"[1, 0]",right,0,20,20,f,y,y,2019_Jul_11_1442,2AFC_task,59.97850365232628,
stimuli/lamp_bump_05_a.png,stimuli/lamp_bump_05_b.png,4,38,198,24,"[0, 1]",right,1,20,20,f,y,y,2019_Jul_11_1442,2AFC_task,59.97850365232628,
stimuli/hdri_bump_01_a.png,stimuli/hdri_bump_01_b.png,4,39,199,0,"[0, 1]",left,0,20,20,f,y,y,2019_Jul_11_1442,2AFC_task,59.97850365232628,
stimuli/hdri_bump_07_a.png,stimuli/hdri_bump_07_b.png,5,0,200,6,"[0, 1]",left,0,20,20,f,y,y,2019_Jul_11_1442,2AFC_task,59.97850365232628,
stimuli/lamp_light_10_a.png,stimuli/lamp_light_10_b.png,5,1,201,39,"[1, 0]",right,0,20,20,f,y,y,2019_Jul_11_1442,2AFC_task,59.97850365232628,
stimuli/lamp_bump_07_a.png,stimuli/lamp_bump_07_b.png,5,2,202,26,"[0, 1]",left,0,20,20,f,y,y,2019_Jul_11_1442,2AFC_task,59.97850365232628,
stimuli/hdri_light_05_a.png,stimuli/hdri_light_05_b.png,5,3,203,14,"[1, 0]",right,0,20,20,f,y,y,2019_Jul_11_1442,2AFC_task,59.97850365232628,
stimuli/lamp_light_07_a.png,stimuli/lamp_light_07_b.png,5,4,204,36,"[0, 1]",left,0,20,20,f,y,y,2019_Jul_11_1442,2AFC_task,59.97850365232628,
stimuli/hdri_bump_10_a.png,stimuli/hdri_bump_10_b.png,5,5,205,9,"[1, 0]",left,1,20,20,f,y,y,2019_Jul_11_1442,2AFC_task,59.97850365232628,
stimuli/hdri_bump_02_a.png,stimuli/hdri_bump_02_b.png,5,6,206,1,"[1, 0]",right,0,20,20,f,y,y,2019_Jul_11_1442,2AFC_task,59.97850365232628,
stimuli/lamp_light_09_a.png,stimuli/lamp_light_09_b.png,5,7,207,38,"[0, 1]",left,0,20,20,f,y,y,2019_Jul_11_1442,2AFC_task,59.97850365232628,
stimuli/hdri_light_04_a.png,stimuli/hdri_light_04_b.png,5,8,208,13,"[1, 0]",left,1,20,20,f,y,y,2019_Jul_11_1442,2AFC_task,59.97850365232628,
stimuli/lamp_bump_10_a.png,stimuli/lamp_bump_10_b.png,5,9,209,29,"[1, 0]",left,1,20,20,f,y,y,2019_Jul_11_1442,2AFC_task,59.97850365232628,
stimuli/hdri_bump_09_a.png,stimuli/hdri_bump_09_b.png,5,10,210,8,"[1, 0]",right,0,20,20,f,y,y,2019_Jul_11_1442,2AFC_task,59.97850365232628,
stimuli/hdri_light_06_a.png,stimuli/hdri_light_06_b.png,5,11,211,15,"[0, 1]",right,1,20,20,f,y,y,2019_Jul_11_1442,2AFC_task,59.97850365232628,
stimuli/hdri_light_03_a.png,stimuli/hdri_light_03_b.png,5,12,212,12,"[0, 1]",left,0,20,20,f,y,y,2019_Jul_11_1442,2AFC_task,59.97850365232628,
stimuli/lamp_bump_01_a.png,stimuli/lamp_bump_01_b.png,5,13,213,20,"[0, 1]",right,1,20,20,f,y,y,2019_Jul_11_1442,2AFC_task,59.97850365232628,
stimuli/lamp_bump_04_a.png,stimuli/lamp_bump_04_b.png,5,14,214,23,"[0, 1]",right,1,20,20,f,y,y,2019_Jul_11_1442,2AFC_task,59.97850365232628,
stimuli/hdri_bump_04_a.png,stimuli/hdri_bump_04_b.png,5,15,215,3,"[0, 1]",right,1,20,20,f,y,y,2019_Jul_11_1442,2AFC_task,59.97850365232628,
stimuli/hdri_bump_06_a.png,stimuli/hdri_bump_06_b.png,5,16,216,5,"[0, 1]",left,0,20,20,f,y,y,2019_Jul_11_1442,2AFC_task,59.97850365232628,
stimuli/lamp_light_08_a.png,stimuli/lamp_light_08_b.png,5,17,217,37,"[1, 0]",right,0,20,20,f,y,y,2019_Jul_11_1442,2AFC_task,59.97850365232628,
stimuli/hdri_bump_01_a.png,stimuli/hdri_bump_01_b.png,5,18,218,0,"[1, 0]",left,1,20,20,f,y,y,2019_Jul_11_1442,2AFC_task,59.97850365232628,
stimuli/hdri_light_10_a.png,stimuli/hdri_light_10_b.png,5,19,219,19,"[0, 1]",right,1,20,20,f,y,y,2019_Jul_11_1442,2AFC_task,59.97850365232628,
stimuli/lamp_light_02_a.png,stimuli/lamp_light_02_b.png,5,20,220,31,"[1, 0]",right,0,20,20,f,y,y,2019_Jul_11_1442,2AFC_task,59.97850365232628,
stimuli/lamp_light_01_a.png,stimuli/lamp_light_01_b.png,5,21,221,30,"[1, 0]",right,0,20,20,f,y,y,2019_Jul_11_1442,2AFC_task,59.97850365232628,
stimuli/hdri_bump_03_a.png,stimuli/hdri_bump_03_b.png,5,22,222,2,"[1, 0]",left,1,20,20,f,y,y,2019_Jul_11_1442,2AFC_task,59.97850365232628,
stimuli/hdri_light_09_a.png,stimuli/hdri_light_09_b.png,5,23,223,18,"[0, 1]",right,1,20,20,f,y,y,2019_Jul_11_1442,2AFC_task,59.97850365232628,
stimuli/lamp_bump_06_a.png,stimuli/lamp_bump_06_b.png,5,24,224,25,"[0, 1]",right,1,20,20,f,y,y,2019_Jul_11_1442,2AFC_task,59.97850365232628,
stimuli/hdri_light_02_a.png,stimuli/hdri_light_02_b.png,5,25,225,11,"[1, 0]",left,1,20,20,f,y,y,2019_Jul_11_1442,2AFC_task,59.97850365232628,
stimuli/lamp_light_06_a.png,stimuli/lamp_light_06_b.png,5,26,226,35,"[0, 1]",left,0,20,20,f,y,y,2019_Jul_11_1442,2AFC_task,59.97850365232628,
stimuli/lamp_light_03_a.png,stimuli/lamp_light_03_b.png,5,27,227,32,"[0, 1]",left,0,20,20,f,y,y,2019_Jul_11_1442,2AFC_task,59.97850365232628,
stimuli/lamp_bump_05_a.png,stimuli/lamp_bump_05_b.png,5,28,228,24,"[1, 0]",left,1,20,20,f,y,y,2019_Jul_11_1442,2AFC_task,59.97850365232628,
stimuli/hdri_bump_05_a.png,stimuli/hdri_bump_05_b.png,5,29,229,4,"[0, 1]",right,1,20,20,f,y,y,2019_Jul_11_1442,2AFC_task,59.97850365232628,
stimuli/hdri_light_07_a.png,stimuli/hdri_light_07_b.png,5,30,230,16,"[0, 1]",right,1,20,20,f,y,y,2019_Jul_11_1442,2AFC_task,59.97850365232628,
stimuli/lamp_bump_09_a.png,stimuli/lamp_bump_09_b.png,5,31,231,28,"[0, 1]",left,0,20,20,f,y,y,2019_Jul_11_1442,2AFC_task,59.97850365232628,
stimuli/hdri_bump_08_a.png,stimuli/hdri_bump_08_b.png,5,32,232,7,"[1, 0]",right,0,20,20,f,y,y,2019_Jul_11_1442,2AFC_task,59.97850365232628,
stimuli/lamp_light_05_a.png,stimuli/lamp_light_05_b.png,5,33,233,34,"[1, 0]",right,0,20,20,f,y,y,2019_Jul_11_1442,2AFC_task,59.97850365232628,
stimuli/lamp_bump_03_a.png,stimuli/lamp_bump_03_b.png,5,34,234,22,"[1, 0]",left,1,20,20,f,y,y,2019_Jul_11_1442,2AFC_task,59.97850365232628,
stimuli/lamp_light_04_a.png,stimuli/lamp_light_04_b.png,5,35,235,33,"[0, 1]",right,1,20,20,f,y,y,2019_Jul_11_1442,2AFC_task,59.97850365232628,
stimuli/hdri_light_08_a.png,stimuli/hdri_light_08_b.png,5,36,236,17,"[0, 1]",left,0,20,20,f,y,y,2019_Jul_11_1442,2AFC_task,59.97850365232628,
stimuli/lamp_bump_02_a.png,stimuli/lamp_bump_02_b.png,5,37,237,21,"[0, 1]",left,0,20,20,f,y,y,2019_Jul_11_1442,2AFC_task,59.97850365232628,
stimuli/hdri_light_01_a.png,stimuli/hdri_light_01_b.png,5,38,238,10,"[0, 1]",left,0,20,20,f,y,y,2019_Jul_11_1442,2AFC_task,59.97850365232628,
stimuli/lamp_bump_08_a.png,stimuli/lamp_bump_08_b.png,5,39,239,27,"[0, 1]",right,1,20,20,f,y,y,2019_Jul_11_1442,2AFC_task,59.97850365232628,
stimuli/hdri_bump_03_a.png,stimuli/hdri_bump_03_b.png,6,0,240,2,"[1, 0]",left,1,20,20,f,y,y,2019_Jul_11_1442,2AFC_task,59.97850365232628,
stimuli/hdri_bump_09_a.png,stimuli/hdri_bump_09_b.png,6,1,241,8,"[0, 1]",left,0,20,20,f,y,y,2019_Jul_11_1442,2AFC_task,59.97850365232628,
stimuli/hdri_light_10_a.png,stimuli/hdri_light_10_b.png,6,2,242,19,"[1, 0]",right,0,20,20,f,y,y,2019_Jul_11_1442,2AFC_task,59.97850365232628,
stimuli/lamp_bump_04_a.png,stimuli/lamp_bump_04_b.png,6,3,243,23,"[1, 0]",right,0,20,20,f,y,y,2019_Jul_11_1442,2AFC_task,59.97850365232628,
stimuli/hdri_light_05_a.png,stimuli/hdri_light_05_b.png,6,4,244,14,"[1, 0]",left,1,20,20,f,y,y,2019_Jul_11_1442,2AFC_task,59.97850365232628,
stimuli/hdri_bump_06_a.png,stimuli/hdri_bump_06_b.png,6,5,245,5,"[1, 0]",left,1,20,20,f,y,y,2019_Jul_11_1442,2AFC_task,59.97850365232628,
stimuli/hdri_bump_01_a.png,stimuli/hdri_bump_01_b.png,6,6,246,0,"[0, 1]",right,1,20,20,f,y,y,2019_Jul_11_1442,2AFC_task,59.97850365232628,
stimuli/lamp_light_02_a.png,stimuli/lamp_light_02_b.png,6,7,247,31,"[0, 1]",left,0,20,20,f,y,y,2019_Jul_11_1442,2AFC_task,59.97850365232628,
stimuli/lamp_bump_01_a.png,stimuli/lamp_bump_01_b.png,6,8,248,20,"[0, 1]",left,0,20,20,f,y,y,2019_Jul_11_1442,2AFC_task,59.97850365232628,
stimuli/hdri_light_03_a.png,stimuli/hdri_light_03_b.png,6,9,249,12,"[0, 1]",right,1,20,20,f,y,y,2019_Jul_11_1442,2AFC_task,59.97850365232628,
stimuli/lamp_bump_09_a.png,stimuli/lamp_bump_09_b.png,6,10,250,28,"[0, 1]",right,1,20,20,f,y,y,2019_Jul_11_1442,2AFC_task,59.97850365232628,
stimuli/hdri_light_04_a.png,stimuli/hdri_light_04_b.png,6,11,251,13,"[0, 1]",right,1,20,20,f,y,y,2019_Jul_11_1442,2AFC_task,59.97850365232628,
stimuli/lamp_bump_06_a.png,stimuli/lamp_bump_06_b.png,6,12,252,25,"[0, 1]",left,0,20,20,f,y,y,2019_Jul_11_1442,2AFC_task,59.97850365232628,
stimuli/lamp_light_10_a.png,stimuli/lamp_light_10_b.png,6,13,253,39,"[1, 0]",right,0,20,20,f,y,y,2019_Jul_11_1442,2AFC_task,59.97850365232628,
stimuli/lamp_bump_05_a.png,stimuli/lamp_bump_05_b.png,6,14,254,24,"[0, 1]",right,1,20,20,f,y,y,2019_Jul_11_1442,2AFC_task,59.97850365232628,
stimuli/hdri_light_06_a.png,stimuli/hdri_light_06_b.png,6,15,255,15,"[1, 0]",left,1,20,20,f,y,y,2019_Jul_11_1442,2AFC_task,59.97850365232628,
stimuli/hdri_light_09_a.png,stimuli/hdri_light_09_b.png,6,16,256,18,"[1, 0]",right,0,20,20,f,y,y,2019_Jul_11_1442,2AFC_task,59.97850365232628,
stimuli/lamp_light_04_a.png,stimuli/lamp_light_04_b.png,6,17,257,33,"[0, 1]",left,0,20,20,f,y,y,2019_Jul_11_1442,2AFC_task,59.97850365232628,
stimuli/lamp_bump_03_a.png,stimuli/lamp_bump_03_b.png,6,18,258,22,"[1, 0]",left,1,20,20,f,y,y,2019_Jul_11_1442,2AFC_task,59.97850365232628,
stimuli/lamp_light_06_a.png,stimuli/lamp_light_06_b.png,6,19,259,35,"[0, 1]",left,0,20,20,f,y,y,2019_Jul_11_1442,2AFC_task,59.97850365232628,
stimuli/hdri_bump_05_a.png,stimuli/hdri_bump_05_b.png,6,20,260,4,"[0, 1]",right,1,20,20,f,y,y,2019_Jul_11_1442,2AFC_task,59.97850365232628,
stimuli/hdri_bump_02_a.png,stimuli/hdri_bump_02_b.png,6,21,261,1,"[0, 1]",right,1,20,20,f,y,y,2019_Jul_11_1442,2AFC_task,59.97850365232628,
stimuli/lamp_light_05_a.png,stimuli/lamp_light_05_b.png,6,22,262,34,"[1, 0]",right,0,20,20,f,y,y,2019_Jul_11_1442,2AFC_task,59.97850365232628,
stimuli/hdri_light_07_a.png,stimuli/hdri_light_07_b.png,6,23,263,16,"[1, 0]",left,1,20,20,f,y,y,2019_Jul_11_1442,2AFC_task,59.97850365232628,
stimuli/lamp_light_07_a.png,stimuli/lamp_light_07_b.png,6,24,264,36,"[0, 1]",right,1,20,20,f,y,y,2019_Jul_11_1442,2AFC_task,59.97850365232628,
stimuli/hdri_bump_07_a.png,stimuli/hdri_bump_07_b.png,6,25,265,6,"[1, 0]",left,1,20,20,f,y,y,2019_Jul_11_1442,2AFC_task,59.97850365232628,
stimuli/hdri_light_08_a.png,stimuli/hdri_light_08_b.png,6,26,266,17,"[1, 0]",left,1,20,20,f,y,y,2019_Jul_11_1442,2AFC_task,59.97850365232628,
stimuli/lamp_bump_08_a.png,stimuli/lamp_bump_08_b.png,6,27,267,27,"[1, 0]",left,1,20,20,f,y,y,2019_Jul_11_1442,2AFC_task,59.97850365232628,
stimuli/hdri_light_01_a.png,stimuli/hdri_light_01_b.png,6,28,268,10,"[0, 1]",left,0,20,20,f,y,y,2019_Jul_11_1442,2AFC_task,59.97850365232628,
stimuli/hdri_bump_10_a.png,stimuli/hdri_bump_10_b.png,6,29,269,9,"[1, 0]",left,1,20,20,f,y,y,2019_Jul_11_1442,2AFC_task,59.97850365232628,
stimuli/lamp_bump_07_a.png,stimuli/lamp_bump_07_b.png,6,30,270,26,"[1, 0]",left,1,20,20,f,y,y,2019_Jul_11_1442,2AFC_task,59.97850365232628,
stimuli/lamp_light_03_a.png,stimuli/lamp_light_03_b.png,6,31,271,32,"[1, 0]",right,0,20,20,f,y,y,2019_Jul_11_1442,2AFC_task,59.97850365232628,
stimuli/lamp_light_08_a.png,stimuli/lamp_light_08_b.png,6,32,272,37,"[1, 0]",right,0,20,20,f,y,y,2019_Jul_11_1442,2AFC_task,59.97850365232628,
stimuli/lamp_bump_02_a.png,stimuli/lamp_bump_02_b.png,6,33,273,21,"[0, 1]",right,1,20,20,f,y,y,2019_Jul_11_1442,2AFC_task,59.97850365232628,
stimuli/hdri_bump_08_a.png,stimuli/hdri_bump_08_b.png,6,34,274,7,"[0, 1]",right,1,20,20,f,y,y,2019_Jul_11_1442,2AFC_task,59.97850365232628,
stimuli/lamp_light_09_a.png,stimuli/lamp_light_09_b.png,6,35,275,38,"[0, 1]",right,1,20,20,f,y,y,2019_Jul_11_1442,2AFC_task,59.97850365232628,
stimuli/lamp_bump_10_a.png,stimuli/lamp_bump_10_b.png,6,36,276,29,"[1, 0]",left,1,20,20,f,y,y,2019_Jul_11_1442,2AFC_task,59.97850365232628,
stimuli/hdri_light_02_a.png,stimuli/hdri_light_02_b.png,6,37,277,11,"[0, 1]",left,0,20,20,f,y,y,2019_Jul_11_1442,2AFC_task,59.97850365232628,
stimuli/lamp_light_01_a.png,stimuli/lamp_light_01_b.png,6,38,278,30,"[1, 0]",right,0,20,20,f,y,y,2019_Jul_11_1442,2AFC_task,59.97850365232628,
stimuli/hdri_bump_04_a.png,stimuli/hdri_bump_04_b.png,6,39,279,3,"[0, 1]",right,1,20,20,f,y,y,2019_Jul_11_1442,2AFC_task,59.97850365232628,
stimuli/lamp_bump_05_a.png,stimuli/lamp_bump_05_b.png,7,0,280,24,"[0, 1]",right,1,20,20,f,y,y,2019_Jul_11_1442,2AFC_task,59.97850365232628,
stimuli/hdri_light_05_a.png,stimuli/hdri_light_05_b.png,7,1,281,14,"[0, 1]",left,0,20,20,f,y,y,2019_Jul_11_1442,2AFC_task,59.97850365232628,
stimuli/lamp_light_07_a.png,stimuli/lamp_light_07_b.png,7,2,282,36,"[0, 1]",right,1,20,20,f,y,y,2019_Jul_11_1442,2AFC_task,59.97850365232628,
stimuli/lamp_light_10_a.png,stimuli/lamp_light_10_b.png,7,3,283,39,"[1, 0]",right,0,20,20,f,y,y,2019_Jul_11_1442,2AFC_task,59.97850365232628,
stimuli/hdri_light_08_a.png,stimuli/hdri_light_08_b.png,7,4,284,17,"[1, 0]",left,1,20,20,f,y,y,2019_Jul_11_1442,2AFC_task,59.97850365232628,
stimuli/lamp_light_02_a.png,stimuli/lamp_light_02_b.png,7,5,285,31,"[1, 0]",left,1,20,20,f,y,y,2019_Jul_11_1442,2AFC_task,59.97850365232628,
stimuli/lamp_bump_04_a.png,stimuli/lamp_bump_04_b.png,7,6,286,23,"[1, 0]",left,1,20,20,f,y,y,2019_Jul_11_1442,2AFC_task,59.97850365232628,
stimuli/lamp_light_05_a.png,stimuli/lamp_light_05_b.png,7,7,287,34,"[1, 0]",left,1,20,20,f,y,y,2019_Jul_11_1442,2AFC_task,59.97850365232628,
stimuli/lamp_bump_10_a.png,stimuli/lamp_bump_10_b.png,7,8,288,29,"[1, 0]",left,1,20,20,f,y,y,2019_Jul_11_1442,2AFC_task,59.97850365232628,
stimuli/hdri_bump_01_a.png,stimuli/hdri_bump_01_b.png,7,9,289,0,"[0, 1]",right,1,20,20,f,y,y,2019_Jul_11_1442,2AFC_task,59.97850365232628,
stimuli/lamp_bump_02_a.png,stimuli/lamp_bump_02_b.png,7,10,290,21,"[0, 1]",right,1,20,20,f,y,y,2019_Jul_11_1442,2AFC_task,59.97850365232628,
stimuli/hdri_bump_05_a.png,stimuli/hdri_bump_05_b.png,7,11,291,4,"[1, 0]",left,1,20,20,f,y,y,2019_Jul_11_1442,2AFC_task,59.97850365232628,
stimuli/hdri_bump_09_a.png,stimuli/hdri_bump_09_b.png,7,12,292,8,"[0, 1]",left,0,20,20,f,y,y,2019_Jul_11_1442,2AFC_task,59.97850365232628,
stimuli/lamp_bump_09_a.png,stimuli/lamp_bump_09_b.png,7,13,293,28,"[1, 0]",left,1,20,20,f,y,y,2019_Jul_11_1442,2AFC_task,59.97850365232628,
stimuli/hdri_light_09_a.png,stimuli/hdri_light_09_b.png,7,14,294,18,"[1, 0]",left,1,20,20,f,y,y,2019_Jul_11_1442,2AFC_task,59.97850365232628,
stimuli/hdri_light_04_a.png,stimuli/hdri_light_04_b.png,7,15,295,13,"[1, 0]",right,0,20,20,f,y,y,2019_Jul_11_1442,2AFC_task,59.97850365232628,
stimuli/lamp_bump_08_a.png,stimuli/lamp_bump_08_b.png,7,16,296,27,"[0, 1]",right,1,20,20,f,y,y,2019_Jul_11_1442,2AFC_task,59.97850365232628,
stimuli/lamp_light_04_a.png,stimuli/lamp_light_04_b.png,7,17,297,33,"[0, 1]",right,1,20,20,f,y,y,2019_Jul_11_1442,2AFC_task,59.97850365232628,
stimuli/hdri_light_10_a.png,stimuli/hdri_light_10_b.png,7,18,298,19,"[1, 0]",left,1,20,20,f,y,y,2019_Jul_11_1442,2AFC_task,59.97850365232628,
stimuli/hdri_bump_02_a.png,stimuli/hdri_bump_02_b.png,7,19,299,1,"[1, 0]",left,1,20,20,f,y,y,2019_Jul_11_1442,2AFC_task,59.97850365232628,
stimuli/lamp_bump_01_a.png,stimuli/lamp_bump_01_b.png,7,20,300,20,"[0, 1]",right,1,20,20,f,y,y,2019_Jul_11_1442,2AFC_task,59.97850365232628,
stimuli/hdri_light_02_a.png,stimuli/hdri_light_02_b.png,7,21,301,11,"[1, 0]",right,0,20,20,f,y,y,2019_Jul_11_1442,2AFC_task,59.97850365232628,
stimuli/hdri_light_03_a.png,stimuli/hdri_light_03_b.png,7,22,302,12,"[1, 0]",right,0,20,20,f,y,y,2019_Jul_11_1442,2AFC_task,59.97850365232628,
stimuli/hdri_bump_10_a.png,stimuli/hdri_bump_10_b.png,7,23,303,9,"[1, 0]",left,1,20,20,f,y,y,2019_Jul_11_1442,2AFC_task,59.97850365232628,
stimuli/lamp_bump_07_a.png,stimuli/lamp_bump_07_b.png,7,24,304,26,"[0, 1]",left,0,20,20,f,y,y,2019_Jul_11_1442,2AFC_task,59.97850365232628,
stimuli/hdri_light_07_a.png,stimuli/hdri_light_07_b.png,7,25,305,16,"[0, 1]",right,1,20,20,f,y,y,2019_Jul_11_1442,2AFC_task,59.97850365232628,
stimuli/hdri_bump_04_a.png,stimuli/hdri_bump_04_b.png,7,26,306,3,"[0, 1]",right,1,20,20,f,y,y,2019_Jul_11_1442,2AFC_task,59.97850365232628,
stimuli/lamp_light_06_a.png,stimuli/lamp_light_06_b.png,7,27,307,35,"[0, 1]",right,1,20,20,f,y,y,2019_Jul_11_1442,2AFC_task,59.97850365232628,
stimuli/lamp_light_03_a.png,stimuli/lamp_light_03_b.png,7,28,308,32,"[0, 1]",left,0,20,20,f,y,y,2019_Jul_11_1442,2AFC_task,59.97850365232628,
stimuli/hdri_light_01_a.png,stimuli/hdri_light_01_b.png,7,29,309,10,"[0, 1]",left,0,20,20,f,y,y,2019_Jul_11_1442,2AFC_task,59.97850365232628,
stimuli/hdri_bump_08_a.png,stimuli/hdri_bump_08_b.png,7,30,310,7,"[0, 1]",right,1,20,20,f,y,y,2019_Jul_11_1442,2AFC_task,59.97850365232628,
stimuli/hdri_bump_03_a.png,stimuli/hdri_bump_03_b.png,7,31,311,2,"[1, 0]",left,1,20,20,f,y,y,2019_Jul_11_1442,2AFC_task,59.97850365232628,
stimuli/hdri_bump_07_a.png,stimuli/hdri_bump_07_b.png,7,32,312,6,"[0, 1]",right,1,20,20,f,y,y,2019_Jul_11_1442,2AFC_task,59.97850365232628,
stimuli/lamp_light_01_a.png,stimuli/lamp_light_01_b.png,7,33,313,30,"[0, 1]",left,0,20,20,f,y,y,2019_Jul_11_1442,2AFC_task,59.97850365232628,
stimuli/lamp_bump_06_a.png,stimuli/lamp_bump_06_b.png,7,34,314,25,"[1, 0]",left,1,20,20,f,y,y,2019_Jul_11_1442,2AFC_task,59.97850365232628,
stimuli/hdri_bump_06_a.png,stimuli/hdri_bump_06_b.png,7,35,315,5,"[0, 1]",right,1,20,20,f,y,y,2019_Jul_11_1442,2AFC_task,59.97850365232628,
stimuli/lamp_light_08_a.png,stimuli/lamp_light_08_b.png,7,36,316,37,"[0, 1]",right,1,20,20,f,y,y,2019_Jul_11_1442,2AFC_task,59.97850365232628,
stimuli/hdri_light_06_a.png,stimuli/hdri_light_06_b.png,7,37,317,15,"[1, 0]",right,0,20,20,f,y,y,2019_Jul_11_1442,2AFC_task,59.97850365232628,
stimuli/lamp_bump_03_a.png,stimuli/lamp_bump_03_b.png,7,38,318,22,"[0, 1]",right,1,20,20,f,y,y,2019_Jul_11_1442,2AFC_task,59.97850365232628,
stimuli/lamp_light_09_a.png,stimuli/lamp_light_09_b.png,7,39,319,38,"[0, 1]",right,1,20,20,f,y,y,2019_Jul_11_1442,2AFC_task,59.97850365232628,
