stimOne,stimTwo,trials_1.thisRepN,trials_1.thisTrialN,trials_1.thisN,trials_1.thisIndex,presentation_positions,resp_key,corresponding_image,participant ID (two digits, e.g. 01),age,gender (m/f/-),normal or corrected-to-normal vision (y/n),normal colour vision (y/n),date,expName,frameRate,
stimuli/lamp_light_04_a.png,stimuli/lamp_light_04_b.png,0,0,0,33,"[1, 0]",right,0,22,20,m,y,y,2019_Jul_16_1056,2AFC_task,59.95157111501455,
stimuli/hdri_bump_08_a.png,stimuli/hdri_bump_08_b.png,0,1,1,7,"[1, 0]",left,1,22,20,m,y,y,2019_Jul_16_1056,2AFC_task,59.95157111501455,
stimuli/hdri_bump_06_a.png,stimuli/hdri_bump_06_b.png,0,2,2,5,"[1, 0]",left,1,22,20,m,y,y,2019_Jul_16_1056,2AFC_task,59.95157111501455,
stimuli/lamp_light_06_a.png,stimuli/lamp_light_06_b.png,0,3,3,35,"[1, 0]",left,1,22,20,m,y,y,2019_Jul_16_1056,2AFC_task,59.95157111501455,
stimuli/lamp_bump_09_a.png,stimuli/lamp_bump_09_b.png,0,4,4,28,"[1, 0]",left,1,22,20,m,y,y,2019_Jul_16_1056,2AFC_task,59.95157111501455,
stimuli/lamp_light_09_a.png,stimuli/lamp_light_09_b.png,0,5,5,38,"[0, 1]",right,1,22,20,m,y,y,2019_Jul_16_1056,2AFC_task,59.95157111501455,
stimuli/hdri_light_07_a.png,stimuli/hdri_light_07_b.png,0,6,6,16,"[0, 1]",right,1,22,20,m,y,y,2019_Jul_16_1056,2AFC_task,59.95157111501455,
stimuli/lamp_light_10_a.png,stimuli/lamp_light_10_b.png,0,7,7,39,"[1, 0]",left,1,22,20,m,y,y,2019_Jul_16_1056,2AFC_task,59.95157111501455,
stimuli/lamp_bump_04_a.png,stimuli/lamp_bump_04_b.png,0,8,8,23,"[0, 1]",right,1,22,20,m,y,y,2019_Jul_16_1056,2AFC_task,59.95157111501455,
stimuli/hdri_light_02_a.png,stimuli/hdri_light_02_b.png,0,9,9,11,"[1, 0]",left,1,22,20,m,y,y,2019_Jul_16_1056,2AFC_task,59.95157111501455,
stimuli/lamp_light_02_a.png,stimuli/lamp_light_02_b.png,0,10,10,31,"[0, 1]",right,1,22,20,m,y,y,2019_Jul_16_1056,2AFC_task,59.95157111501455,
stimuli/hdri_light_09_a.png,stimuli/hdri_light_09_b.png,0,11,11,18,"[0, 1]",left,0,22,20,m,y,y,2019_Jul_16_1056,2AFC_task,59.95157111501455,
stimuli/hdri_light_04_a.png,stimuli/hdri_light_04_b.png,0,12,12,13,"[0, 1]",right,1,22,20,m,y,y,2019_Jul_16_1056,2AFC_task,59.95157111501455,
stimuli/hdri_bump_05_a.png,stimuli/hdri_bump_05_b.png,0,13,13,4,"[1, 0]",left,1,22,20,m,y,y,2019_Jul_16_1056,2AFC_task,59.95157111501455,
stimuli/lamp_bump_07_a.png,stimuli/lamp_bump_07_b.png,0,14,14,26,"[0, 1]",right,1,22,20,m,y,y,2019_Jul_16_1056,2AFC_task,59.95157111501455,
stimuli/lamp_bump_05_a.png,stimuli/lamp_bump_05_b.png,0,15,15,24,"[1, 0]",left,1,22,20,m,y,y,2019_Jul_16_1056,2AFC_task,59.95157111501455,
stimuli/hdri_bump_04_a.png,stimuli/hdri_bump_04_b.png,0,16,16,3,"[0, 1]",right,1,22,20,m,y,y,2019_Jul_16_1056,2AFC_task,59.95157111501455,
stimuli/lamp_bump_03_a.png,stimuli/lamp_bump_03_b.png,0,17,17,22,"[0, 1]",right,1,22,20,m,y,y,2019_Jul_16_1056,2AFC_task,59.95157111501455,
stimuli/lamp_light_08_a.png,stimuli/lamp_light_08_b.png,0,18,18,37,"[0, 1]",right,1,22,20,m,y,y,2019_Jul_16_1056,2AFC_task,59.95157111501455,
stimuli/lamp_light_05_a.png,stimuli/lamp_light_05_b.png,0,19,19,34,"[1, 0]",left,1,22,20,m,y,y,2019_Jul_16_1056,2AFC_task,59.95157111501455,
stimuli/lamp_bump_02_a.png,stimuli/lamp_bump_02_b.png,0,20,20,21,"[0, 1]",right,1,22,20,m,y,y,2019_Jul_16_1056,2AFC_task,59.95157111501455,
stimuli/hdri_bump_01_a.png,stimuli/hdri_bump_01_b.png,0,21,21,0,"[1, 0]",left,1,22,20,m,y,y,2019_Jul_16_1056,2AFC_task,59.95157111501455,
stimuli/hdri_bump_07_a.png,stimuli/hdri_bump_07_b.png,0,22,22,6,"[1, 0]",left,1,22,20,m,y,y,2019_Jul_16_1056,2AFC_task,59.95157111501455,
stimuli/hdri_bump_02_a.png,stimuli/hdri_bump_02_b.png,0,23,23,1,"[0, 1]",right,1,22,20,m,y,y,2019_Jul_16_1056,2AFC_task,59.95157111501455,
stimuli/hdri_light_10_a.png,stimuli/hdri_light_10_b.png,0,24,24,19,"[1, 0]",left,1,22,20,m,y,y,2019_Jul_16_1056,2AFC_task,59.95157111501455,
stimuli/lamp_light_07_a.png,stimuli/lamp_light_07_b.png,0,25,25,36,"[0, 1]",right,1,22,20,m,y,y,2019_Jul_16_1056,2AFC_task,59.95157111501455,
stimuli/lamp_bump_10_a.png,stimuli/lamp_bump_10_b.png,0,26,26,29,"[1, 0]",left,1,22,20,m,y,y,2019_Jul_16_1056,2AFC_task,59.95157111501455,
stimuli/hdri_light_03_a.png,stimuli/hdri_light_03_b.png,0,27,27,12,"[0, 1]",right,1,22,20,m,y,y,2019_Jul_16_1056,2AFC_task,59.95157111501455,
stimuli/lamp_bump_08_a.png,stimuli/lamp_bump_08_b.png,0,28,28,27,"[0, 1]",right,1,22,20,m,y,y,2019_Jul_16_1056,2AFC_task,59.95157111501455,
stimuli/hdri_bump_03_a.png,stimuli/hdri_bump_03_b.png,0,29,29,2,"[0, 1]",right,1,22,20,m,y,y,2019_Jul_16_1056,2AFC_task,59.95157111501455,
stimuli/lamp_bump_06_a.png,stimuli/lamp_bump_06_b.png,0,30,30,25,"[1, 0]",left,1,22,20,m,y,y,2019_Jul_16_1056,2AFC_task,59.95157111501455,
stimuli/hdri_bump_10_a.png,stimuli/hdri_bump_10_b.png,0,31,31,9,"[1, 0]",left,1,22,20,m,y,y,2019_Jul_16_1056,2AFC_task,59.95157111501455,
stimuli/hdri_light_01_a.png,stimuli/hdri_light_01_b.png,0,32,32,10,"[0, 1]",left,0,22,20,m,y,y,2019_Jul_16_1056,2AFC_task,59.95157111501455,
stimuli/hdri_light_08_a.png,stimuli/hdri_light_08_b.png,0,33,33,17,"[0, 1]",right,1,22,20,m,y,y,2019_Jul_16_1056,2AFC_task,59.95157111501455,
stimuli/hdri_light_05_a.png,stimuli/hdri_light_05_b.png,0,34,34,14,"[0, 1]",left,0,22,20,m,y,y,2019_Jul_16_1056,2AFC_task,59.95157111501455,
stimuli/lamp_light_03_a.png,stimuli/lamp_light_03_b.png,0,35,35,32,"[1, 0]",right,0,22,20,m,y,y,2019_Jul_16_1056,2AFC_task,59.95157111501455,
stimuli/lamp_bump_01_a.png,stimuli/lamp_bump_01_b.png,0,36,36,20,"[1, 0]",left,1,22,20,m,y,y,2019_Jul_16_1056,2AFC_task,59.95157111501455,
stimuli/hdri_light_06_a.png,stimuli/hdri_light_06_b.png,0,37,37,15,"[1, 0]",right,0,22,20,m,y,y,2019_Jul_16_1056,2AFC_task,59.95157111501455,
stimuli/lamp_light_01_a.png,stimuli/lamp_light_01_b.png,0,38,38,30,"[1, 0]",right,0,22,20,m,y,y,2019_Jul_16_1056,2AFC_task,59.95157111501455,
stimuli/hdri_bump_09_a.png,stimuli/hdri_bump_09_b.png,0,39,39,8,"[0, 1]",right,1,22,20,m,y,y,2019_Jul_16_1056,2AFC_task,59.95157111501455,
stimuli/lamp_light_03_a.png,stimuli/lamp_light_03_b.png,1,0,40,32,"[1, 0]",right,0,22,20,m,y,y,2019_Jul_16_1056,2AFC_task,59.95157111501455,
stimuli/hdri_bump_03_a.png,stimuli/hdri_bump_03_b.png,1,1,41,2,"[1, 0]",left,1,22,20,m,y,y,2019_Jul_16_1056,2AFC_task,59.95157111501455,
stimuli/lamp_bump_10_a.png,stimuli/lamp_bump_10_b.png,1,2,42,29,"[0, 1]",right,1,22,20,m,y,y,2019_Jul_16_1056,2AFC_task,59.95157111501455,
stimuli/hdri_bump_06_a.png,stimuli/hdri_bump_06_b.png,1,3,43,5,"[0, 1]",right,1,22,20,m,y,y,2019_Jul_16_1056,2AFC_task,59.95157111501455,
stimuli/lamp_light_01_a.png,stimuli/lamp_light_01_b.png,1,4,44,30,"[1, 0]",right,0,22,20,m,y,y,2019_Jul_16_1056,2AFC_task,59.95157111501455,
stimuli/hdri_light_05_a.png,stimuli/hdri_light_05_b.png,1,5,45,14,"[1, 0]",right,0,22,20,m,y,y,2019_Jul_16_1056,2AFC_task,59.95157111501455,
stimuli/hdri_bump_04_a.png,stimuli/hdri_bump_04_b.png,1,6,46,3,"[0, 1]",right,1,22,20,m,y,y,2019_Jul_16_1056,2AFC_task,59.95157111501455,
stimuli/hdri_light_08_a.png,stimuli/hdri_light_08_b.png,1,7,47,17,"[1, 0]",left,1,22,20,m,y,y,2019_Jul_16_1056,2AFC_task,59.95157111501455,
stimuli/hdri_light_10_a.png,stimuli/hdri_light_10_b.png,1,8,48,19,"[1, 0]",left,1,22,20,m,y,y,2019_Jul_16_1056,2AFC_task,59.95157111501455,
stimuli/lamp_light_06_a.png,stimuli/lamp_light_06_b.png,1,9,49,35,"[1, 0]",left,1,22,20,m,y,y,2019_Jul_16_1056,2AFC_task,59.95157111501455,
stimuli/lamp_bump_04_a.png,stimuli/lamp_bump_04_b.png,1,10,50,23,"[1, 0]",left,1,22,20,m,y,y,2019_Jul_16_1056,2AFC_task,59.95157111501455,
stimuli/hdri_light_03_a.png,stimuli/hdri_light_03_b.png,1,11,51,12,"[1, 0]",right,0,22,20,m,y,y,2019_Jul_16_1056,2AFC_task,59.95157111501455,
stimuli/hdri_bump_08_a.png,stimuli/hdri_bump_08_b.png,1,12,52,7,"[1, 0]",left,1,22,20,m,y,y,2019_Jul_16_1056,2AFC_task,59.95157111501455,
stimuli/hdri_bump_09_a.png,stimuli/hdri_bump_09_b.png,1,13,53,8,"[1, 0]",left,1,22,20,m,y,y,2019_Jul_16_1056,2AFC_task,59.95157111501455,
stimuli/lamp_bump_08_a.png,stimuli/lamp_bump_08_b.png,1,14,54,27,"[1, 0]",left,1,22,20,m,y,y,2019_Jul_16_1056,2AFC_task,59.95157111501455,
stimuli/lamp_bump_06_a.png,stimuli/lamp_bump_06_b.png,1,15,55,25,"[1, 0]",left,1,22,20,m,y,y,2019_Jul_16_1056,2AFC_task,59.95157111501455,
stimuli/hdri_light_01_a.png,stimuli/hdri_light_01_b.png,1,16,56,10,"[0, 1]",left,0,22,20,m,y,y,2019_Jul_16_1056,2AFC_task,59.95157111501455,
stimuli/lamp_light_07_a.png,stimuli/lamp_light_07_b.png,1,17,57,36,"[0, 1]",right,1,22,20,m,y,y,2019_Jul_16_1056,2AFC_task,59.95157111501455,
stimuli/hdri_bump_05_a.png,stimuli/hdri_bump_05_b.png,1,18,58,4,"[1, 0]",left,1,22,20,m,y,y,2019_Jul_16_1056,2AFC_task,59.95157111501455,
stimuli/lamp_bump_09_a.png,stimuli/lamp_bump_09_b.png,1,19,59,28,"[1, 0]",right,0,22,20,m,y,y,2019_Jul_16_1056,2AFC_task,59.95157111501455,
stimuli/hdri_bump_07_a.png,stimuli/hdri_bump_07_b.png,1,20,60,6,"[1, 0]",left,1,22,20,m,y,y,2019_Jul_16_1056,2AFC_task,59.95157111501455,
stimuli/hdri_bump_02_a.png,stimuli/hdri_bump_02_b.png,1,21,61,1,"[0, 1]",right,1,22,20,m,y,y,2019_Jul_16_1056,2AFC_task,59.95157111501455,
stimuli/hdri_bump_01_a.png,stimuli/hdri_bump_01_b.png,1,22,62,0,"[1, 0]",left,1,22,20,m,y,y,2019_Jul_16_1056,2AFC_task,59.95157111501455,
stimuli/hdri_light_04_a.png,stimuli/hdri_light_04_b.png,1,23,63,13,"[1, 0]",right,0,22,20,m,y,y,2019_Jul_16_1056,2AFC_task,59.95157111501455,
stimuli/lamp_bump_01_a.png,stimuli/lamp_bump_01_b.png,1,24,64,20,"[0, 1]",right,1,22,20,m,y,y,2019_Jul_16_1056,2AFC_task,59.95157111501455,
stimuli/lamp_bump_05_a.png,stimuli/lamp_bump_05_b.png,1,25,65,24,"[0, 1]",right,1,22,20,m,y,y,2019_Jul_16_1056,2AFC_task,59.95157111501455,
stimuli/lamp_light_04_a.png,stimuli/lamp_light_04_b.png,1,26,66,33,"[0, 1]",right,1,22,20,m,y,y,2019_Jul_16_1056,2AFC_task,59.95157111501455,
stimuli/lamp_bump_02_a.png,stimuli/lamp_bump_02_b.png,1,27,67,21,"[1, 0]",left,1,22,20,m,y,y,2019_Jul_16_1056,2AFC_task,59.95157111501455,
stimuli/lamp_light_02_a.png,stimuli/lamp_light_02_b.png,1,28,68,31,"[0, 1]",left,0,22,20,m,y,y,2019_Jul_16_1056,2AFC_task,59.95157111501455,
stimuli/hdri_light_06_a.png,stimuli/hdri_light_06_b.png,1,29,69,15,"[0, 1]",left,0,22,20,m,y,y,2019_Jul_16_1056,2AFC_task,59.95157111501455,
stimuli/lamp_bump_07_a.png,stimuli/lamp_bump_07_b.png,1,30,70,26,"[1, 0]",left,1,22,20,m,y,y,2019_Jul_16_1056,2AFC_task,59.95157111501455,
stimuli/lamp_light_09_a.png,stimuli/lamp_light_09_b.png,1,31,71,38,"[1, 0]",left,1,22,20,m,y,y,2019_Jul_16_1056,2AFC_task,59.95157111501455,
stimuli/hdri_light_07_a.png,stimuli/hdri_light_07_b.png,1,32,72,16,"[1, 0]",left,1,22,20,m,y,y,2019_Jul_16_1056,2AFC_task,59.95157111501455,
stimuli/lamp_bump_03_a.png,stimuli/lamp_bump_03_b.png,1,33,73,22,"[1, 0]",left,1,22,20,m,y,y,2019_Jul_16_1056,2AFC_task,59.95157111501455,
stimuli/hdri_light_09_a.png,stimuli/hdri_light_09_b.png,1,34,74,18,"[1, 0]",right,0,22,20,m,y,y,2019_Jul_16_1056,2AFC_task,59.95157111501455,
stimuli/hdri_light_02_a.png,stimuli/hdri_light_02_b.png,1,35,75,11,"[0, 1]",left,0,22,20,m,y,y,2019_Jul_16_1056,2AFC_task,59.95157111501455,
stimuli/lamp_light_10_a.png,stimuli/lamp_light_10_b.png,1,36,76,39,"[1, 0]",left,1,22,20,m,y,y,2019_Jul_16_1056,2AFC_task,59.95157111501455,
stimuli/hdri_bump_10_a.png,stimuli/hdri_bump_10_b.png,1,37,77,9,"[1, 0]",left,1,22,20,m,y,y,2019_Jul_16_1056,2AFC_task,59.95157111501455,
stimuli/lamp_light_08_a.png,stimuli/lamp_light_08_b.png,1,38,78,37,"[0, 1]",right,1,22,20,m,y,y,2019_Jul_16_1056,2AFC_task,59.95157111501455,
stimuli/lamp_light_05_a.png,stimuli/lamp_light_05_b.png,1,39,79,34,"[1, 0]",left,1,22,20,m,y,y,2019_Jul_16_1056,2AFC_task,59.95157111501455,
stimuli/hdri_light_05_a.png,stimuli/hdri_light_05_b.png,2,0,80,14,"[0, 1]",left,0,22,20,m,y,y,2019_Jul_16_1056,2AFC_task,59.95157111501455,
stimuli/lamp_light_09_a.png,stimuli/lamp_light_09_b.png,2,1,81,38,"[1, 0]",left,1,22,20,m,y,y,2019_Jul_16_1056,2AFC_task,59.95157111501455,
stimuli/hdri_light_01_a.png,stimuli/hdri_light_01_b.png,2,2,82,10,"[0, 1]",left,0,22,20,m,y,y,2019_Jul_16_1056,2AFC_task,59.95157111501455,
stimuli/hdri_bump_03_a.png,stimuli/hdri_bump_03_b.png,2,3,83,2,"[0, 1]",right,1,22,20,m,y,y,2019_Jul_16_1056,2AFC_task,59.95157111501455,
stimuli/hdri_bump_08_a.png,stimuli/hdri_bump_08_b.png,2,4,84,7,"[0, 1]",right,1,22,20,m,y,y,2019_Jul_16_1056,2AFC_task,59.95157111501455,
stimuli/lamp_bump_04_a.png,stimuli/lamp_bump_04_b.png,2,5,85,23,"[1, 0]",left,1,22,20,m,y,y,2019_Jul_16_1056,2AFC_task,59.95157111501455,
stimuli/lamp_light_08_a.png,stimuli/lamp_light_08_b.png,2,6,86,37,"[1, 0]",left,1,22,20,m,y,y,2019_Jul_16_1056,2AFC_task,59.95157111501455,
stimuli/hdri_bump_01_a.png,stimuli/hdri_bump_01_b.png,2,7,87,0,"[0, 1]",right,1,22,20,m,y,y,2019_Jul_16_1056,2AFC_task,59.95157111501455,
stimuli/hdri_bump_05_a.png,stimuli/hdri_bump_05_b.png,2,8,88,4,"[0, 1]",right,1,22,20,m,y,y,2019_Jul_16_1056,2AFC_task,59.95157111501455,
stimuli/lamp_light_05_a.png,stimuli/lamp_light_05_b.png,2,9,89,34,"[1, 0]",left,1,22,20,m,y,y,2019_Jul_16_1056,2AFC_task,59.95157111501455,
stimuli/hdri_bump_07_a.png,stimuli/hdri_bump_07_b.png,2,10,90,6,"[0, 1]",right,1,22,20,m,y,y,2019_Jul_16_1056,2AFC_task,59.95157111501455,
stimuli/lamp_bump_09_a.png,stimuli/lamp_bump_09_b.png,2,11,91,28,"[1, 0]",left,1,22,20,m,y,y,2019_Jul_16_1056,2AFC_task,59.95157111501455,
stimuli/lamp_bump_01_a.png,stimuli/lamp_bump_01_b.png,2,12,92,20,"[1, 0]",left,1,22,20,m,y,y,2019_Jul_16_1056,2AFC_task,59.95157111501455,
stimuli/lamp_light_03_a.png,stimuli/lamp_light_03_b.png,2,13,93,32,"[1, 0]",right,0,22,20,m,y,y,2019_Jul_16_1056,2AFC_task,59.95157111501455,
stimuli/lamp_light_06_a.png,stimuli/lamp_light_06_b.png,2,14,94,35,"[0, 1]",right,1,22,20,m,y,y,2019_Jul_16_1056,2AFC_task,59.95157111501455,
stimuli/lamp_light_01_a.png,stimuli/lamp_light_01_b.png,2,15,95,30,"[0, 1]",left,0,22,20,m,y,y,2019_Jul_16_1056,2AFC_task,59.95157111501455,
stimuli/hdri_bump_09_a.png,stimuli/hdri_bump_09_b.png,2,16,96,8,"[0, 1]",right,1,22,20,m,y,y,2019_Jul_16_1056,2AFC_task,59.95157111501455,
stimuli/hdri_light_02_a.png,stimuli/hdri_light_02_b.png,2,17,97,11,"[1, 0]",left,1,22,20,m,y,y,2019_Jul_16_1056,2AFC_task,59.95157111501455,
stimuli/lamp_light_02_a.png,stimuli/lamp_light_02_b.png,2,18,98,31,"[0, 1]",left,0,22,20,m,y,y,2019_Jul_16_1056,2AFC_task,59.95157111501455,
stimuli/hdri_bump_06_a.png,stimuli/hdri_bump_06_b.png,2,19,99,5,"[0, 1]",right,1,22,20,m,y,y,2019_Jul_16_1056,2AFC_task,59.95157111501455,
stimuli/lamp_bump_06_a.png,stimuli/lamp_bump_06_b.png,2,20,100,25,"[1, 0]",left,1,22,20,m,y,y,2019_Jul_16_1056,2AFC_task,59.95157111501455,
stimuli/lamp_light_10_a.png,stimuli/lamp_light_10_b.png,2,21,101,39,"[0, 1]",right,1,22,20,m,y,y,2019_Jul_16_1056,2AFC_task,59.95157111501455,
stimuli/hdri_light_04_a.png,stimuli/hdri_light_04_b.png,2,22,102,13,"[0, 1]",right,1,22,20,m,y,y,2019_Jul_16_1056,2AFC_task,59.95157111501455,
stimuli/lamp_bump_02_a.png,stimuli/lamp_bump_02_b.png,2,23,103,21,"[0, 1]",right,1,22,20,m,y,y,2019_Jul_16_1056,2AFC_task,59.95157111501455,
stimuli/lamp_bump_10_a.png,stimuli/lamp_bump_10_b.png,2,24,104,29,"[0, 1]",right,1,22,20,m,y,y,2019_Jul_16_1056,2AFC_task,59.95157111501455,
stimuli/lamp_bump_07_a.png,stimuli/lamp_bump_07_b.png,2,25,105,26,"[0, 1]",right,1,22,20,m,y,y,2019_Jul_16_1056,2AFC_task,59.95157111501455,
stimuli/hdri_bump_10_a.png,stimuli/hdri_bump_10_b.png,2,26,106,9,"[0, 1]",right,1,22,20,m,y,y,2019_Jul_16_1056,2AFC_task,59.95157111501455,
stimuli/lamp_bump_05_a.png,stimuli/lamp_bump_05_b.png,2,27,107,24,"[0, 1]",right,1,22,20,m,y,y,2019_Jul_16_1056,2AFC_task,59.95157111501455,
stimuli/hdri_light_09_a.png,stimuli/hdri_light_09_b.png,2,28,108,18,"[0, 1]",left,0,22,20,m,y,y,2019_Jul_16_1056,2AFC_task,59.95157111501455,
stimuli/hdri_light_07_a.png,stimuli/hdri_light_07_b.png,2,29,109,16,"[0, 1]",right,1,22,20,m,y,y,2019_Jul_16_1056,2AFC_task,59.95157111501455,
stimuli/hdri_light_10_a.png,stimuli/hdri_light_10_b.png,2,30,110,19,"[1, 0]",left,1,22,20,m,y,y,2019_Jul_16_1056,2AFC_task,59.95157111501455,
stimuli/lamp_bump_08_a.png,stimuli/lamp_bump_08_b.png,2,31,111,27,"[0, 1]",right,1,22,20,m,y,y,2019_Jul_16_1056,2AFC_task,59.95157111501455,
stimuli/hdri_light_06_a.png,stimuli/hdri_light_06_b.png,2,32,112,15,"[1, 0]",right,0,22,20,m,y,y,2019_Jul_16_1056,2AFC_task,59.95157111501455,
stimuli/lamp_bump_03_a.png,stimuli/lamp_bump_03_b.png,2,33,113,22,"[0, 1]",right,1,22,20,m,y,y,2019_Jul_16_1056,2AFC_task,59.95157111501455,
stimuli/hdri_bump_04_a.png,stimuli/hdri_bump_04_b.png,2,34,114,3,"[1, 0]",left,1,22,20,m,y,y,2019_Jul_16_1056,2AFC_task,59.95157111501455,
stimuli/hdri_light_08_a.png,stimuli/hdri_light_08_b.png,2,35,115,17,"[1, 0]",left,1,22,20,m,y,y,2019_Jul_16_1056,2AFC_task,59.95157111501455,
stimuli/lamp_light_04_a.png,stimuli/lamp_light_04_b.png,2,36,116,33,"[1, 0]",right,0,22,20,m,y,y,2019_Jul_16_1056,2AFC_task,59.95157111501455,
stimuli/hdri_bump_02_a.png,stimuli/hdri_bump_02_b.png,2,37,117,1,"[1, 0]",left,1,22,20,m,y,y,2019_Jul_16_1056,2AFC_task,59.95157111501455,
stimuli/lamp_light_07_a.png,stimuli/lamp_light_07_b.png,2,38,118,36,"[0, 1]",right,1,22,20,m,y,y,2019_Jul_16_1056,2AFC_task,59.95157111501455,
stimuli/hdri_light_03_a.png,stimuli/hdri_light_03_b.png,2,39,119,12,"[0, 1]",left,0,22,20,m,y,y,2019_Jul_16_1056,2AFC_task,59.95157111501455,
stimuli/hdri_light_05_a.png,stimuli/hdri_light_05_b.png,3,0,120,14,"[1, 0]",right,0,22,20,m,y,y,2019_Jul_16_1056,2AFC_task,59.95157111501455,
stimuli/lamp_bump_01_a.png,stimuli/lamp_bump_01_b.png,3,1,121,20,"[0, 1]",right,1,22,20,m,y,y,2019_Jul_16_1056,2AFC_task,59.95157111501455,
stimuli/lamp_bump_07_a.png,stimuli/lamp_bump_07_b.png,3,2,122,26,"[1, 0]",right,0,22,20,m,y,y,2019_Jul_16_1056,2AFC_task,59.95157111501455,
stimuli/lamp_bump_08_a.png,stimuli/lamp_bump_08_b.png,3,3,123,27,"[1, 0]",right,0,22,20,m,y,y,2019_Jul_16_1056,2AFC_task,59.95157111501455,
stimuli/hdri_bump_07_a.png,stimuli/hdri_bump_07_b.png,3,4,124,6,"[1, 0]",left,1,22,20,m,y,y,2019_Jul_16_1056,2AFC_task,59.95157111501455,
stimuli/lamp_light_03_a.png,stimuli/lamp_light_03_b.png,3,5,125,32,"[1, 0]",right,0,22,20,m,y,y,2019_Jul_16_1056,2AFC_task,59.95157111501455,
stimuli/lamp_bump_06_a.png,stimuli/lamp_bump_06_b.png,3,6,126,25,"[0, 1]",right,1,22,20,m,y,y,2019_Jul_16_1056,2AFC_task,59.95157111501455,
stimuli/hdri_light_09_a.png,stimuli/hdri_light_09_b.png,3,7,127,18,"[0, 1]",left,0,22,20,m,y,y,2019_Jul_16_1056,2AFC_task,59.95157111501455,
stimuli/hdri_light_04_a.png,stimuli/hdri_light_04_b.png,3,8,128,13,"[1, 0]",right,0,22,20,m,y,y,2019_Jul_16_1056,2AFC_task,59.95157111501455,
stimuli/hdri_light_10_a.png,stimuli/hdri_light_10_b.png,3,9,129,19,"[1, 0]",left,1,22,20,m,y,y,2019_Jul_16_1056,2AFC_task,59.95157111501455,
stimuli/hdri_bump_05_a.png,stimuli/hdri_bump_05_b.png,3,10,130,4,"[0, 1]",right,1,22,20,m,y,y,2019_Jul_16_1056,2AFC_task,59.95157111501455,
stimuli/hdri_bump_04_a.png,stimuli/hdri_bump_04_b.png,3,11,131,3,"[0, 1]",right,1,22,20,m,y,y,2019_Jul_16_1056,2AFC_task,59.95157111501455,
stimuli/lamp_light_04_a.png,stimuli/lamp_light_04_b.png,3,12,132,33,"[0, 1]",right,1,22,20,m,y,y,2019_Jul_16_1056,2AFC_task,59.95157111501455,
stimuli/hdri_light_02_a.png,stimuli/hdri_light_02_b.png,3,13,133,11,"[1, 0]",right,0,22,20,m,y,y,2019_Jul_16_1056,2AFC_task,59.95157111501455,
stimuli/lamp_bump_03_a.png,stimuli/lamp_bump_03_b.png,3,14,134,22,"[0, 1]",right,1,22,20,m,y,y,2019_Jul_16_1056,2AFC_task,59.95157111501455,
stimuli/hdri_bump_10_a.png,stimuli/hdri_bump_10_b.png,3,15,135,9,"[0, 1]",right,1,22,20,m,y,y,2019_Jul_16_1056,2AFC_task,59.95157111501455,
stimuli/lamp_bump_10_a.png,stimuli/lamp_bump_10_b.png,3,16,136,29,"[1, 0]",left,1,22,20,m,y,y,2019_Jul_16_1056,2AFC_task,59.95157111501455,
stimuli/hdri_light_01_a.png,stimuli/hdri_light_01_b.png,3,17,137,10,"[0, 1]",left,0,22,20,m,y,y,2019_Jul_16_1056,2AFC_task,59.95157111501455,
stimuli/lamp_light_05_a.png,stimuli/lamp_light_05_b.png,3,18,138,34,"[1, 0]",left,1,22,20,m,y,y,2019_Jul_16_1056,2AFC_task,59.95157111501455,
stimuli/hdri_bump_06_a.png,stimuli/hdri_bump_06_b.png,3,19,139,5,"[0, 1]",right,1,22,20,m,y,y,2019_Jul_16_1056,2AFC_task,59.95157111501455,
stimuli/lamp_light_10_a.png,stimuli/lamp_light_10_b.png,3,20,140,39,"[0, 1]",right,1,22,20,m,y,y,2019_Jul_16_1056,2AFC_task,59.95157111501455,
stimuli/hdri_bump_03_a.png,stimuli/hdri_bump_03_b.png,3,21,141,2,"[1, 0]",left,1,22,20,m,y,y,2019_Jul_16_1056,2AFC_task,59.95157111501455,
stimuli/hdri_light_06_a.png,stimuli/hdri_light_06_b.png,3,22,142,15,"[1, 0]",right,0,22,20,m,y,y,2019_Jul_16_1056,2AFC_task,59.95157111501455,
stimuli/lamp_light_02_a.png,stimuli/lamp_light_02_b.png,3,23,143,31,"[1, 0]",right,0,22,20,m,y,y,2019_Jul_16_1056,2AFC_task,59.95157111501455,
stimuli/hdri_light_08_a.png,stimuli/hdri_light_08_b.png,3,24,144,17,"[1, 0]",left,1,22,20,m,y,y,2019_Jul_16_1056,2AFC_task,59.95157111501455,
stimuli/hdri_bump_08_a.png,stimuli/hdri_bump_08_b.png,3,25,145,7,"[0, 1]",right,1,22,20,m,y,y,2019_Jul_16_1056,2AFC_task,59.95157111501455,
stimuli/hdri_bump_02_a.png,stimuli/hdri_bump_02_b.png,3,26,146,1,"[1, 0]",left,1,22,20,m,y,y,2019_Jul_16_1056,2AFC_task,59.95157111501455,
stimuli/lamp_light_06_a.png,stimuli/lamp_light_06_b.png,3,27,147,35,"[1, 0]",left,1,22,20,m,y,y,2019_Jul_16_1056,2AFC_task,59.95157111501455,
stimuli/lamp_light_09_a.png,stimuli/lamp_light_09_b.png,3,28,148,38,"[0, 1]",right,1,22,20,m,y,y,2019_Jul_16_1056,2AFC_task,59.95157111501455,
stimuli/hdri_bump_09_a.png,stimuli/hdri_bump_09_b.png,3,29,149,8,"[1, 0]",left,1,22,20,m,y,y,2019_Jul_16_1056,2AFC_task,59.95157111501455,
stimuli/lamp_bump_09_a.png,stimuli/lamp_bump_09_b.png,3,30,150,28,"[0, 1]",right,1,22,20,m,y,y,2019_Jul_16_1056,2AFC_task,59.95157111501455,
stimuli/lamp_bump_02_a.png,stimuli/lamp_bump_02_b.png,3,31,151,21,"[1, 0]",left,1,22,20,m,y,y,2019_Jul_16_1056,2AFC_task,59.95157111501455,
stimuli/hdri_light_03_a.png,stimuli/hdri_light_03_b.png,3,32,152,12,"[0, 1]",right,1,22,20,m,y,y,2019_Jul_16_1056,2AFC_task,59.95157111501455,
stimuli/lamp_light_01_a.png,stimuli/lamp_light_01_b.png,3,33,153,30,"[1, 0]",left,1,22,20,m,y,y,2019_Jul_16_1056,2AFC_task,59.95157111501455,
stimuli/hdri_light_07_a.png,stimuli/hdri_light_07_b.png,3,34,154,16,"[1, 0]",left,1,22,20,m,y,y,2019_Jul_16_1056,2AFC_task,59.95157111501455,
stimuli/lamp_light_08_a.png,stimuli/lamp_light_08_b.png,3,35,155,37,"[1, 0]",left,1,22,20,m,y,y,2019_Jul_16_1056,2AFC_task,59.95157111501455,
stimuli/lamp_light_07_a.png,stimuli/lamp_light_07_b.png,3,36,156,36,"[1, 0]",left,1,22,20,m,y,y,2019_Jul_16_1056,2AFC_task,59.95157111501455,
stimuli/lamp_bump_05_a.png,stimuli/lamp_bump_05_b.png,3,37,157,24,"[1, 0]",left,1,22,20,m,y,y,2019_Jul_16_1056,2AFC_task,59.95157111501455,
stimuli/hdri_bump_01_a.png,stimuli/hdri_bump_01_b.png,3,38,158,0,"[0, 1]",right,1,22,20,m,y,y,2019_Jul_16_1056,2AFC_task,59.95157111501455,
stimuli/lamp_bump_04_a.png,stimuli/lamp_bump_04_b.png,3,39,159,23,"[1, 0]",left,1,22,20,m,y,y,2019_Jul_16_1056,2AFC_task,59.95157111501455,
stimuli/lamp_bump_05_a.png,stimuli/lamp_bump_05_b.png,4,0,160,24,"[1, 0]",left,1,22,20,m,y,y,2019_Jul_16_1056,2AFC_task,59.95157111501455,
stimuli/lamp_bump_01_a.png,stimuli/lamp_bump_01_b.png,4,1,161,20,"[0, 1]",right,1,22,20,m,y,y,2019_Jul_16_1056,2AFC_task,59.95157111501455,
stimuli/lamp_bump_03_a.png,stimuli/lamp_bump_03_b.png,4,2,162,22,"[0, 1]",right,1,22,20,m,y,y,2019_Jul_16_1056,2AFC_task,59.95157111501455,
stimuli/hdri_light_08_a.png,stimuli/hdri_light_08_b.png,4,3,163,17,"[0, 1]",right,1,22,20,m,y,y,2019_Jul_16_1056,2AFC_task,59.95157111501455,
stimuli/lamp_light_05_a.png,stimuli/lamp_light_05_b.png,4,4,164,34,"[0, 1]",right,1,22,20,m,y,y,2019_Jul_16_1056,2AFC_task,59.95157111501455,
stimuli/lamp_light_01_a.png,stimuli/lamp_light_01_b.png,4,5,165,30,"[0, 1]",left,0,22,20,m,y,y,2019_Jul_16_1056,2AFC_task,59.95157111501455,
stimuli/hdri_bump_04_a.png,stimuli/hdri_bump_04_b.png,4,6,166,3,"[1, 0]",left,1,22,20,m,y,y,2019_Jul_16_1056,2AFC_task,59.95157111501455,
stimuli/hdri_light_09_a.png,stimuli/hdri_light_09_b.png,4,7,167,18,"[1, 0]",right,0,22,20,m,y,y,2019_Jul_16_1056,2AFC_task,59.95157111501455,
stimuli/hdri_bump_07_a.png,stimuli/hdri_bump_07_b.png,4,8,168,6,"[1, 0]",left,1,22,20,m,y,y,2019_Jul_16_1056,2AFC_task,59.95157111501455,
stimuli/hdri_light_05_a.png,stimuli/hdri_light_05_b.png,4,9,169,14,"[0, 1]",left,0,22,20,m,y,y,2019_Jul_16_1056,2AFC_task,59.95157111501455,
stimuli/hdri_bump_05_a.png,stimuli/hdri_bump_05_b.png,4,10,170,4,"[1, 0]",left,1,22,20,m,y,y,2019_Jul_16_1056,2AFC_task,59.95157111501455,
stimuli/lamp_bump_07_a.png,stimuli/lamp_bump_07_b.png,4,11,171,26,"[0, 1]",left,0,22,20,m,y,y,2019_Jul_16_1056,2AFC_task,59.95157111501455,
stimuli/hdri_bump_08_a.png,stimuli/hdri_bump_08_b.png,4,12,172,7,"[0, 1]",right,1,22,20,m,y,y,2019_Jul_16_1056,2AFC_task,59.95157111501455,
stimuli/lamp_light_07_a.png,stimuli/lamp_light_07_b.png,4,13,173,36,"[1, 0]",left,1,22,20,m,y,y,2019_Jul_16_1056,2AFC_task,59.95157111501455,
stimuli/lamp_bump_08_a.png,stimuli/lamp_bump_08_b.png,4,14,174,27,"[1, 0]",left,1,22,20,m,y,y,2019_Jul_16_1056,2AFC_task,59.95157111501455,
stimuli/lamp_bump_04_a.png,stimuli/lamp_bump_04_b.png,4,15,175,23,"[0, 1]",right,1,22,20,m,y,y,2019_Jul_16_1056,2AFC_task,59.95157111501455,
stimuli/hdri_light_10_a.png,stimuli/hdri_light_10_b.png,4,16,176,19,"[0, 1]",right,1,22,20,m,y,y,2019_Jul_16_1056,2AFC_task,59.95157111501455,
stimuli/hdri_light_07_a.png,stimuli/hdri_light_07_b.png,4,17,177,16,"[0, 1]",right,1,22,20,m,y,y,2019_Jul_16_1056,2AFC_task,59.95157111501455,
stimuli/hdri_light_06_a.png,stimuli/hdri_light_06_b.png,4,18,178,15,"[1, 0]",right,0,22,20,m,y,y,2019_Jul_16_1056,2AFC_task,59.95157111501455,
stimuli/lamp_light_08_a.png,stimuli/lamp_light_08_b.png,4,19,179,37,"[1, 0]",left,1,22,20,m,y,y,2019_Jul_16_1056,2AFC_task,59.95157111501455,
stimuli/lamp_light_04_a.png,stimuli/lamp_light_04_b.png,4,20,180,33,"[1, 0]",left,1,22,20,m,y,y,2019_Jul_16_1056,2AFC_task,59.95157111501455,
stimuli/hdri_light_04_a.png,stimuli/hdri_light_04_b.png,4,21,181,13,"[0, 1]",right,1,22,20,m,y,y,2019_Jul_16_1056,2AFC_task,59.95157111501455,
stimuli/lamp_light_03_a.png,stimuli/lamp_light_03_b.png,4,22,182,32,"[1, 0]",right,0,22,20,m,y,y,2019_Jul_16_1056,2AFC_task,59.95157111501455,
stimuli/lamp_light_06_a.png,stimuli/lamp_light_06_b.png,4,23,183,35,"[1, 0]",left,1,22,20,m,y,y,2019_Jul_16_1056,2AFC_task,59.95157111501455,
stimuli/hdri_bump_01_a.png,stimuli/hdri_bump_01_b.png,4,24,184,0,"[1, 0]",left,1,22,20,m,y,y,2019_Jul_16_1056,2AFC_task,59.95157111501455,
stimuli/lamp_bump_09_a.png,stimuli/lamp_bump_09_b.png,4,25,185,28,"[0, 1]",right,1,22,20,m,y,y,2019_Jul_16_1056,2AFC_task,59.95157111501455,
stimuli/hdri_bump_02_a.png,stimuli/hdri_bump_02_b.png,4,26,186,1,"[1, 0]",left,1,22,20,m,y,y,2019_Jul_16_1056,2AFC_task,59.95157111501455,
stimuli/lamp_bump_10_a.png,stimuli/lamp_bump_10_b.png,4,27,187,29,"[1, 0]",left,1,22,20,m,y,y,2019_Jul_16_1056,2AFC_task,59.95157111501455,
stimuli/hdri_bump_09_a.png,stimuli/hdri_bump_09_b.png,4,28,188,8,"[0, 1]",right,1,22,20,m,y,y,2019_Jul_16_1056,2AFC_task,59.95157111501455,
stimuli/lamp_light_10_a.png,stimuli/lamp_light_10_b.png,4,29,189,39,"[0, 1]",right,1,22,20,m,y,y,2019_Jul_16_1056,2AFC_task,59.95157111501455,
stimuli/lamp_light_09_a.png,stimuli/lamp_light_09_b.png,4,30,190,38,"[0, 1]",right,1,22,20,m,y,y,2019_Jul_16_1056,2AFC_task,59.95157111501455,
stimuli/lamp_light_02_a.png,stimuli/lamp_light_02_b.png,4,31,191,31,"[0, 1]",left,0,22,20,m,y,y,2019_Jul_16_1056,2AFC_task,59.95157111501455,
stimuli/hdri_bump_03_a.png,stimuli/hdri_bump_03_b.png,4,32,192,2,"[0, 1]",right,1,22,20,m,y,y,2019_Jul_16_1056,2AFC_task,59.95157111501455,
stimuli/lamp_bump_06_a.png,stimuli/lamp_bump_06_b.png,4,33,193,25,"[1, 0]",left,1,22,20,m,y,y,2019_Jul_16_1056,2AFC_task,59.95157111501455,
stimuli/lamp_bump_02_a.png,stimuli/lamp_bump_02_b.png,4,34,194,21,"[1, 0]",left,1,22,20,m,y,y,2019_Jul_16_1056,2AFC_task,59.95157111501455,
stimuli/hdri_light_01_a.png,stimuli/hdri_light_01_b.png,4,35,195,10,"[0, 1]",left,0,22,20,m,y,y,2019_Jul_16_1056,2AFC_task,59.95157111501455,
stimuli/hdri_bump_10_a.png,stimuli/hdri_bump_10_b.png,4,36,196,9,"[0, 1]",right,1,22,20,m,y,y,2019_Jul_16_1056,2AFC_task,59.95157111501455,
stimuli/hdri_bump_06_a.png,stimuli/hdri_bump_06_b.png,4,37,197,5,"[0, 1]",right,1,22,20,m,y,y,2019_Jul_16_1056,2AFC_task,59.95157111501455,
stimuli/hdri_light_03_a.png,stimuli/hdri_light_03_b.png,4,38,198,12,"[0, 1]",right,1,22,20,m,y,y,2019_Jul_16_1056,2AFC_task,59.95157111501455,
stimuli/hdri_light_02_a.png,stimuli/hdri_light_02_b.png,4,39,199,11,"[1, 0]",left,1,22,20,m,y,y,2019_Jul_16_1056,2AFC_task,59.95157111501455,
stimuli/lamp_light_06_a.png,stimuli/lamp_light_06_b.png,5,0,200,35,"[1, 0]",left,1,22,20,m,y,y,2019_Jul_16_1056,2AFC_task,59.95157111501455,
stimuli/lamp_bump_10_a.png,stimuli/lamp_bump_10_b.png,5,1,201,29,"[1, 0]",left,1,22,20,m,y,y,2019_Jul_16_1056,2AFC_task,59.95157111501455,
stimuli/hdri_bump_06_a.png,stimuli/hdri_bump_06_b.png,5,2,202,5,"[0, 1]",right,1,22,20,m,y,y,2019_Jul_16_1056,2AFC_task,59.95157111501455,
stimuli/hdri_bump_08_a.png,stimuli/hdri_bump_08_b.png,5,3,203,7,"[0, 1]",right,1,22,20,m,y,y,2019_Jul_16_1056,2AFC_task,59.95157111501455,
stimuli/lamp_bump_05_a.png,stimuli/lamp_bump_05_b.png,5,4,204,24,"[0, 1]",right,1,22,20,m,y,y,2019_Jul_16_1056,2AFC_task,59.95157111501455,
stimuli/lamp_light_08_a.png,stimuli/lamp_light_08_b.png,5,5,205,37,"[0, 1]",right,1,22,20,m,y,y,2019_Jul_16_1056,2AFC_task,59.95157111501455,
stimuli/lamp_light_05_a.png,stimuli/lamp_light_05_b.png,5,6,206,34,"[1, 0]",left,1,22,20,m,y,y,2019_Jul_16_1056,2AFC_task,59.95157111501455,
stimuli/lamp_bump_02_a.png,stimuli/lamp_bump_02_b.png,5,7,207,21,"[1, 0]",left,1,22,20,m,y,y,2019_Jul_16_1056,2AFC_task,59.95157111501455,
stimuli/hdri_bump_03_a.png,stimuli/hdri_bump_03_b.png,5,8,208,2,"[0, 1]",right,1,22,20,m,y,y,2019_Jul_16_1056,2AFC_task,59.95157111501455,
stimuli/hdri_bump_10_a.png,stimuli/hdri_bump_10_b.png,5,9,209,9,"[0, 1]",right,1,22,20,m,y,y,2019_Jul_16_1056,2AFC_task,59.95157111501455,
stimuli/lamp_light_10_a.png,stimuli/lamp_light_10_b.png,5,10,210,39,"[0, 1]",right,1,22,20,m,y,y,2019_Jul_16_1056,2AFC_task,59.95157111501455,
stimuli/hdri_light_09_a.png,stimuli/hdri_light_09_b.png,5,11,211,18,"[0, 1]",left,0,22,20,m,y,y,2019_Jul_16_1056,2AFC_task,59.95157111501455,
stimuli/lamp_bump_01_a.png,stimuli/lamp_bump_01_b.png,5,12,212,20,"[1, 0]",left,1,22,20,m,y,y,2019_Jul_16_1056,2AFC_task,59.95157111501455,
stimuli/lamp_bump_03_a.png,stimuli/lamp_bump_03_b.png,5,13,213,22,"[0, 1]",right,1,22,20,m,y,y,2019_Jul_16_1056,2AFC_task,59.95157111501455,
stimuli/lamp_light_07_a.png,stimuli/lamp_light_07_b.png,5,14,214,36,"[0, 1]",right,1,22,20,m,y,y,2019_Jul_16_1056,2AFC_task,59.95157111501455,
stimuli/hdri_bump_04_a.png,stimuli/hdri_bump_04_b.png,5,15,215,3,"[1, 0]",left,1,22,20,m,y,y,2019_Jul_16_1056,2AFC_task,59.95157111501455,
stimuli/hdri_bump_02_a.png,stimuli/hdri_bump_02_b.png,5,16,216,1,"[1, 0]",left,1,22,20,m,y,y,2019_Jul_16_1056,2AFC_task,59.95157111501455,
stimuli/hdri_light_03_a.png,stimuli/hdri_light_03_b.png,5,17,217,12,"[1, 0]",right,0,22,20,m,y,y,2019_Jul_16_1056,2AFC_task,59.95157111501455,
stimuli/lamp_light_01_a.png,stimuli/lamp_light_01_b.png,5,18,218,30,"[1, 0]",right,0,22,20,m,y,y,2019_Jul_16_1056,2AFC_task,59.95157111501455,
stimuli/lamp_bump_07_a.png,stimuli/lamp_bump_07_b.png,5,19,219,26,"[0, 1]",left,0,22,20,m,y,y,2019_Jul_16_1056,2AFC_task,59.95157111501455,
stimuli/lamp_light_09_a.png,stimuli/lamp_light_09_b.png,5,20,220,38,"[0, 1]",right,1,22,20,m,y,y,2019_Jul_16_1056,2AFC_task,59.95157111501455,
stimuli/lamp_light_02_a.png,stimuli/lamp_light_02_b.png,5,21,221,31,"[0, 1]",left,0,22,20,m,y,y,2019_Jul_16_1056,2AFC_task,59.95157111501455,
stimuli/hdri_light_08_a.png,stimuli/hdri_light_08_b.png,5,22,222,17,"[1, 0]",left,1,22,20,m,y,y,2019_Jul_16_1056,2AFC_task,59.95157111501455,
stimuli/hdri_light_07_a.png,stimuli/hdri_light_07_b.png,5,23,223,16,"[0, 1]",right,1,22,20,m,y,y,2019_Jul_16_1056,2AFC_task,59.95157111501455,
stimuli/hdri_light_10_a.png,stimuli/hdri_light_10_b.png,5,24,224,19,"[0, 1]",right,1,22,20,m,y,y,2019_Jul_16_1056,2AFC_task,59.95157111501455,
stimuli/hdri_light_02_a.png,stimuli/hdri_light_02_b.png,5,25,225,11,"[0, 1]",right,1,22,20,m,y,y,2019_Jul_16_1056,2AFC_task,59.95157111501455,
stimuli/hdri_light_04_a.png,stimuli/hdri_light_04_b.png,5,26,226,13,"[0, 1]",right,1,22,20,m,y,y,2019_Jul_16_1056,2AFC_task,59.95157111501455,
stimuli/hdri_bump_09_a.png,stimuli/hdri_bump_09_b.png,5,27,227,8,"[0, 1]",right,1,22,20,m,y,y,2019_Jul_16_1056,2AFC_task,59.95157111501455,
stimuli/hdri_bump_05_a.png,stimuli/hdri_bump_05_b.png,5,28,228,4,"[1, 0]",left,1,22,20,m,y,y,2019_Jul_16_1056,2AFC_task,59.95157111501455,
stimuli/hdri_light_06_a.png,stimuli/hdri_light_06_b.png,5,29,229,15,"[1, 0]",right,0,22,20,m,y,y,2019_Jul_16_1056,2AFC_task,59.95157111501455,
stimuli/lamp_light_03_a.png,stimuli/lamp_light_03_b.png,5,30,230,32,"[1, 0]",left,1,22,20,m,y,y,2019_Jul_16_1056,2AFC_task,59.95157111501455,
stimuli/lamp_bump_06_a.png,stimuli/lamp_bump_06_b.png,5,31,231,25,"[1, 0]",left,1,22,20,m,y,y,2019_Jul_16_1056,2AFC_task,59.95157111501455,
stimuli/hdri_bump_01_a.png,stimuli/hdri_bump_01_b.png,5,32,232,0,"[0, 1]",right,1,22,20,m,y,y,2019_Jul_16_1056,2AFC_task,59.95157111501455,
stimuli/hdri_bump_07_a.png,stimuli/hdri_bump_07_b.png,5,33,233,6,"[0, 1]",right,1,22,20,m,y,y,2019_Jul_16_1056,2AFC_task,59.95157111501455,
stimuli/lamp_bump_04_a.png,stimuli/lamp_bump_04_b.png,5,34,234,23,"[0, 1]",right,1,22,20,m,y,y,2019_Jul_16_1056,2AFC_task,59.95157111501455,
stimuli/lamp_light_04_a.png,stimuli/lamp_light_04_b.png,5,35,235,33,"[0, 1]",left,0,22,20,m,y,y,2019_Jul_16_1056,2AFC_task,59.95157111501455,
stimuli/lamp_bump_09_a.png,stimuli/lamp_bump_09_b.png,5,36,236,28,"[1, 0]",left,1,22,20,m,y,y,2019_Jul_16_1056,2AFC_task,59.95157111501455,
stimuli/lamp_bump_08_a.png,stimuli/lamp_bump_08_b.png,5,37,237,27,"[1, 0]",left,1,22,20,m,y,y,2019_Jul_16_1056,2AFC_task,59.95157111501455,
stimuli/hdri_light_01_a.png,stimuli/hdri_light_01_b.png,5,38,238,10,"[0, 1]",left,0,22,20,m,y,y,2019_Jul_16_1056,2AFC_task,59.95157111501455,
stimuli/hdri_light_05_a.png,stimuli/hdri_light_05_b.png,5,39,239,14,"[0, 1]",left,0,22,20,m,y,y,2019_Jul_16_1056,2AFC_task,59.95157111501455,
stimuli/hdri_light_04_a.png,stimuli/hdri_light_04_b.png,6,0,240,13,"[1, 0]",right,0,22,20,m,y,y,2019_Jul_16_1056,2AFC_task,59.95157111501455,
stimuli/hdri_bump_05_a.png,stimuli/hdri_bump_05_b.png,6,1,241,4,"[0, 1]",right,1,22,20,m,y,y,2019_Jul_16_1056,2AFC_task,59.95157111501455,
stimuli/hdri_bump_08_a.png,stimuli/hdri_bump_08_b.png,6,2,242,7,"[1, 0]",left,1,22,20,m,y,y,2019_Jul_16_1056,2AFC_task,59.95157111501455,
stimuli/hdri_light_03_a.png,stimuli/hdri_light_03_b.png,6,3,243,12,"[1, 0]",left,1,22,20,m,y,y,2019_Jul_16_1056,2AFC_task,59.95157111501455,
stimuli/hdri_light_09_a.png,stimuli/hdri_light_09_b.png,6,4,244,18,"[1, 0]",right,0,22,20,m,y,y,2019_Jul_16_1056,2AFC_task,59.95157111501455,
stimuli/lamp_light_02_a.png,stimuli/lamp_light_02_b.png,6,5,245,31,"[0, 1]",left,0,22,20,m,y,y,2019_Jul_16_1056,2AFC_task,59.95157111501455,
stimuli/hdri_bump_01_a.png,stimuli/hdri_bump_01_b.png,6,6,246,0,"[0, 1]",right,1,22,20,m,y,y,2019_Jul_16_1056,2AFC_task,59.95157111501455,
stimuli/hdri_light_10_a.png,stimuli/hdri_light_10_b.png,6,7,247,19,"[1, 0]",left,1,22,20,m,y,y,2019_Jul_16_1056,2AFC_task,59.95157111501455,
stimuli/lamp_light_06_a.png,stimuli/lamp_light_06_b.png,6,8,248,35,"[1, 0]",left,1,22,20,m,y,y,2019_Jul_16_1056,2AFC_task,59.95157111501455,
stimuli/lamp_bump_10_a.png,stimuli/lamp_bump_10_b.png,6,9,249,29,"[0, 1]",right,1,22,20,m,y,y,2019_Jul_16_1056,2AFC_task,59.95157111501455,
stimuli/hdri_bump_04_a.png,stimuli/hdri_bump_04_b.png,6,10,250,3,"[1, 0]",left,1,22,20,m,y,y,2019_Jul_16_1056,2AFC_task,59.95157111501455,
stimuli/lamp_light_01_a.png,stimuli/lamp_light_01_b.png,6,11,251,30,"[1, 0]",right,0,22,20,m,y,y,2019_Jul_16_1056,2AFC_task,59.95157111501455,
stimuli/lamp_light_05_a.png,stimuli/lamp_light_05_b.png,6,12,252,34,"[0, 1]",right,1,22,20,m,y,y,2019_Jul_16_1056,2AFC_task,59.95157111501455,
stimuli/lamp_bump_04_a.png,stimuli/lamp_bump_04_b.png,6,13,253,23,"[0, 1]",right,1,22,20,m,y,y,2019_Jul_16_1056,2AFC_task,59.95157111501455,
stimuli/hdri_bump_06_a.png,stimuli/hdri_bump_06_b.png,6,14,254,5,"[0, 1]",right,1,22,20,m,y,y,2019_Jul_16_1056,2AFC_task,59.95157111501455,
stimuli/hdri_bump_02_a.png,stimuli/hdri_bump_02_b.png,6,15,255,1,"[1, 0]",left,1,22,20,m,y,y,2019_Jul_16_1056,2AFC_task,59.95157111501455,
stimuli/lamp_bump_03_a.png,stimuli/lamp_bump_03_b.png,6,16,256,22,"[1, 0]",left,1,22,20,m,y,y,2019_Jul_16_1056,2AFC_task,59.95157111501455,
stimuli/lamp_bump_06_a.png,stimuli/lamp_bump_06_b.png,6,17,257,25,"[1, 0]",left,1,22,20,m,y,y,2019_Jul_16_1056,2AFC_task,59.95157111501455,
stimuli/hdri_bump_03_a.png,stimuli/hdri_bump_03_b.png,6,18,258,2,"[1, 0]",left,1,22,20,m,y,y,2019_Jul_16_1056,2AFC_task,59.95157111501455,
stimuli/lamp_bump_02_a.png,stimuli/lamp_bump_02_b.png,6,19,259,21,"[0, 1]",right,1,22,20,m,y,y,2019_Jul_16_1056,2AFC_task,59.95157111501455,
stimuli/hdri_light_01_a.png,stimuli/hdri_light_01_b.png,6,20,260,10,"[1, 0]",right,0,22,20,m,y,y,2019_Jul_16_1056,2AFC_task,59.95157111501455,
stimuli/hdri_bump_07_a.png,stimuli/hdri_bump_07_b.png,6,21,261,6,"[0, 1]",right,1,22,20,m,y,y,2019_Jul_16_1056,2AFC_task,59.95157111501455,
stimuli/lamp_light_03_a.png,stimuli/lamp_light_03_b.png,6,22,262,32,"[1, 0]",left,1,22,20,m,y,y,2019_Jul_16_1056,2AFC_task,59.95157111501455,
stimuli/lamp_light_09_a.png,stimuli/lamp_light_09_b.png,6,23,263,38,"[0, 1]",left,0,22,20,m,y,y,2019_Jul_16_1056,2AFC_task,59.95157111501455,
stimuli/hdri_light_05_a.png,stimuli/hdri_light_05_b.png,6,24,264,14,"[0, 1]",left,0,22,20,m,y,y,2019_Jul_16_1056,2AFC_task,59.95157111501455,
stimuli/lamp_bump_07_a.png,stimuli/lamp_bump_07_b.png,6,25,265,26,"[1, 0]",left,1,22,20,m,y,y,2019_Jul_16_1056,2AFC_task,59.95157111501455,
stimuli/lamp_bump_08_a.png,stimuli/lamp_bump_08_b.png,6,26,266,27,"[1, 0]",left,1,22,20,m,y,y,2019_Jul_16_1056,2AFC_task,59.95157111501455,
stimuli/lamp_bump_01_a.png,stimuli/lamp_bump_01_b.png,6,27,267,20,"[0, 1]",right,1,22,20,m,y,y,2019_Jul_16_1056,2AFC_task,59.95157111501455,
stimuli/hdri_light_02_a.png,stimuli/hdri_light_02_b.png,6,28,268,11,"[0, 1]",right,1,22,20,m,y,y,2019_Jul_16_1056,2AFC_task,59.95157111501455,
stimuli/lamp_bump_09_a.png,stimuli/lamp_bump_09_b.png,6,29,269,28,"[0, 1]",right,1,22,20,m,y,y,2019_Jul_16_1056,2AFC_task,59.95157111501455,
stimuli/lamp_light_08_a.png,stimuli/lamp_light_08_b.png,6,30,270,37,"[1, 0]",left,1,22,20,m,y,y,2019_Jul_16_1056,2AFC_task,59.95157111501455,
stimuli/lamp_light_04_a.png,stimuli/lamp_light_04_b.png,6,31,271,33,"[0, 1]",right,1,22,20,m,y,y,2019_Jul_16_1056,2AFC_task,59.95157111501455,
stimuli/lamp_light_10_a.png,stimuli/lamp_light_10_b.png,6,32,272,39,"[0, 1]",right,1,22,20,m,y,y,2019_Jul_16_1056,2AFC_task,59.95157111501455,
stimuli/hdri_light_07_a.png,stimuli/hdri_light_07_b.png,6,33,273,16,"[1, 0]",left,1,22,20,m,y,y,2019_Jul_16_1056,2AFC_task,59.95157111501455,
stimuli/hdri_bump_09_a.png,stimuli/hdri_bump_09_b.png,6,34,274,8,"[1, 0]",left,1,22,20,m,y,y,2019_Jul_16_1056,2AFC_task,59.95157111501455,
stimuli/hdri_light_06_a.png,stimuli/hdri_light_06_b.png,6,35,275,15,"[1, 0]",right,0,22,20,m,y,y,2019_Jul_16_1056,2AFC_task,59.95157111501455,
stimuli/hdri_light_08_a.png,stimuli/hdri_light_08_b.png,6,36,276,17,"[0, 1]",right,1,22,20,m,y,y,2019_Jul_16_1056,2AFC_task,59.95157111501455,
stimuli/lamp_bump_05_a.png,stimuli/lamp_bump_05_b.png,6,37,277,24,"[1, 0]",left,1,22,20,m,y,y,2019_Jul_16_1056,2AFC_task,59.95157111501455,
stimuli/hdri_bump_10_a.png,stimuli/hdri_bump_10_b.png,6,38,278,9,"[0, 1]",right,1,22,20,m,y,y,2019_Jul_16_1056,2AFC_task,59.95157111501455,
stimuli/lamp_light_07_a.png,stimuli/lamp_light_07_b.png,6,39,279,36,"[1, 0]",left,1,22,20,m,y,y,2019_Jul_16_1056,2AFC_task,59.95157111501455,
stimuli/hdri_bump_08_a.png,stimuli/hdri_bump_08_b.png,7,0,280,7,"[0, 1]",right,1,22,20,m,y,y,2019_Jul_16_1056,2AFC_task,59.95157111501455,
stimuli/hdri_light_08_a.png,stimuli/hdri_light_08_b.png,7,1,281,17,"[0, 1]",right,1,22,20,m,y,y,2019_Jul_16_1056,2AFC_task,59.95157111501455,
stimuli/hdri_bump_09_a.png,stimuli/hdri_bump_09_b.png,7,2,282,8,"[1, 0]",left,1,22,20,m,y,y,2019_Jul_16_1056,2AFC_task,59.95157111501455,
stimuli/lamp_bump_05_a.png,stimuli/lamp_bump_05_b.png,7,3,283,24,"[1, 0]",left,1,22,20,m,y,y,2019_Jul_16_1056,2AFC_task,59.95157111501455,
stimuli/lamp_light_01_a.png,stimuli/lamp_light_01_b.png,7,4,284,30,"[1, 0]",right,0,22,20,m,y,y,2019_Jul_16_1056,2AFC_task,59.95157111501455,
stimuli/lamp_light_07_a.png,stimuli/lamp_light_07_b.png,7,5,285,36,"[1, 0]",left,1,22,20,m,y,y,2019_Jul_16_1056,2AFC_task,59.95157111501455,
stimuli/hdri_bump_10_a.png,stimuli/hdri_bump_10_b.png,7,6,286,9,"[1, 0]",left,1,22,20,m,y,y,2019_Jul_16_1056,2AFC_task,59.95157111501455,
stimuli/hdri_light_01_a.png,stimuli/hdri_light_01_b.png,7,7,287,10,"[0, 1]",left,0,22,20,m,y,y,2019_Jul_16_1056,2AFC_task,59.95157111501455,
stimuli/hdri_light_07_a.png,stimuli/hdri_light_07_b.png,7,8,288,16,"[1, 0]",left,1,22,20,m,y,y,2019_Jul_16_1056,2AFC_task,59.95157111501455,
stimuli/hdri_light_02_a.png,stimuli/hdri_light_02_b.png,7,9,289,11,"[0, 1]",right,1,22,20,m,y,y,2019_Jul_16_1056,2AFC_task,59.95157111501455,
stimuli/lamp_bump_07_a.png,stimuli/lamp_bump_07_b.png,7,10,290,26,"[1, 0]",right,0,22,20,m,y,y,2019_Jul_16_1056,2AFC_task,59.95157111501455,
stimuli/lamp_bump_03_a.png,stimuli/lamp_bump_03_b.png,7,11,291,22,"[1, 0]",left,1,22,20,m,y,y,2019_Jul_16_1056,2AFC_task,59.95157111501455,
stimuli/lamp_light_10_a.png,stimuli/lamp_light_10_b.png,7,12,292,39,"[1, 0]",left,1,22,20,m,y,y,2019_Jul_16_1056,2AFC_task,59.95157111501455,
stimuli/lamp_bump_04_a.png,stimuli/lamp_bump_04_b.png,7,13,293,23,"[1, 0]",left,1,22,20,m,y,y,2019_Jul_16_1056,2AFC_task,59.95157111501455,
stimuli/hdri_bump_03_a.png,stimuli/hdri_bump_03_b.png,7,14,294,2,"[0, 1]",right,1,22,20,m,y,y,2019_Jul_16_1056,2AFC_task,59.95157111501455,
stimuli/lamp_light_03_a.png,stimuli/lamp_light_03_b.png,7,15,295,32,"[1, 0]",right,0,22,20,m,y,y,2019_Jul_16_1056,2AFC_task,59.95157111501455,
stimuli/hdri_light_06_a.png,stimuli/hdri_light_06_b.png,7,16,296,15,"[0, 1]",left,0,22,20,m,y,y,2019_Jul_16_1056,2AFC_task,59.95157111501455,
stimuli/hdri_bump_01_a.png,stimuli/hdri_bump_01_b.png,7,17,297,0,"[1, 0]",left,1,22,20,m,y,y,2019_Jul_16_1056,2AFC_task,59.95157111501455,
stimuli/lamp_bump_09_a.png,stimuli/lamp_bump_09_b.png,7,18,298,28,"[1, 0]",left,1,22,20,m,y,y,2019_Jul_16_1056,2AFC_task,59.95157111501455,
stimuli/hdri_light_10_a.png,stimuli/hdri_light_10_b.png,7,19,299,19,"[1, 0]",left,1,22,20,m,y,y,2019_Jul_16_1056,2AFC_task,59.95157111501455,
stimuli/lamp_bump_02_a.png,stimuli/lamp_bump_02_b.png,7,20,300,21,"[1, 0]",left,1,22,20,m,y,y,2019_Jul_16_1056,2AFC_task,59.95157111501455,
stimuli/lamp_light_04_a.png,stimuli/lamp_light_04_b.png,7,21,301,33,"[1, 0]",right,0,22,20,m,y,y,2019_Jul_16_1056,2AFC_task,59.95157111501455,
stimuli/lamp_bump_10_a.png,stimuli/lamp_bump_10_b.png,7,22,302,29,"[1, 0]",left,1,22,20,m,y,y,2019_Jul_16_1056,2AFC_task,59.95157111501455,
stimuli/hdri_bump_05_a.png,stimuli/hdri_bump_05_b.png,7,23,303,4,"[0, 1]",right,1,22,20,m,y,y,2019_Jul_16_1056,2AFC_task,59.95157111501455,
stimuli/hdri_bump_02_a.png,stimuli/hdri_bump_02_b.png,7,24,304,1,"[1, 0]",left,1,22,20,m,y,y,2019_Jul_16_1056,2AFC_task,59.95157111501455,
stimuli/hdri_light_09_a.png,stimuli/hdri_light_09_b.png,7,25,305,18,"[1, 0]",right,0,22,20,m,y,y,2019_Jul_16_1056,2AFC_task,59.95157111501455,
stimuli/lamp_bump_08_a.png,stimuli/lamp_bump_08_b.png,7,26,306,27,"[0, 1]",left,0,22,20,m,y,y,2019_Jul_16_1056,2AFC_task,59.95157111501455,
stimuli/hdri_bump_04_a.png,stimuli/hdri_bump_04_b.png,7,27,307,3,"[1, 0]",left,1,22,20,m,y,y,2019_Jul_16_1056,2AFC_task,59.95157111501455,
stimuli/hdri_bump_06_a.png,stimuli/hdri_bump_06_b.png,7,28,308,5,"[0, 1]",right,1,22,20,m,y,y,2019_Jul_16_1056,2AFC_task,59.95157111501455,
stimuli/lamp_light_02_a.png,stimuli/lamp_light_02_b.png,7,29,309,31,"[1, 0]",right,0,22,20,m,y,y,2019_Jul_16_1056,2AFC_task,59.95157111501455,
stimuli/hdri_bump_07_a.png,stimuli/hdri_bump_07_b.png,7,30,310,6,"[1, 0]",left,1,22,20,m,y,y,2019_Jul_16_1056,2AFC_task,59.95157111501455,
stimuli/hdri_light_03_a.png,stimuli/hdri_light_03_b.png,7,31,311,12,"[1, 0]",left,1,22,20,m,y,y,2019_Jul_16_1056,2AFC_task,59.95157111501455,
stimuli/hdri_light_04_a.png,stimuli/hdri_light_04_b.png,7,32,312,13,"[0, 1]",right,1,22,20,m,y,y,2019_Jul_16_1056,2AFC_task,59.95157111501455,
stimuli/lamp_light_05_a.png,stimuli/lamp_light_05_b.png,7,33,313,34,"[1, 0]",left,1,22,20,m,y,y,2019_Jul_16_1056,2AFC_task,59.95157111501455,
stimuli/lamp_light_06_a.png,stimuli/lamp_light_06_b.png,7,34,314,35,"[0, 1]",right,1,22,20,m,y,y,2019_Jul_16_1056,2AFC_task,59.95157111501455,
stimuli/lamp_light_08_a.png,stimuli/lamp_light_08_b.png,7,35,315,37,"[0, 1]",right,1,22,20,m,y,y,2019_Jul_16_1056,2AFC_task,59.95157111501455,
stimuli/lamp_light_09_a.png,stimuli/lamp_light_09_b.png,7,36,316,38,"[0, 1]",right,1,22,20,m,y,y,2019_Jul_16_1056,2AFC_task,59.95157111501455,
stimuli/lamp_bump_06_a.png,stimuli/lamp_bump_06_b.png,7,37,317,25,"[0, 1]",right,1,22,20,m,y,y,2019_Jul_16_1056,2AFC_task,59.95157111501455,
stimuli/lamp_bump_01_a.png,stimuli/lamp_bump_01_b.png,7,38,318,20,"[0, 1]",right,1,22,20,m,y,y,2019_Jul_16_1056,2AFC_task,59.95157111501455,
stimuli/hdri_light_05_a.png,stimuli/hdri_light_05_b.png,7,39,319,14,"[0, 1]",left,0,22,20,m,y,y,2019_Jul_16_1056,2AFC_task,59.95157111501455,
