stimOne,stimTwo,trials_1.thisRepN,trials_1.thisTrialN,trials_1.thisN,trials_1.thisIndex,presentation_positions,resp_key,corresponding_image,participant ID (two digits, e.g. 01),age,gender (m/f/-),normal or corrected-to-normal vision (y/n),normal colour vision (y/n),date,expName,frameRate,
stimuli/hdri_light_03_a.png,stimuli/hdri_light_03_b.png,0,0,0,12,"[0, 1]",left,0,26,19,f,y,y,2019_Jul_15_1241,2AFC_task,59.9440242695928,
stimuli/hdri_bump_01_a.png,stimuli/hdri_bump_01_b.png,0,1,1,0,"[0, 1]",right,1,26,19,f,y,y,2019_Jul_15_1241,2AFC_task,59.9440242695928,
stimuli/hdri_bump_02_a.png,stimuli/hdri_bump_02_b.png,0,2,2,1,"[0, 1]",right,1,26,19,f,y,y,2019_Jul_15_1241,2AFC_task,59.9440242695928,
stimuli/hdri_bump_09_a.png,stimuli/hdri_bump_09_b.png,0,3,3,8,"[1, 0]",left,1,26,19,f,y,y,2019_Jul_15_1241,2AFC_task,59.9440242695928,
stimuli/lamp_light_07_a.png,stimuli/lamp_light_07_b.png,0,4,4,36,"[0, 1]",right,1,26,19,f,y,y,2019_Jul_15_1241,2AFC_task,59.9440242695928,
stimuli/lamp_bump_06_a.png,stimuli/lamp_bump_06_b.png,0,5,5,25,"[1, 0]",left,1,26,19,f,y,y,2019_Jul_15_1241,2AFC_task,59.9440242695928,
stimuli/hdri_light_04_a.png,stimuli/hdri_light_04_b.png,0,6,6,13,"[0, 1]",right,1,26,19,f,y,y,2019_Jul_15_1241,2AFC_task,59.9440242695928,
stimuli/hdri_bump_04_a.png,stimuli/hdri_bump_04_b.png,0,7,7,3,"[1, 0]",left,1,26,19,f,y,y,2019_Jul_15_1241,2AFC_task,59.9440242695928,
stimuli/lamp_bump_04_a.png,stimuli/lamp_bump_04_b.png,0,8,8,23,"[1, 0]",left,1,26,19,f,y,y,2019_Jul_15_1241,2AFC_task,59.9440242695928,
stimuli/lamp_bump_08_a.png,stimuli/lamp_bump_08_b.png,0,9,9,27,"[1, 0]",left,1,26,19,f,y,y,2019_Jul_15_1241,2AFC_task,59.9440242695928,
stimuli/hdri_light_05_a.png,stimuli/hdri_light_05_b.png,0,10,10,14,"[0, 1]",right,1,26,19,f,y,y,2019_Jul_15_1241,2AFC_task,59.9440242695928,
stimuli/lamp_bump_05_a.png,stimuli/lamp_bump_05_b.png,0,11,11,24,"[0, 1]",right,1,26,19,f,y,y,2019_Jul_15_1241,2AFC_task,59.9440242695928,
stimuli/hdri_bump_07_a.png,stimuli/hdri_bump_07_b.png,0,12,12,6,"[0, 1]",right,1,26,19,f,y,y,2019_Jul_15_1241,2AFC_task,59.9440242695928,
stimuli/lamp_bump_03_a.png,stimuli/lamp_bump_03_b.png,0,13,13,22,"[1, 0]",left,1,26,19,f,y,y,2019_Jul_15_1241,2AFC_task,59.9440242695928,
stimuli/lamp_light_10_a.png,stimuli/lamp_light_10_b.png,0,14,14,39,"[1, 0]",left,1,26,19,f,y,y,2019_Jul_15_1241,2AFC_task,59.9440242695928,
stimuli/hdri_light_06_a.png,stimuli/hdri_light_06_b.png,0,15,15,15,"[0, 1]",left,0,26,19,f,y,y,2019_Jul_15_1241,2AFC_task,59.9440242695928,
stimuli/lamp_bump_07_a.png,stimuli/lamp_bump_07_b.png,0,16,16,26,"[0, 1]",right,1,26,19,f,y,y,2019_Jul_15_1241,2AFC_task,59.9440242695928,
stimuli/hdri_light_10_a.png,stimuli/hdri_light_10_b.png,0,17,17,19,"[1, 0]",left,1,26,19,f,y,y,2019_Jul_15_1241,2AFC_task,59.9440242695928,
stimuli/hdri_bump_08_a.png,stimuli/hdri_bump_08_b.png,0,18,18,7,"[0, 1]",right,1,26,19,f,y,y,2019_Jul_15_1241,2AFC_task,59.9440242695928,
stimuli/lamp_light_02_a.png,stimuli/lamp_light_02_b.png,0,19,19,31,"[1, 0]",left,1,26,19,f,y,y,2019_Jul_15_1241,2AFC_task,59.9440242695928,
stimuli/lamp_bump_10_a.png,stimuli/lamp_bump_10_b.png,0,20,20,29,"[1, 0]",left,1,26,19,f,y,y,2019_Jul_15_1241,2AFC_task,59.9440242695928,
stimuli/lamp_light_06_a.png,stimuli/lamp_light_06_b.png,0,21,21,35,"[1, 0]",left,1,26,19,f,y,y,2019_Jul_15_1241,2AFC_task,59.9440242695928,
stimuli/hdri_bump_03_a.png,stimuli/hdri_bump_03_b.png,0,22,22,2,"[0, 1]",right,1,26,19,f,y,y,2019_Jul_15_1241,2AFC_task,59.9440242695928,
stimuli/hdri_bump_10_a.png,stimuli/hdri_bump_10_b.png,0,23,23,9,"[1, 0]",left,1,26,19,f,y,y,2019_Jul_15_1241,2AFC_task,59.9440242695928,
stimuli/hdri_light_01_a.png,stimuli/hdri_light_01_b.png,0,24,24,10,"[0, 1]",left,0,26,19,f,y,y,2019_Jul_15_1241,2AFC_task,59.9440242695928,
stimuli/hdri_light_07_a.png,stimuli/hdri_light_07_b.png,0,25,25,16,"[1, 0]",left,1,26,19,f,y,y,2019_Jul_15_1241,2AFC_task,59.9440242695928,
stimuli/lamp_bump_02_a.png,stimuli/lamp_bump_02_b.png,0,26,26,21,"[0, 1]",right,1,26,19,f,y,y,2019_Jul_15_1241,2AFC_task,59.9440242695928,
stimuli/hdri_light_02_a.png,stimuli/hdri_light_02_b.png,0,27,27,11,"[0, 1]",right,1,26,19,f,y,y,2019_Jul_15_1241,2AFC_task,59.9440242695928,
stimuli/lamp_light_09_a.png,stimuli/lamp_light_09_b.png,0,28,28,38,"[1, 0]",left,1,26,19,f,y,y,2019_Jul_15_1241,2AFC_task,59.9440242695928,
stimuli/lamp_bump_09_a.png,stimuli/lamp_bump_09_b.png,0,29,29,28,"[0, 1]",right,1,26,19,f,y,y,2019_Jul_15_1241,2AFC_task,59.9440242695928,
stimuli/hdri_bump_06_a.png,stimuli/hdri_bump_06_b.png,0,30,30,5,"[1, 0]",right,0,26,19,f,y,y,2019_Jul_15_1241,2AFC_task,59.9440242695928,
stimuli/lamp_bump_01_a.png,stimuli/lamp_bump_01_b.png,0,31,31,20,"[1, 0]",left,1,26,19,f,y,y,2019_Jul_15_1241,2AFC_task,59.9440242695928,
stimuli/lamp_light_05_a.png,stimuli/lamp_light_05_b.png,0,32,32,34,"[0, 1]",right,1,26,19,f,y,y,2019_Jul_15_1241,2AFC_task,59.9440242695928,
stimuli/hdri_light_09_a.png,stimuli/hdri_light_09_b.png,0,33,33,18,"[0, 1]",left,0,26,19,f,y,y,2019_Jul_15_1241,2AFC_task,59.9440242695928,
stimuli/hdri_bump_05_a.png,stimuli/hdri_bump_05_b.png,0,34,34,4,"[1, 0]",left,1,26,19,f,y,y,2019_Jul_15_1241,2AFC_task,59.9440242695928,
stimuli/lamp_light_01_a.png,stimuli/lamp_light_01_b.png,0,35,35,30,"[0, 1]",right,1,26,19,f,y,y,2019_Jul_15_1241,2AFC_task,59.9440242695928,
stimuli/lamp_light_08_a.png,stimuli/lamp_light_08_b.png,0,36,36,37,"[1, 0]",left,1,26,19,f,y,y,2019_Jul_15_1241,2AFC_task,59.9440242695928,
stimuli/hdri_light_08_a.png,stimuli/hdri_light_08_b.png,0,37,37,17,"[0, 1]",right,1,26,19,f,y,y,2019_Jul_15_1241,2AFC_task,59.9440242695928,
stimuli/lamp_light_03_a.png,stimuli/lamp_light_03_b.png,0,38,38,32,"[0, 1]",right,1,26,19,f,y,y,2019_Jul_15_1241,2AFC_task,59.9440242695928,
stimuli/lamp_light_04_a.png,stimuli/lamp_light_04_b.png,0,39,39,33,"[1, 0]",left,1,26,19,f,y,y,2019_Jul_15_1241,2AFC_task,59.9440242695928,
stimuli/hdri_bump_01_a.png,stimuli/hdri_bump_01_b.png,1,0,40,0,"[0, 1]",right,1,26,19,f,y,y,2019_Jul_15_1241,2AFC_task,59.9440242695928,
stimuli/lamp_bump_05_a.png,stimuli/lamp_bump_05_b.png,1,1,41,24,"[0, 1]",right,1,26,19,f,y,y,2019_Jul_15_1241,2AFC_task,59.9440242695928,
stimuli/lamp_bump_02_a.png,stimuli/lamp_bump_02_b.png,1,2,42,21,"[1, 0]",left,1,26,19,f,y,y,2019_Jul_15_1241,2AFC_task,59.9440242695928,
stimuli/lamp_bump_04_a.png,stimuli/lamp_bump_04_b.png,1,3,43,23,"[1, 0]",left,1,26,19,f,y,y,2019_Jul_15_1241,2AFC_task,59.9440242695928,
stimuli/lamp_bump_06_a.png,stimuli/lamp_bump_06_b.png,1,4,44,25,"[1, 0]",left,1,26,19,f,y,y,2019_Jul_15_1241,2AFC_task,59.9440242695928,
stimuli/hdri_bump_09_a.png,stimuli/hdri_bump_09_b.png,1,5,45,8,"[0, 1]",right,1,26,19,f,y,y,2019_Jul_15_1241,2AFC_task,59.9440242695928,
stimuli/hdri_light_01_a.png,stimuli/hdri_light_01_b.png,1,6,46,10,"[0, 1]",left,0,26,19,f,y,y,2019_Jul_15_1241,2AFC_task,59.9440242695928,
stimuli/hdri_bump_07_a.png,stimuli/hdri_bump_07_b.png,1,7,47,6,"[0, 1]",right,1,26,19,f,y,y,2019_Jul_15_1241,2AFC_task,59.9440242695928,
stimuli/lamp_light_09_a.png,stimuli/lamp_light_09_b.png,1,8,48,38,"[0, 1]",right,1,26,19,f,y,y,2019_Jul_15_1241,2AFC_task,59.9440242695928,
stimuli/lamp_bump_09_a.png,stimuli/lamp_bump_09_b.png,1,9,49,28,"[1, 0]",left,1,26,19,f,y,y,2019_Jul_15_1241,2AFC_task,59.9440242695928,
stimuli/lamp_bump_10_a.png,stimuli/lamp_bump_10_b.png,1,10,50,29,"[0, 1]",right,1,26,19,f,y,y,2019_Jul_15_1241,2AFC_task,59.9440242695928,
stimuli/hdri_bump_04_a.png,stimuli/hdri_bump_04_b.png,1,11,51,3,"[1, 0]",left,1,26,19,f,y,y,2019_Jul_15_1241,2AFC_task,59.9440242695928,
stimuli/lamp_light_02_a.png,stimuli/lamp_light_02_b.png,1,12,52,31,"[0, 1]",right,1,26,19,f,y,y,2019_Jul_15_1241,2AFC_task,59.9440242695928,
stimuli/lamp_bump_01_a.png,stimuli/lamp_bump_01_b.png,1,13,53,20,"[1, 0]",left,1,26,19,f,y,y,2019_Jul_15_1241,2AFC_task,59.9440242695928,
stimuli/lamp_bump_07_a.png,stimuli/lamp_bump_07_b.png,1,14,54,26,"[0, 1]",right,1,26,19,f,y,y,2019_Jul_15_1241,2AFC_task,59.9440242695928,
stimuli/lamp_light_07_a.png,stimuli/lamp_light_07_b.png,1,15,55,36,"[1, 0]",left,1,26,19,f,y,y,2019_Jul_15_1241,2AFC_task,59.9440242695928,
stimuli/hdri_bump_03_a.png,stimuli/hdri_bump_03_b.png,1,16,56,2,"[0, 1]",right,1,26,19,f,y,y,2019_Jul_15_1241,2AFC_task,59.9440242695928,
stimuli/lamp_light_01_a.png,stimuli/lamp_light_01_b.png,1,17,57,30,"[1, 0]",left,1,26,19,f,y,y,2019_Jul_15_1241,2AFC_task,59.9440242695928,
stimuli/hdri_light_09_a.png,stimuli/hdri_light_09_b.png,1,18,58,18,"[0, 1]",left,0,26,19,f,y,y,2019_Jul_15_1241,2AFC_task,59.9440242695928,
stimuli/hdri_light_03_a.png,stimuli/hdri_light_03_b.png,1,19,59,12,"[0, 1]",right,1,26,19,f,y,y,2019_Jul_15_1241,2AFC_task,59.9440242695928,
stimuli/hdri_bump_05_a.png,stimuli/hdri_bump_05_b.png,1,20,60,4,"[0, 1]",right,1,26,19,f,y,y,2019_Jul_15_1241,2AFC_task,59.9440242695928,
stimuli/lamp_light_05_a.png,stimuli/lamp_light_05_b.png,1,21,61,34,"[1, 0]",left,1,26,19,f,y,y,2019_Jul_15_1241,2AFC_task,59.9440242695928,
stimuli/lamp_light_10_a.png,stimuli/lamp_light_10_b.png,1,22,62,39,"[0, 1]",right,1,26,19,f,y,y,2019_Jul_15_1241,2AFC_task,59.9440242695928,
stimuli/lamp_bump_08_a.png,stimuli/lamp_bump_08_b.png,1,23,63,27,"[1, 0]",left,1,26,19,f,y,y,2019_Jul_15_1241,2AFC_task,59.9440242695928,
stimuli/lamp_light_08_a.png,stimuli/lamp_light_08_b.png,1,24,64,37,"[1, 0]",left,1,26,19,f,y,y,2019_Jul_15_1241,2AFC_task,59.9440242695928,
stimuli/hdri_light_07_a.png,stimuli/hdri_light_07_b.png,1,25,65,16,"[1, 0]",left,1,26,19,f,y,y,2019_Jul_15_1241,2AFC_task,59.9440242695928,
stimuli/hdri_bump_10_a.png,stimuli/hdri_bump_10_b.png,1,26,66,9,"[0, 1]",right,1,26,19,f,y,y,2019_Jul_15_1241,2AFC_task,59.9440242695928,
stimuli/lamp_light_06_a.png,stimuli/lamp_light_06_b.png,1,27,67,35,"[0, 1]",right,1,26,19,f,y,y,2019_Jul_15_1241,2AFC_task,59.9440242695928,
stimuli/hdri_light_08_a.png,stimuli/hdri_light_08_b.png,1,28,68,17,"[0, 1]",right,1,26,19,f,y,y,2019_Jul_15_1241,2AFC_task,59.9440242695928,
stimuli/hdri_light_05_a.png,stimuli/hdri_light_05_b.png,1,29,69,14,"[1, 0]",right,0,26,19,f,y,y,2019_Jul_15_1241,2AFC_task,59.9440242695928,
stimuli/hdri_bump_08_a.png,stimuli/hdri_bump_08_b.png,1,30,70,7,"[0, 1]",right,1,26,19,f,y,y,2019_Jul_15_1241,2AFC_task,59.9440242695928,
stimuli/lamp_light_03_a.png,stimuli/lamp_light_03_b.png,1,31,71,32,"[1, 0]",left,1,26,19,f,y,y,2019_Jul_15_1241,2AFC_task,59.9440242695928,
stimuli/hdri_bump_02_a.png,stimuli/hdri_bump_02_b.png,1,32,72,1,"[0, 1]",right,1,26,19,f,y,y,2019_Jul_15_1241,2AFC_task,59.9440242695928,
stimuli/hdri_bump_06_a.png,stimuli/hdri_bump_06_b.png,1,33,73,5,"[1, 0]",left,1,26,19,f,y,y,2019_Jul_15_1241,2AFC_task,59.9440242695928,
stimuli/hdri_light_02_a.png,stimuli/hdri_light_02_b.png,1,34,74,11,"[0, 1]",right,1,26,19,f,y,y,2019_Jul_15_1241,2AFC_task,59.9440242695928,
stimuli/lamp_light_04_a.png,stimuli/lamp_light_04_b.png,1,35,75,33,"[0, 1]",right,1,26,19,f,y,y,2019_Jul_15_1241,2AFC_task,59.9440242695928,
stimuli/hdri_light_04_a.png,stimuli/hdri_light_04_b.png,1,36,76,13,"[1, 0]",left,1,26,19,f,y,y,2019_Jul_15_1241,2AFC_task,59.9440242695928,
stimuli/hdri_light_06_a.png,stimuli/hdri_light_06_b.png,1,37,77,15,"[0, 1]",left,0,26,19,f,y,y,2019_Jul_15_1241,2AFC_task,59.9440242695928,
stimuli/lamp_bump_03_a.png,stimuli/lamp_bump_03_b.png,1,38,78,22,"[1, 0]",left,1,26,19,f,y,y,2019_Jul_15_1241,2AFC_task,59.9440242695928,
stimuli/hdri_light_10_a.png,stimuli/hdri_light_10_b.png,1,39,79,19,"[1, 0]",left,1,26,19,f,y,y,2019_Jul_15_1241,2AFC_task,59.9440242695928,
stimuli/lamp_bump_03_a.png,stimuli/lamp_bump_03_b.png,2,0,80,22,"[1, 0]",left,1,26,19,f,y,y,2019_Jul_15_1241,2AFC_task,59.9440242695928,
stimuli/hdri_light_03_a.png,stimuli/hdri_light_03_b.png,2,1,81,12,"[0, 1]",left,0,26,19,f,y,y,2019_Jul_15_1241,2AFC_task,59.9440242695928,
stimuli/lamp_bump_05_a.png,stimuli/lamp_bump_05_b.png,2,2,82,24,"[0, 1]",right,1,26,19,f,y,y,2019_Jul_15_1241,2AFC_task,59.9440242695928,
stimuli/hdri_bump_07_a.png,stimuli/hdri_bump_07_b.png,2,3,83,6,"[0, 1]",right,1,26,19,f,y,y,2019_Jul_15_1241,2AFC_task,59.9440242695928,
stimuli/lamp_bump_07_a.png,stimuli/lamp_bump_07_b.png,2,4,84,26,"[0, 1]",right,1,26,19,f,y,y,2019_Jul_15_1241,2AFC_task,59.9440242695928,
stimuli/lamp_bump_09_a.png,stimuli/lamp_bump_09_b.png,2,5,85,28,"[0, 1]",right,1,26,19,f,y,y,2019_Jul_15_1241,2AFC_task,59.9440242695928,
stimuli/lamp_light_07_a.png,stimuli/lamp_light_07_b.png,2,6,86,36,"[0, 1]",right,1,26,19,f,y,y,2019_Jul_15_1241,2AFC_task,59.9440242695928,
stimuli/hdri_bump_06_a.png,stimuli/hdri_bump_06_b.png,2,7,87,5,"[1, 0]",left,1,26,19,f,y,y,2019_Jul_15_1241,2AFC_task,59.9440242695928,
stimuli/hdri_light_05_a.png,stimuli/hdri_light_05_b.png,2,8,88,14,"[0, 1]",left,0,26,19,f,y,y,2019_Jul_15_1241,2AFC_task,59.9440242695928,
stimuli/lamp_bump_08_a.png,stimuli/lamp_bump_08_b.png,2,9,89,27,"[0, 1]",right,1,26,19,f,y,y,2019_Jul_15_1241,2AFC_task,59.9440242695928,
stimuli/hdri_bump_01_a.png,stimuli/hdri_bump_01_b.png,2,10,90,0,"[0, 1]",right,1,26,19,f,y,y,2019_Jul_15_1241,2AFC_task,59.9440242695928,
stimuli/lamp_bump_02_a.png,stimuli/lamp_bump_02_b.png,2,11,91,21,"[0, 1]",right,1,26,19,f,y,y,2019_Jul_15_1241,2AFC_task,59.9440242695928,
stimuli/hdri_light_07_a.png,stimuli/hdri_light_07_b.png,2,12,92,16,"[0, 1]",left,0,26,19,f,y,y,2019_Jul_15_1241,2AFC_task,59.9440242695928,
stimuli/lamp_light_03_a.png,stimuli/lamp_light_03_b.png,2,13,93,32,"[1, 0]",left,1,26,19,f,y,y,2019_Jul_15_1241,2AFC_task,59.9440242695928,
stimuli/lamp_bump_06_a.png,stimuli/lamp_bump_06_b.png,2,14,94,25,"[0, 1]",right,1,26,19,f,y,y,2019_Jul_15_1241,2AFC_task,59.9440242695928,
stimuli/lamp_light_10_a.png,stimuli/lamp_light_10_b.png,2,15,95,39,"[1, 0]",left,1,26,19,f,y,y,2019_Jul_15_1241,2AFC_task,59.9440242695928,
stimuli/lamp_light_08_a.png,stimuli/lamp_light_08_b.png,2,16,96,37,"[0, 1]",right,1,26,19,f,y,y,2019_Jul_15_1241,2AFC_task,59.9440242695928,
stimuli/lamp_light_01_a.png,stimuli/lamp_light_01_b.png,2,17,97,30,"[1, 0]",left,1,26,19,f,y,y,2019_Jul_15_1241,2AFC_task,59.9440242695928,
stimuli/lamp_light_09_a.png,stimuli/lamp_light_09_b.png,2,18,98,38,"[1, 0]",left,1,26,19,f,y,y,2019_Jul_15_1241,2AFC_task,59.9440242695928,
stimuli/hdri_light_10_a.png,stimuli/hdri_light_10_b.png,2,19,99,19,"[1, 0]",left,1,26,19,f,y,y,2019_Jul_15_1241,2AFC_task,59.9440242695928,
stimuli/hdri_light_09_a.png,stimuli/hdri_light_09_b.png,2,20,100,18,"[1, 0]",right,0,26,19,f,y,y,2019_Jul_15_1241,2AFC_task,59.9440242695928,
stimuli/lamp_light_02_a.png,stimuli/lamp_light_02_b.png,2,21,101,31,"[1, 0]",left,1,26,19,f,y,y,2019_Jul_15_1241,2AFC_task,59.9440242695928,
stimuli/hdri_bump_03_a.png,stimuli/hdri_bump_03_b.png,2,22,102,2,"[1, 0]",left,1,26,19,f,y,y,2019_Jul_15_1241,2AFC_task,59.9440242695928,
stimuli/hdri_bump_04_a.png,stimuli/hdri_bump_04_b.png,2,23,103,3,"[1, 0]",left,1,26,19,f,y,y,2019_Jul_15_1241,2AFC_task,59.9440242695928,
stimuli/lamp_bump_04_a.png,stimuli/lamp_bump_04_b.png,2,24,104,23,"[1, 0]",left,1,26,19,f,y,y,2019_Jul_15_1241,2AFC_task,59.9440242695928,
stimuli/lamp_light_05_a.png,stimuli/lamp_light_05_b.png,2,25,105,34,"[0, 1]",right,1,26,19,f,y,y,2019_Jul_15_1241,2AFC_task,59.9440242695928,
stimuli/hdri_light_01_a.png,stimuli/hdri_light_01_b.png,2,26,106,10,"[1, 0]",right,0,26,19,f,y,y,2019_Jul_15_1241,2AFC_task,59.9440242695928,
stimuli/hdri_bump_05_a.png,stimuli/hdri_bump_05_b.png,2,27,107,4,"[0, 1]",right,1,26,19,f,y,y,2019_Jul_15_1241,2AFC_task,59.9440242695928,
stimuli/lamp_bump_01_a.png,stimuli/lamp_bump_01_b.png,2,28,108,20,"[1, 0]",left,1,26,19,f,y,y,2019_Jul_15_1241,2AFC_task,59.9440242695928,
stimuli/hdri_bump_09_a.png,stimuli/hdri_bump_09_b.png,2,29,109,8,"[1, 0]",left,1,26,19,f,y,y,2019_Jul_15_1241,2AFC_task,59.9440242695928,
stimuli/lamp_bump_10_a.png,stimuli/lamp_bump_10_b.png,2,30,110,29,"[0, 1]",right,1,26,19,f,y,y,2019_Jul_15_1241,2AFC_task,59.9440242695928,
stimuli/lamp_light_06_a.png,stimuli/lamp_light_06_b.png,2,31,111,35,"[0, 1]",right,1,26,19,f,y,y,2019_Jul_15_1241,2AFC_task,59.9440242695928,
stimuli/hdri_bump_10_a.png,stimuli/hdri_bump_10_b.png,2,32,112,9,"[0, 1]",right,1,26,19,f,y,y,2019_Jul_15_1241,2AFC_task,59.9440242695928,
stimuli/hdri_light_06_a.png,stimuli/hdri_light_06_b.png,2,33,113,15,"[1, 0]",right,0,26,19,f,y,y,2019_Jul_15_1241,2AFC_task,59.9440242695928,
stimuli/hdri_light_02_a.png,stimuli/hdri_light_02_b.png,2,34,114,11,"[0, 1]",right,1,26,19,f,y,y,2019_Jul_15_1241,2AFC_task,59.9440242695928,
stimuli/hdri_light_04_a.png,stimuli/hdri_light_04_b.png,2,35,115,13,"[1, 0]",left,1,26,19,f,y,y,2019_Jul_15_1241,2AFC_task,59.9440242695928,
stimuli/hdri_light_08_a.png,stimuli/hdri_light_08_b.png,2,36,116,17,"[1, 0]",left,1,26,19,f,y,y,2019_Jul_15_1241,2AFC_task,59.9440242695928,
stimuli/hdri_bump_02_a.png,stimuli/hdri_bump_02_b.png,2,37,117,1,"[0, 1]",right,1,26,19,f,y,y,2019_Jul_15_1241,2AFC_task,59.9440242695928,
stimuli/lamp_light_04_a.png,stimuli/lamp_light_04_b.png,2,38,118,33,"[0, 1]",right,1,26,19,f,y,y,2019_Jul_15_1241,2AFC_task,59.9440242695928,
stimuli/hdri_bump_08_a.png,stimuli/hdri_bump_08_b.png,2,39,119,7,"[1, 0]",left,1,26,19,f,y,y,2019_Jul_15_1241,2AFC_task,59.9440242695928,
stimuli/hdri_bump_10_a.png,stimuli/hdri_bump_10_b.png,3,0,120,9,"[1, 0]",left,1,26,19,f,y,y,2019_Jul_15_1241,2AFC_task,59.9440242695928,
stimuli/lamp_bump_03_a.png,stimuli/lamp_bump_03_b.png,3,1,121,22,"[0, 1]",right,1,26,19,f,y,y,2019_Jul_15_1241,2AFC_task,59.9440242695928,
stimuli/hdri_bump_08_a.png,stimuli/hdri_bump_08_b.png,3,2,122,7,"[0, 1]",right,1,26,19,f,y,y,2019_Jul_15_1241,2AFC_task,59.9440242695928,
stimuli/hdri_bump_03_a.png,stimuli/hdri_bump_03_b.png,3,3,123,2,"[0, 1]",right,1,26,19,f,y,y,2019_Jul_15_1241,2AFC_task,59.9440242695928,
stimuli/lamp_bump_05_a.png,stimuli/lamp_bump_05_b.png,3,4,124,24,"[0, 1]",right,1,26,19,f,y,y,2019_Jul_15_1241,2AFC_task,59.9440242695928,
stimuli/lamp_bump_06_a.png,stimuli/lamp_bump_06_b.png,3,5,125,25,"[1, 0]",left,1,26,19,f,y,y,2019_Jul_15_1241,2AFC_task,59.9440242695928,
stimuli/lamp_bump_08_a.png,stimuli/lamp_bump_08_b.png,3,6,126,27,"[1, 0]",left,1,26,19,f,y,y,2019_Jul_15_1241,2AFC_task,59.9440242695928,
stimuli/lamp_light_09_a.png,stimuli/lamp_light_09_b.png,3,7,127,38,"[1, 0]",left,1,26,19,f,y,y,2019_Jul_15_1241,2AFC_task,59.9440242695928,
stimuli/lamp_bump_01_a.png,stimuli/lamp_bump_01_b.png,3,8,128,20,"[0, 1]",right,1,26,19,f,y,y,2019_Jul_15_1241,2AFC_task,59.9440242695928,
stimuli/hdri_light_01_a.png,stimuli/hdri_light_01_b.png,3,9,129,10,"[1, 0]",right,0,26,19,f,y,y,2019_Jul_15_1241,2AFC_task,59.9440242695928,
stimuli/hdri_light_06_a.png,stimuli/hdri_light_06_b.png,3,10,130,15,"[1, 0]",right,0,26,19,f,y,y,2019_Jul_15_1241,2AFC_task,59.9440242695928,
stimuli/hdri_bump_04_a.png,stimuli/hdri_bump_04_b.png,3,11,131,3,"[1, 0]",left,1,26,19,f,y,y,2019_Jul_15_1241,2AFC_task,59.9440242695928,
stimuli/lamp_bump_09_a.png,stimuli/lamp_bump_09_b.png,3,12,132,28,"[1, 0]",left,1,26,19,f,y,y,2019_Jul_15_1241,2AFC_task,59.9440242695928,
stimuli/lamp_bump_02_a.png,stimuli/lamp_bump_02_b.png,3,13,133,21,"[0, 1]",right,1,26,19,f,y,y,2019_Jul_15_1241,2AFC_task,59.9440242695928,
stimuli/lamp_light_03_a.png,stimuli/lamp_light_03_b.png,3,14,134,32,"[0, 1]",right,1,26,19,f,y,y,2019_Jul_15_1241,2AFC_task,59.9440242695928,
stimuli/hdri_light_09_a.png,stimuli/hdri_light_09_b.png,3,15,135,18,"[1, 0]",right,0,26,19,f,y,y,2019_Jul_15_1241,2AFC_task,59.9440242695928,
stimuli/hdri_light_08_a.png,stimuli/hdri_light_08_b.png,3,16,136,17,"[0, 1]",right,1,26,19,f,y,y,2019_Jul_15_1241,2AFC_task,59.9440242695928,
stimuli/hdri_light_04_a.png,stimuli/hdri_light_04_b.png,3,17,137,13,"[1, 0]",left,1,26,19,f,y,y,2019_Jul_15_1241,2AFC_task,59.9440242695928,
stimuli/lamp_light_01_a.png,stimuli/lamp_light_01_b.png,3,18,138,30,"[1, 0]",left,1,26,19,f,y,y,2019_Jul_15_1241,2AFC_task,59.9440242695928,
stimuli/lamp_light_02_a.png,stimuli/lamp_light_02_b.png,3,19,139,31,"[1, 0]",left,1,26,19,f,y,y,2019_Jul_15_1241,2AFC_task,59.9440242695928,
stimuli/hdri_bump_01_a.png,stimuli/hdri_bump_01_b.png,3,20,140,0,"[0, 1]",right,1,26,19,f,y,y,2019_Jul_15_1241,2AFC_task,59.9440242695928,
stimuli/lamp_light_04_a.png,stimuli/lamp_light_04_b.png,3,21,141,33,"[1, 0]",left,1,26,19,f,y,y,2019_Jul_15_1241,2AFC_task,59.9440242695928,
stimuli/hdri_bump_09_a.png,stimuli/hdri_bump_09_b.png,3,22,142,8,"[0, 1]",right,1,26,19,f,y,y,2019_Jul_15_1241,2AFC_task,59.9440242695928,
stimuli/lamp_bump_07_a.png,stimuli/lamp_bump_07_b.png,3,23,143,26,"[0, 1]",right,1,26,19,f,y,y,2019_Jul_15_1241,2AFC_task,59.9440242695928,
stimuli/hdri_light_05_a.png,stimuli/hdri_light_05_b.png,3,24,144,14,"[0, 1]",left,0,26,19,f,y,y,2019_Jul_15_1241,2AFC_task,59.9440242695928,
stimuli/hdri_light_02_a.png,stimuli/hdri_light_02_b.png,3,25,145,11,"[0, 1]",right,1,26,19,f,y,y,2019_Jul_15_1241,2AFC_task,59.9440242695928,
stimuli/lamp_bump_04_a.png,stimuli/lamp_bump_04_b.png,3,26,146,23,"[0, 1]",right,1,26,19,f,y,y,2019_Jul_15_1241,2AFC_task,59.9440242695928,
stimuli/hdri_bump_06_a.png,stimuli/hdri_bump_06_b.png,3,27,147,5,"[1, 0]",left,1,26,19,f,y,y,2019_Jul_15_1241,2AFC_task,59.9440242695928,
stimuli/hdri_bump_07_a.png,stimuli/hdri_bump_07_b.png,3,28,148,6,"[0, 1]",right,1,26,19,f,y,y,2019_Jul_15_1241,2AFC_task,59.9440242695928,
stimuli/lamp_light_05_a.png,stimuli/lamp_light_05_b.png,3,29,149,34,"[1, 0]",left,1,26,19,f,y,y,2019_Jul_15_1241,2AFC_task,59.9440242695928,
stimuli/hdri_light_07_a.png,stimuli/hdri_light_07_b.png,3,30,150,16,"[0, 1]",right,1,26,19,f,y,y,2019_Jul_15_1241,2AFC_task,59.9440242695928,
stimuli/lamp_light_06_a.png,stimuli/lamp_light_06_b.png,3,31,151,35,"[1, 0]",left,1,26,19,f,y,y,2019_Jul_15_1241,2AFC_task,59.9440242695928,
stimuli/lamp_bump_10_a.png,stimuli/lamp_bump_10_b.png,3,32,152,29,"[0, 1]",right,1,26,19,f,y,y,2019_Jul_15_1241,2AFC_task,59.9440242695928,
stimuli/hdri_light_10_a.png,stimuli/hdri_light_10_b.png,3,33,153,19,"[0, 1]",right,1,26,19,f,y,y,2019_Jul_15_1241,2AFC_task,59.9440242695928,
stimuli/hdri_light_03_a.png,stimuli/hdri_light_03_b.png,3,34,154,12,"[1, 0]",left,1,26,19,f,y,y,2019_Jul_15_1241,2AFC_task,59.9440242695928,
stimuli/lamp_light_07_a.png,stimuli/lamp_light_07_b.png,3,35,155,36,"[1, 0]",left,1,26,19,f,y,y,2019_Jul_15_1241,2AFC_task,59.9440242695928,
stimuli/lamp_light_08_a.png,stimuli/lamp_light_08_b.png,3,36,156,37,"[0, 1]",right,1,26,19,f,y,y,2019_Jul_15_1241,2AFC_task,59.9440242695928,
stimuli/lamp_light_10_a.png,stimuli/lamp_light_10_b.png,3,37,157,39,"[0, 1]",right,1,26,19,f,y,y,2019_Jul_15_1241,2AFC_task,59.9440242695928,
stimuli/hdri_bump_02_a.png,stimuli/hdri_bump_02_b.png,3,38,158,1,"[0, 1]",right,1,26,19,f,y,y,2019_Jul_15_1241,2AFC_task,59.9440242695928,
stimuli/hdri_bump_05_a.png,stimuli/hdri_bump_05_b.png,3,39,159,4,"[0, 1]",right,1,26,19,f,y,y,2019_Jul_15_1241,2AFC_task,59.9440242695928,
stimuli/hdri_light_09_a.png,stimuli/hdri_light_09_b.png,4,0,160,18,"[1, 0]",right,0,26,19,f,y,y,2019_Jul_15_1241,2AFC_task,59.9440242695928,
stimuli/lamp_bump_03_a.png,stimuli/lamp_bump_03_b.png,4,1,161,22,"[1, 0]",left,1,26,19,f,y,y,2019_Jul_15_1241,2AFC_task,59.9440242695928,
stimuli/lamp_light_02_a.png,stimuli/lamp_light_02_b.png,4,2,162,31,"[0, 1]",right,1,26,19,f,y,y,2019_Jul_15_1241,2AFC_task,59.9440242695928,
stimuli/hdri_bump_04_a.png,stimuli/hdri_bump_04_b.png,4,3,163,3,"[0, 1]",right,1,26,19,f,y,y,2019_Jul_15_1241,2AFC_task,59.9440242695928,
stimuli/hdri_light_08_a.png,stimuli/hdri_light_08_b.png,4,4,164,17,"[1, 0]",left,1,26,19,f,y,y,2019_Jul_15_1241,2AFC_task,59.9440242695928,
stimuli/lamp_light_08_a.png,stimuli/lamp_light_08_b.png,4,5,165,37,"[0, 1]",left,0,26,19,f,y,y,2019_Jul_15_1241,2AFC_task,59.9440242695928,
stimuli/lamp_bump_09_a.png,stimuli/lamp_bump_09_b.png,4,6,166,28,"[1, 0]",left,1,26,19,f,y,y,2019_Jul_15_1241,2AFC_task,59.9440242695928,
stimuli/hdri_light_03_a.png,stimuli/hdri_light_03_b.png,4,7,167,12,"[1, 0]",left,1,26,19,f,y,y,2019_Jul_15_1241,2AFC_task,59.9440242695928,
stimuli/lamp_bump_08_a.png,stimuli/lamp_bump_08_b.png,4,8,168,27,"[0, 1]",right,1,26,19,f,y,y,2019_Jul_15_1241,2AFC_task,59.9440242695928,
stimuli/hdri_light_02_a.png,stimuli/hdri_light_02_b.png,4,9,169,11,"[0, 1]",right,1,26,19,f,y,y,2019_Jul_15_1241,2AFC_task,59.9440242695928,
stimuli/hdri_bump_09_a.png,stimuli/hdri_bump_09_b.png,4,10,170,8,"[1, 0]",left,1,26,19,f,y,y,2019_Jul_15_1241,2AFC_task,59.9440242695928,
stimuli/hdri_light_10_a.png,stimuli/hdri_light_10_b.png,4,11,171,19,"[1, 0]",left,1,26,19,f,y,y,2019_Jul_15_1241,2AFC_task,59.9440242695928,
stimuli/lamp_light_07_a.png,stimuli/lamp_light_07_b.png,4,12,172,36,"[0, 1]",right,1,26,19,f,y,y,2019_Jul_15_1241,2AFC_task,59.9440242695928,
stimuli/hdri_light_01_a.png,stimuli/hdri_light_01_b.png,4,13,173,10,"[0, 1]",left,0,26,19,f,y,y,2019_Jul_15_1241,2AFC_task,59.9440242695928,
stimuli/lamp_bump_10_a.png,stimuli/lamp_bump_10_b.png,4,14,174,29,"[1, 0]",left,1,26,19,f,y,y,2019_Jul_15_1241,2AFC_task,59.9440242695928,
stimuli/lamp_bump_02_a.png,stimuli/lamp_bump_02_b.png,4,15,175,21,"[1, 0]",left,1,26,19,f,y,y,2019_Jul_15_1241,2AFC_task,59.9440242695928,
stimuli/lamp_bump_01_a.png,stimuli/lamp_bump_01_b.png,4,16,176,20,"[1, 0]",left,1,26,19,f,y,y,2019_Jul_15_1241,2AFC_task,59.9440242695928,
stimuli/hdri_bump_10_a.png,stimuli/hdri_bump_10_b.png,4,17,177,9,"[0, 1]",right,1,26,19,f,y,y,2019_Jul_15_1241,2AFC_task,59.9440242695928,
stimuli/lamp_light_01_a.png,stimuli/lamp_light_01_b.png,4,18,178,30,"[1, 0]",left,1,26,19,f,y,y,2019_Jul_15_1241,2AFC_task,59.9440242695928,
stimuli/hdri_light_04_a.png,stimuli/hdri_light_04_b.png,4,19,179,13,"[0, 1]",right,1,26,19,f,y,y,2019_Jul_15_1241,2AFC_task,59.9440242695928,
stimuli/hdri_bump_07_a.png,stimuli/hdri_bump_07_b.png,4,20,180,6,"[0, 1]",right,1,26,19,f,y,y,2019_Jul_15_1241,2AFC_task,59.9440242695928,
stimuli/lamp_light_09_a.png,stimuli/lamp_light_09_b.png,4,21,181,38,"[1, 0]",left,1,26,19,f,y,y,2019_Jul_15_1241,2AFC_task,59.9440242695928,
stimuli/lamp_bump_06_a.png,stimuli/lamp_bump_06_b.png,4,22,182,25,"[0, 1]",right,1,26,19,f,y,y,2019_Jul_15_1241,2AFC_task,59.9440242695928,
stimuli/lamp_light_04_a.png,stimuli/lamp_light_04_b.png,4,23,183,33,"[1, 0]",left,1,26,19,f,y,y,2019_Jul_15_1241,2AFC_task,59.9440242695928,
stimuli/lamp_bump_05_a.png,stimuli/lamp_bump_05_b.png,4,24,184,24,"[1, 0]",left,1,26,19,f,y,y,2019_Jul_15_1241,2AFC_task,59.9440242695928,
stimuli/hdri_light_05_a.png,stimuli/hdri_light_05_b.png,4,25,185,14,"[1, 0]",right,0,26,19,f,y,y,2019_Jul_15_1241,2AFC_task,59.9440242695928,
stimuli/lamp_bump_04_a.png,stimuli/lamp_bump_04_b.png,4,26,186,23,"[1, 0]",left,1,26,19,f,y,y,2019_Jul_15_1241,2AFC_task,59.9440242695928,
stimuli/lamp_light_05_a.png,stimuli/lamp_light_05_b.png,4,27,187,34,"[0, 1]",right,1,26,19,f,y,y,2019_Jul_15_1241,2AFC_task,59.9440242695928,
stimuli/hdri_bump_06_a.png,stimuli/hdri_bump_06_b.png,4,28,188,5,"[0, 1]",right,1,26,19,f,y,y,2019_Jul_15_1241,2AFC_task,59.9440242695928,
stimuli/lamp_light_06_a.png,stimuli/lamp_light_06_b.png,4,29,189,35,"[0, 1]",right,1,26,19,f,y,y,2019_Jul_15_1241,2AFC_task,59.9440242695928,
stimuli/hdri_light_06_a.png,stimuli/hdri_light_06_b.png,4,30,190,15,"[1, 0]",right,0,26,19,f,y,y,2019_Jul_15_1241,2AFC_task,59.9440242695928,
stimuli/lamp_light_10_a.png,stimuli/lamp_light_10_b.png,4,31,191,39,"[1, 0]",left,1,26,19,f,y,y,2019_Jul_15_1241,2AFC_task,59.9440242695928,
stimuli/hdri_bump_02_a.png,stimuli/hdri_bump_02_b.png,4,32,192,1,"[0, 1]",right,1,26,19,f,y,y,2019_Jul_15_1241,2AFC_task,59.9440242695928,
stimuli/hdri_bump_01_a.png,stimuli/hdri_bump_01_b.png,4,33,193,0,"[0, 1]",right,1,26,19,f,y,y,2019_Jul_15_1241,2AFC_task,59.9440242695928,
stimuli/hdri_bump_05_a.png,stimuli/hdri_bump_05_b.png,4,34,194,4,"[1, 0]",left,1,26,19,f,y,y,2019_Jul_15_1241,2AFC_task,59.9440242695928,
stimuli/lamp_light_03_a.png,stimuli/lamp_light_03_b.png,4,35,195,32,"[0, 1]",right,1,26,19,f,y,y,2019_Jul_15_1241,2AFC_task,59.9440242695928,
stimuli/hdri_bump_08_a.png,stimuli/hdri_bump_08_b.png,4,36,196,7,"[1, 0]",left,1,26,19,f,y,y,2019_Jul_15_1241,2AFC_task,59.9440242695928,
stimuli/hdri_light_07_a.png,stimuli/hdri_light_07_b.png,4,37,197,16,"[0, 1]",right,1,26,19,f,y,y,2019_Jul_15_1241,2AFC_task,59.9440242695928,
stimuli/hdri_bump_03_a.png,stimuli/hdri_bump_03_b.png,4,38,198,2,"[1, 0]",left,1,26,19,f,y,y,2019_Jul_15_1241,2AFC_task,59.9440242695928,
stimuli/lamp_bump_07_a.png,stimuli/lamp_bump_07_b.png,4,39,199,26,"[0, 1]",right,1,26,19,f,y,y,2019_Jul_15_1241,2AFC_task,59.9440242695928,
stimuli/hdri_bump_01_a.png,stimuli/hdri_bump_01_b.png,5,0,200,0,"[1, 0]",left,1,26,19,f,y,y,2019_Jul_15_1241,2AFC_task,59.9440242695928,
stimuli/lamp_light_05_a.png,stimuli/lamp_light_05_b.png,5,1,201,34,"[0, 1]",right,1,26,19,f,y,y,2019_Jul_15_1241,2AFC_task,59.9440242695928,
stimuli/lamp_light_03_a.png,stimuli/lamp_light_03_b.png,5,2,202,32,"[1, 0]",left,1,26,19,f,y,y,2019_Jul_15_1241,2AFC_task,59.9440242695928,
stimuli/hdri_light_04_a.png,stimuli/hdri_light_04_b.png,5,3,203,13,"[1, 0]",left,1,26,19,f,y,y,2019_Jul_15_1241,2AFC_task,59.9440242695928,
stimuli/lamp_bump_09_a.png,stimuli/lamp_bump_09_b.png,5,4,204,28,"[1, 0]",left,1,26,19,f,y,y,2019_Jul_15_1241,2AFC_task,59.9440242695928,
stimuli/lamp_bump_03_a.png,stimuli/lamp_bump_03_b.png,5,5,205,22,"[1, 0]",left,1,26,19,f,y,y,2019_Jul_15_1241,2AFC_task,59.9440242695928,
stimuli/hdri_light_09_a.png,stimuli/hdri_light_09_b.png,5,6,206,18,"[1, 0]",right,0,26,19,f,y,y,2019_Jul_15_1241,2AFC_task,59.9440242695928,
stimuli/lamp_bump_10_a.png,stimuli/lamp_bump_10_b.png,5,7,207,29,"[1, 0]",left,1,26,19,f,y,y,2019_Jul_15_1241,2AFC_task,59.9440242695928,
stimuli/hdri_light_07_a.png,stimuli/hdri_light_07_b.png,5,8,208,16,"[1, 0]",left,1,26,19,f,y,y,2019_Jul_15_1241,2AFC_task,59.9440242695928,
stimuli/lamp_bump_06_a.png,stimuli/lamp_bump_06_b.png,5,9,209,25,"[1, 0]",left,1,26,19,f,y,y,2019_Jul_15_1241,2AFC_task,59.9440242695928,
stimuli/lamp_light_08_a.png,stimuli/lamp_light_08_b.png,5,10,210,37,"[0, 1]",right,1,26,19,f,y,y,2019_Jul_15_1241,2AFC_task,59.9440242695928,
stimuli/lamp_light_07_a.png,stimuli/lamp_light_07_b.png,5,11,211,36,"[0, 1]",right,1,26,19,f,y,y,2019_Jul_15_1241,2AFC_task,59.9440242695928,
stimuli/hdri_light_06_a.png,stimuli/hdri_light_06_b.png,5,12,212,15,"[0, 1]",left,0,26,19,f,y,y,2019_Jul_15_1241,2AFC_task,59.9440242695928,
stimuli/hdri_bump_03_a.png,stimuli/hdri_bump_03_b.png,5,13,213,2,"[1, 0]",left,1,26,19,f,y,y,2019_Jul_15_1241,2AFC_task,59.9440242695928,
stimuli/lamp_light_09_a.png,stimuli/lamp_light_09_b.png,5,14,214,38,"[1, 0]",left,1,26,19,f,y,y,2019_Jul_15_1241,2AFC_task,59.9440242695928,
stimuli/hdri_bump_07_a.png,stimuli/hdri_bump_07_b.png,5,15,215,6,"[0, 1]",right,1,26,19,f,y,y,2019_Jul_15_1241,2AFC_task,59.9440242695928,
stimuli/hdri_light_08_a.png,stimuli/hdri_light_08_b.png,5,16,216,17,"[0, 1]",right,1,26,19,f,y,y,2019_Jul_15_1241,2AFC_task,59.9440242695928,
stimuli/lamp_bump_02_a.png,stimuli/lamp_bump_02_b.png,5,17,217,21,"[1, 0]",left,1,26,19,f,y,y,2019_Jul_15_1241,2AFC_task,59.9440242695928,
stimuli/hdri_bump_10_a.png,stimuli/hdri_bump_10_b.png,5,18,218,9,"[1, 0]",left,1,26,19,f,y,y,2019_Jul_15_1241,2AFC_task,59.9440242695928,
stimuli/lamp_bump_07_a.png,stimuli/lamp_bump_07_b.png,5,19,219,26,"[0, 1]",right,1,26,19,f,y,y,2019_Jul_15_1241,2AFC_task,59.9440242695928,
stimuli/hdri_bump_09_a.png,stimuli/hdri_bump_09_b.png,5,20,220,8,"[1, 0]",left,1,26,19,f,y,y,2019_Jul_15_1241,2AFC_task,59.9440242695928,
stimuli/hdri_bump_06_a.png,stimuli/hdri_bump_06_b.png,5,21,221,5,"[1, 0]",left,1,26,19,f,y,y,2019_Jul_15_1241,2AFC_task,59.9440242695928,
stimuli/lamp_bump_04_a.png,stimuli/lamp_bump_04_b.png,5,22,222,23,"[1, 0]",left,1,26,19,f,y,y,2019_Jul_15_1241,2AFC_task,59.9440242695928,
stimuli/hdri_bump_04_a.png,stimuli/hdri_bump_04_b.png,5,23,223,3,"[0, 1]",right,1,26,19,f,y,y,2019_Jul_15_1241,2AFC_task,59.9440242695928,
stimuli/lamp_bump_05_a.png,stimuli/lamp_bump_05_b.png,5,24,224,24,"[1, 0]",left,1,26,19,f,y,y,2019_Jul_15_1241,2AFC_task,59.9440242695928,
stimuli/hdri_light_01_a.png,stimuli/hdri_light_01_b.png,5,25,225,10,"[1, 0]",right,0,26,19,f,y,y,2019_Jul_15_1241,2AFC_task,59.9440242695928,
stimuli/lamp_light_02_a.png,stimuli/lamp_light_02_b.png,5,26,226,31,"[0, 1]",left,0,26,19,f,y,y,2019_Jul_15_1241,2AFC_task,59.9440242695928,
stimuli/hdri_bump_05_a.png,stimuli/hdri_bump_05_b.png,5,27,227,4,"[0, 1]",right,1,26,19,f,y,y,2019_Jul_15_1241,2AFC_task,59.9440242695928,
stimuli/lamp_bump_01_a.png,stimuli/lamp_bump_01_b.png,5,28,228,20,"[0, 1]",right,1,26,19,f,y,y,2019_Jul_15_1241,2AFC_task,59.9440242695928,
stimuli/hdri_light_05_a.png,stimuli/hdri_light_05_b.png,5,29,229,14,"[1, 0]",right,0,26,19,f,y,y,2019_Jul_15_1241,2AFC_task,59.9440242695928,
stimuli/lamp_bump_08_a.png,stimuli/lamp_bump_08_b.png,5,30,230,27,"[1, 0]",left,1,26,19,f,y,y,2019_Jul_15_1241,2AFC_task,59.9440242695928,
stimuli/hdri_bump_02_a.png,stimuli/hdri_bump_02_b.png,5,31,231,1,"[0, 1]",right,1,26,19,f,y,y,2019_Jul_15_1241,2AFC_task,59.9440242695928,
stimuli/lamp_light_10_a.png,stimuli/lamp_light_10_b.png,5,32,232,39,"[1, 0]",left,1,26,19,f,y,y,2019_Jul_15_1241,2AFC_task,59.9440242695928,
stimuli/lamp_light_04_a.png,stimuli/lamp_light_04_b.png,5,33,233,33,"[1, 0]",left,1,26,19,f,y,y,2019_Jul_15_1241,2AFC_task,59.9440242695928,
stimuli/hdri_light_03_a.png,stimuli/hdri_light_03_b.png,5,34,234,12,"[0, 1]",right,1,26,19,f,y,y,2019_Jul_15_1241,2AFC_task,59.9440242695928,
stimuli/hdri_light_10_a.png,stimuli/hdri_light_10_b.png,5,35,235,19,"[1, 0]",left,1,26,19,f,y,y,2019_Jul_15_1241,2AFC_task,59.9440242695928,
stimuli/hdri_bump_08_a.png,stimuli/hdri_bump_08_b.png,5,36,236,7,"[1, 0]",left,1,26,19,f,y,y,2019_Jul_15_1241,2AFC_task,59.9440242695928,
stimuli/hdri_light_02_a.png,stimuli/hdri_light_02_b.png,5,37,237,11,"[1, 0]",left,1,26,19,f,y,y,2019_Jul_15_1241,2AFC_task,59.9440242695928,
stimuli/lamp_light_01_a.png,stimuli/lamp_light_01_b.png,5,38,238,30,"[1, 0]",left,1,26,19,f,y,y,2019_Jul_15_1241,2AFC_task,59.9440242695928,
stimuli/lamp_light_06_a.png,stimuli/lamp_light_06_b.png,5,39,239,35,"[0, 1]",right,1,26,19,f,y,y,2019_Jul_15_1241,2AFC_task,59.9440242695928,
stimuli/hdri_light_08_a.png,stimuli/hdri_light_08_b.png,6,0,240,17,"[0, 1]",right,1,26,19,f,y,y,2019_Jul_15_1241,2AFC_task,59.9440242695928,
stimuli/hdri_light_05_a.png,stimuli/hdri_light_05_b.png,6,1,241,14,"[0, 1]",left,0,26,19,f,y,y,2019_Jul_15_1241,2AFC_task,59.9440242695928,
stimuli/lamp_bump_09_a.png,stimuli/lamp_bump_09_b.png,6,2,242,28,"[1, 0]",left,1,26,19,f,y,y,2019_Jul_15_1241,2AFC_task,59.9440242695928,
stimuli/lamp_bump_08_a.png,stimuli/lamp_bump_08_b.png,6,3,243,27,"[0, 1]",right,1,26,19,f,y,y,2019_Jul_15_1241,2AFC_task,59.9440242695928,
stimuli/hdri_light_03_a.png,stimuli/hdri_light_03_b.png,6,4,244,12,"[1, 0]",left,1,26,19,f,y,y,2019_Jul_15_1241,2AFC_task,59.9440242695928,
stimuli/lamp_bump_03_a.png,stimuli/lamp_bump_03_b.png,6,5,245,22,"[1, 0]",left,1,26,19,f,y,y,2019_Jul_15_1241,2AFC_task,59.9440242695928,
stimuli/hdri_bump_09_a.png,stimuli/hdri_bump_09_b.png,6,6,246,8,"[1, 0]",left,1,26,19,f,y,y,2019_Jul_15_1241,2AFC_task,59.9440242695928,
stimuli/lamp_light_07_a.png,stimuli/lamp_light_07_b.png,6,7,247,36,"[1, 0]",left,1,26,19,f,y,y,2019_Jul_15_1241,2AFC_task,59.9440242695928,
stimuli/hdri_bump_03_a.png,stimuli/hdri_bump_03_b.png,6,8,248,2,"[0, 1]",right,1,26,19,f,y,y,2019_Jul_15_1241,2AFC_task,59.9440242695928,
stimuli/lamp_light_08_a.png,stimuli/lamp_light_08_b.png,6,9,249,37,"[1, 0]",left,1,26,19,f,y,y,2019_Jul_15_1241,2AFC_task,59.9440242695928,
stimuli/hdri_bump_07_a.png,stimuli/hdri_bump_07_b.png,6,10,250,6,"[1, 0]",left,1,26,19,f,y,y,2019_Jul_15_1241,2AFC_task,59.9440242695928,
stimuli/lamp_bump_05_a.png,stimuli/lamp_bump_05_b.png,6,11,251,24,"[1, 0]",left,1,26,19,f,y,y,2019_Jul_15_1241,2AFC_task,59.9440242695928,
stimuli/hdri_bump_02_a.png,stimuli/hdri_bump_02_b.png,6,12,252,1,"[0, 1]",right,1,26,19,f,y,y,2019_Jul_15_1241,2AFC_task,59.9440242695928,
stimuli/hdri_bump_01_a.png,stimuli/hdri_bump_01_b.png,6,13,253,0,"[1, 0]",left,1,26,19,f,y,y,2019_Jul_15_1241,2AFC_task,59.9440242695928,
stimuli/hdri_bump_04_a.png,stimuli/hdri_bump_04_b.png,6,14,254,3,"[1, 0]",left,1,26,19,f,y,y,2019_Jul_15_1241,2AFC_task,59.9440242695928,
stimuli/hdri_light_01_a.png,stimuli/hdri_light_01_b.png,6,15,255,10,"[1, 0]",right,0,26,19,f,y,y,2019_Jul_15_1241,2AFC_task,59.9440242695928,
stimuli/lamp_bump_02_a.png,stimuli/lamp_bump_02_b.png,6,16,256,21,"[0, 1]",right,1,26,19,f,y,y,2019_Jul_15_1241,2AFC_task,59.9440242695928,
stimuli/lamp_light_01_a.png,stimuli/lamp_light_01_b.png,6,17,257,30,"[0, 1]",right,1,26,19,f,y,y,2019_Jul_15_1241,2AFC_task,59.9440242695928,
stimuli/hdri_light_06_a.png,stimuli/hdri_light_06_b.png,6,18,258,15,"[1, 0]",right,0,26,19,f,y,y,2019_Jul_15_1241,2AFC_task,59.9440242695928,
stimuli/hdri_light_10_a.png,stimuli/hdri_light_10_b.png,6,19,259,19,"[0, 1]",right,1,26,19,f,y,y,2019_Jul_15_1241,2AFC_task,59.9440242695928,
stimuli/lamp_bump_06_a.png,stimuli/lamp_bump_06_b.png,6,20,260,25,"[1, 0]",left,1,26,19,f,y,y,2019_Jul_15_1241,2AFC_task,59.9440242695928,
stimuli/lamp_light_09_a.png,stimuli/lamp_light_09_b.png,6,21,261,38,"[1, 0]",left,1,26,19,f,y,y,2019_Jul_15_1241,2AFC_task,59.9440242695928,
stimuli/hdri_bump_05_a.png,stimuli/hdri_bump_05_b.png,6,22,262,4,"[0, 1]",right,1,26,19,f,y,y,2019_Jul_15_1241,2AFC_task,59.9440242695928,
stimuli/hdri_light_09_a.png,stimuli/hdri_light_09_b.png,6,23,263,18,"[0, 1]",left,0,26,19,f,y,y,2019_Jul_15_1241,2AFC_task,59.9440242695928,
stimuli/hdri_bump_10_a.png,stimuli/hdri_bump_10_b.png,6,24,264,9,"[1, 0]",left,1,26,19,f,y,y,2019_Jul_15_1241,2AFC_task,59.9440242695928,
stimuli/lamp_light_10_a.png,stimuli/lamp_light_10_b.png,6,25,265,39,"[1, 0]",left,1,26,19,f,y,y,2019_Jul_15_1241,2AFC_task,59.9440242695928,
stimuli/hdri_light_02_a.png,stimuli/hdri_light_02_b.png,6,26,266,11,"[1, 0]",right,0,26,19,f,y,y,2019_Jul_15_1241,2AFC_task,59.9440242695928,
stimuli/lamp_light_02_a.png,stimuli/lamp_light_02_b.png,6,27,267,31,"[0, 1]",right,1,26,19,f,y,y,2019_Jul_15_1241,2AFC_task,59.9440242695928,
stimuli/lamp_bump_01_a.png,stimuli/lamp_bump_01_b.png,6,28,268,20,"[1, 0]",left,1,26,19,f,y,y,2019_Jul_15_1241,2AFC_task,59.9440242695928,
stimuli/lamp_light_06_a.png,stimuli/lamp_light_06_b.png,6,29,269,35,"[1, 0]",left,1,26,19,f,y,y,2019_Jul_15_1241,2AFC_task,59.9440242695928,
stimuli/hdri_bump_06_a.png,stimuli/hdri_bump_06_b.png,6,30,270,5,"[1, 0]",left,1,26,19,f,y,y,2019_Jul_15_1241,2AFC_task,59.9440242695928,
stimuli/hdri_light_07_a.png,stimuli/hdri_light_07_b.png,6,31,271,16,"[1, 0]",left,1,26,19,f,y,y,2019_Jul_15_1241,2AFC_task,59.9440242695928,
stimuli/lamp_bump_10_a.png,stimuli/lamp_bump_10_b.png,6,32,272,29,"[1, 0]",left,1,26,19,f,y,y,2019_Jul_15_1241,2AFC_task,59.9440242695928,
stimuli/lamp_light_05_a.png,stimuli/lamp_light_05_b.png,6,33,273,34,"[1, 0]",left,1,26,19,f,y,y,2019_Jul_15_1241,2AFC_task,59.9440242695928,
stimuli/hdri_light_04_a.png,stimuli/hdri_light_04_b.png,6,34,274,13,"[0, 1]",right,1,26,19,f,y,y,2019_Jul_15_1241,2AFC_task,59.9440242695928,
stimuli/lamp_light_04_a.png,stimuli/lamp_light_04_b.png,6,35,275,33,"[1, 0]",left,1,26,19,f,y,y,2019_Jul_15_1241,2AFC_task,59.9440242695928,
stimuli/lamp_bump_04_a.png,stimuli/lamp_bump_04_b.png,6,36,276,23,"[0, 1]",right,1,26,19,f,y,y,2019_Jul_15_1241,2AFC_task,59.9440242695928,
stimuli/lamp_bump_07_a.png,stimuli/lamp_bump_07_b.png,6,37,277,26,"[1, 0]",left,1,26,19,f,y,y,2019_Jul_15_1241,2AFC_task,59.9440242695928,
stimuli/hdri_bump_08_a.png,stimuli/hdri_bump_08_b.png,6,38,278,7,"[1, 0]",left,1,26,19,f,y,y,2019_Jul_15_1241,2AFC_task,59.9440242695928,
stimuli/lamp_light_03_a.png,stimuli/lamp_light_03_b.png,6,39,279,32,"[1, 0]",left,1,26,19,f,y,y,2019_Jul_15_1241,2AFC_task,59.9440242695928,
stimuli/hdri_light_01_a.png,stimuli/hdri_light_01_b.png,7,0,280,10,"[1, 0]",right,0,26,19,f,y,y,2019_Jul_15_1241,2AFC_task,59.9440242695928,
stimuli/lamp_light_03_a.png,stimuli/lamp_light_03_b.png,7,1,281,32,"[0, 1]",right,1,26,19,f,y,y,2019_Jul_15_1241,2AFC_task,59.9440242695928,
stimuli/hdri_light_10_a.png,stimuli/hdri_light_10_b.png,7,2,282,19,"[1, 0]",left,1,26,19,f,y,y,2019_Jul_15_1241,2AFC_task,59.9440242695928,
stimuli/lamp_bump_07_a.png,stimuli/lamp_bump_07_b.png,7,3,283,26,"[0, 1]",right,1,26,19,f,y,y,2019_Jul_15_1241,2AFC_task,59.9440242695928,
stimuli/hdri_light_05_a.png,stimuli/hdri_light_05_b.png,7,4,284,14,"[1, 0]",right,0,26,19,f,y,y,2019_Jul_15_1241,2AFC_task,59.9440242695928,
stimuli/hdri_light_09_a.png,stimuli/hdri_light_09_b.png,7,5,285,18,"[1, 0]",right,0,26,19,f,y,y,2019_Jul_15_1241,2AFC_task,59.9440242695928,
stimuli/lamp_light_08_a.png,stimuli/lamp_light_08_b.png,7,6,286,37,"[1, 0]",left,1,26,19,f,y,y,2019_Jul_15_1241,2AFC_task,59.9440242695928,
stimuli/hdri_bump_09_a.png,stimuli/hdri_bump_09_b.png,7,7,287,8,"[0, 1]",right,1,26,19,f,y,y,2019_Jul_15_1241,2AFC_task,59.9440242695928,
stimuli/hdri_light_04_a.png,stimuli/hdri_light_04_b.png,7,8,288,13,"[1, 0]",left,1,26,19,f,y,y,2019_Jul_15_1241,2AFC_task,59.9440242695928,
stimuli/lamp_bump_09_a.png,stimuli/lamp_bump_09_b.png,7,9,289,28,"[1, 0]",left,1,26,19,f,y,y,2019_Jul_15_1241,2AFC_task,59.9440242695928,
stimuli/lamp_light_07_a.png,stimuli/lamp_light_07_b.png,7,10,290,36,"[0, 1]",right,1,26,19,f,y,y,2019_Jul_15_1241,2AFC_task,59.9440242695928,
stimuli/lamp_bump_03_a.png,stimuli/lamp_bump_03_b.png,7,11,291,22,"[1, 0]",left,1,26,19,f,y,y,2019_Jul_15_1241,2AFC_task,59.9440242695928,
stimuli/hdri_bump_07_a.png,stimuli/hdri_bump_07_b.png,7,12,292,6,"[0, 1]",right,1,26,19,f,y,y,2019_Jul_15_1241,2AFC_task,59.9440242695928,
stimuli/hdri_bump_10_a.png,stimuli/hdri_bump_10_b.png,7,13,293,9,"[0, 1]",right,1,26,19,f,y,y,2019_Jul_15_1241,2AFC_task,59.9440242695928,
stimuli/lamp_bump_10_a.png,stimuli/lamp_bump_10_b.png,7,14,294,29,"[0, 1]",right,1,26,19,f,y,y,2019_Jul_15_1241,2AFC_task,59.9440242695928,
stimuli/hdri_bump_05_a.png,stimuli/hdri_bump_05_b.png,7,15,295,4,"[0, 1]",right,1,26,19,f,y,y,2019_Jul_15_1241,2AFC_task,59.9440242695928,
stimuli/lamp_light_04_a.png,stimuli/lamp_light_04_b.png,7,16,296,33,"[1, 0]",left,1,26,19,f,y,y,2019_Jul_15_1241,2AFC_task,59.9440242695928,
stimuli/lamp_light_05_a.png,stimuli/lamp_light_05_b.png,7,17,297,34,"[0, 1]",right,1,26,19,f,y,y,2019_Jul_15_1241,2AFC_task,59.9440242695928,
stimuli/hdri_bump_01_a.png,stimuli/hdri_bump_01_b.png,7,18,298,0,"[1, 0]",left,1,26,19,f,y,y,2019_Jul_15_1241,2AFC_task,59.9440242695928,
stimuli/lamp_bump_08_a.png,stimuli/lamp_bump_08_b.png,7,19,299,27,"[0, 1]",right,1,26,19,f,y,y,2019_Jul_15_1241,2AFC_task,59.9440242695928,
stimuli/hdri_light_06_a.png,stimuli/hdri_light_06_b.png,7,20,300,15,"[0, 1]",left,0,26,19,f,y,y,2019_Jul_15_1241,2AFC_task,59.9440242695928,
stimuli/hdri_light_08_a.png,stimuli/hdri_light_08_b.png,7,21,301,17,"[1, 0]",left,1,26,19,f,y,y,2019_Jul_15_1241,2AFC_task,59.9440242695928,
stimuli/lamp_light_01_a.png,stimuli/lamp_light_01_b.png,7,22,302,30,"[1, 0]",left,1,26,19,f,y,y,2019_Jul_15_1241,2AFC_task,59.9440242695928,
stimuli/hdri_light_03_a.png,stimuli/hdri_light_03_b.png,7,23,303,12,"[0, 1]",right,1,26,19,f,y,y,2019_Jul_15_1241,2AFC_task,59.9440242695928,
stimuli/hdri_bump_06_a.png,stimuli/hdri_bump_06_b.png,7,24,304,5,"[1, 0]",left,1,26,19,f,y,y,2019_Jul_15_1241,2AFC_task,59.9440242695928,
stimuli/lamp_light_09_a.png,stimuli/lamp_light_09_b.png,7,25,305,38,"[0, 1]",right,1,26,19,f,y,y,2019_Jul_15_1241,2AFC_task,59.9440242695928,
stimuli/lamp_bump_01_a.png,stimuli/lamp_bump_01_b.png,7,26,306,20,"[1, 0]",left,1,26,19,f,y,y,2019_Jul_15_1241,2AFC_task,59.9440242695928,
stimuli/lamp_light_02_a.png,stimuli/lamp_light_02_b.png,7,27,307,31,"[0, 1]",right,1,26,19,f,y,y,2019_Jul_15_1241,2AFC_task,59.9440242695928,
stimuli/hdri_bump_02_a.png,stimuli/hdri_bump_02_b.png,7,28,308,1,"[1, 0]",left,1,26,19,f,y,y,2019_Jul_15_1241,2AFC_task,59.9440242695928,
stimuli/hdri_bump_03_a.png,stimuli/hdri_bump_03_b.png,7,29,309,2,"[0, 1]",right,1,26,19,f,y,y,2019_Jul_15_1241,2AFC_task,59.9440242695928,
stimuli/lamp_light_06_a.png,stimuli/lamp_light_06_b.png,7,30,310,35,"[0, 1]",right,1,26,19,f,y,y,2019_Jul_15_1241,2AFC_task,59.9440242695928,
stimuli/hdri_light_07_a.png,stimuli/hdri_light_07_b.png,7,31,311,16,"[0, 1]",right,1,26,19,f,y,y,2019_Jul_15_1241,2AFC_task,59.9440242695928,
stimuli/lamp_bump_04_a.png,stimuli/lamp_bump_04_b.png,7,32,312,23,"[1, 0]",left,1,26,19,f,y,y,2019_Jul_15_1241,2AFC_task,59.9440242695928,
stimuli/hdri_bump_04_a.png,stimuli/hdri_bump_04_b.png,7,33,313,3,"[1, 0]",left,1,26,19,f,y,y,2019_Jul_15_1241,2AFC_task,59.9440242695928,
stimuli/hdri_light_02_a.png,stimuli/hdri_light_02_b.png,7,34,314,11,"[0, 1]",right,1,26,19,f,y,y,2019_Jul_15_1241,2AFC_task,59.9440242695928,
stimuli/hdri_bump_08_a.png,stimuli/hdri_bump_08_b.png,7,35,315,7,"[1, 0]",left,1,26,19,f,y,y,2019_Jul_15_1241,2AFC_task,59.9440242695928,
stimuli/lamp_light_10_a.png,stimuli/lamp_light_10_b.png,7,36,316,39,"[0, 1]",right,1,26,19,f,y,y,2019_Jul_15_1241,2AFC_task,59.9440242695928,
stimuli/lamp_bump_05_a.png,stimuli/lamp_bump_05_b.png,7,37,317,24,"[0, 1]",right,1,26,19,f,y,y,2019_Jul_15_1241,2AFC_task,59.9440242695928,
stimuli/lamp_bump_02_a.png,stimuli/lamp_bump_02_b.png,7,38,318,21,"[1, 0]",left,1,26,19,f,y,y,2019_Jul_15_1241,2AFC_task,59.9440242695928,
stimuli/lamp_bump_06_a.png,stimuli/lamp_bump_06_b.png,7,39,319,25,"[1, 0]",left,1,26,19,f,y,y,2019_Jul_15_1241,2AFC_task,59.9440242695928,
