stimOne,stimTwo,trials_1.thisRepN,trials_1.thisTrialN,trials_1.thisN,trials_1.thisIndex,presentation_positions,resp_key,corresponding_image,participant ID (two digits, e.g. 01),age,gender (m/f/-),normal or corrected-to-normal vision (y/n),normal colour vision (y/n),date,expName,frameRate,
stimuli/lamp_bump_05_a.png,stimuli/lamp_bump_05_b.png,0,0,0,24,"[1, 0]",left,1,27,32,m,y,y,2019_Jul_16_1425,2AFC_task,59.97551800263119,
stimuli/lamp_bump_02_a.png,stimuli/lamp_bump_02_b.png,0,1,1,21,"[1, 0]",right,0,27,32,m,y,y,2019_Jul_16_1425,2AFC_task,59.97551800263119,
stimuli/lamp_light_08_a.png,stimuli/lamp_light_08_b.png,0,2,2,37,"[1, 0]",left,1,27,32,m,y,y,2019_Jul_16_1425,2AFC_task,59.97551800263119,
stimuli/hdri_bump_02_a.png,stimuli/hdri_bump_02_b.png,0,3,3,1,"[0, 1]",right,1,27,32,m,y,y,2019_Jul_16_1425,2AFC_task,59.97551800263119,
stimuli/lamp_bump_04_a.png,stimuli/lamp_bump_04_b.png,0,4,4,23,"[0, 1]",left,0,27,32,m,y,y,2019_Jul_16_1425,2AFC_task,59.97551800263119,
stimuli/hdri_bump_07_a.png,stimuli/hdri_bump_07_b.png,0,5,5,6,"[0, 1]",left,0,27,32,m,y,y,2019_Jul_16_1425,2AFC_task,59.97551800263119,
stimuli/hdri_bump_10_a.png,stimuli/hdri_bump_10_b.png,0,6,6,9,"[1, 0]",left,1,27,32,m,y,y,2019_Jul_16_1425,2AFC_task,59.97551800263119,
stimuli/hdri_light_04_a.png,stimuli/hdri_light_04_b.png,0,7,7,13,"[1, 0]",left,1,27,32,m,y,y,2019_Jul_16_1425,2AFC_task,59.97551800263119,
stimuli/hdri_bump_04_a.png,stimuli/hdri_bump_04_b.png,0,8,8,3,"[1, 0]",left,1,27,32,m,y,y,2019_Jul_16_1425,2AFC_task,59.97551800263119,
stimuli/lamp_bump_01_a.png,stimuli/lamp_bump_01_b.png,0,9,9,20,"[0, 1]",left,0,27,32,m,y,y,2019_Jul_16_1425,2AFC_task,59.97551800263119,
stimuli/lamp_light_04_a.png,stimuli/lamp_light_04_b.png,0,10,10,33,"[0, 1]",right,1,27,32,m,y,y,2019_Jul_16_1425,2AFC_task,59.97551800263119,
stimuli/hdri_light_08_a.png,stimuli/hdri_light_08_b.png,0,11,11,17,"[0, 1]",right,1,27,32,m,y,y,2019_Jul_16_1425,2AFC_task,59.97551800263119,
stimuli/lamp_light_06_a.png,stimuli/lamp_light_06_b.png,0,12,12,35,"[0, 1]",right,1,27,32,m,y,y,2019_Jul_16_1425,2AFC_task,59.97551800263119,
stimuli/lamp_bump_09_a.png,stimuli/lamp_bump_09_b.png,0,13,13,28,"[0, 1]",right,1,27,32,m,y,y,2019_Jul_16_1425,2AFC_task,59.97551800263119,
stimuli/hdri_light_05_a.png,stimuli/hdri_light_05_b.png,0,14,14,14,"[1, 0]",left,1,27,32,m,y,y,2019_Jul_16_1425,2AFC_task,59.97551800263119,
stimuli/hdri_bump_08_a.png,stimuli/hdri_bump_08_b.png,0,15,15,7,"[0, 1]",right,1,27,32,m,y,y,2019_Jul_16_1425,2AFC_task,59.97551800263119,
stimuli/lamp_light_07_a.png,stimuli/lamp_light_07_b.png,0,16,16,36,"[1, 0]",left,1,27,32,m,y,y,2019_Jul_16_1425,2AFC_task,59.97551800263119,
stimuli/hdri_bump_09_a.png,stimuli/hdri_bump_09_b.png,0,17,17,8,"[1, 0]",right,0,27,32,m,y,y,2019_Jul_16_1425,2AFC_task,59.97551800263119,
stimuli/hdri_bump_06_a.png,stimuli/hdri_bump_06_b.png,0,18,18,5,"[0, 1]",right,1,27,32,m,y,y,2019_Jul_16_1425,2AFC_task,59.97551800263119,
stimuli/lamp_light_02_a.png,stimuli/lamp_light_02_b.png,0,19,19,31,"[0, 1]",right,1,27,32,m,y,y,2019_Jul_16_1425,2AFC_task,59.97551800263119,
stimuli/hdri_light_09_a.png,stimuli/hdri_light_09_b.png,0,20,20,18,"[1, 0]",right,0,27,32,m,y,y,2019_Jul_16_1425,2AFC_task,59.97551800263119,
stimuli/hdri_light_03_a.png,stimuli/hdri_light_03_b.png,0,21,21,12,"[0, 1]",left,0,27,32,m,y,y,2019_Jul_16_1425,2AFC_task,59.97551800263119,
stimuli/hdri_light_07_a.png,stimuli/hdri_light_07_b.png,0,22,22,16,"[1, 0]",left,1,27,32,m,y,y,2019_Jul_16_1425,2AFC_task,59.97551800263119,
stimuli/lamp_bump_03_a.png,stimuli/lamp_bump_03_b.png,0,23,23,22,"[1, 0]",left,1,27,32,m,y,y,2019_Jul_16_1425,2AFC_task,59.97551800263119,
stimuli/lamp_bump_06_a.png,stimuli/lamp_bump_06_b.png,0,24,24,25,"[0, 1]",left,0,27,32,m,y,y,2019_Jul_16_1425,2AFC_task,59.97551800263119,
stimuli/hdri_bump_05_a.png,stimuli/hdri_bump_05_b.png,0,25,25,4,"[0, 1]",right,1,27,32,m,y,y,2019_Jul_16_1425,2AFC_task,59.97551800263119,
stimuli/hdri_bump_03_a.png,stimuli/hdri_bump_03_b.png,0,26,26,2,"[1, 0]",left,1,27,32,m,y,y,2019_Jul_16_1425,2AFC_task,59.97551800263119,
stimuli/hdri_light_06_a.png,stimuli/hdri_light_06_b.png,0,27,27,15,"[1, 0]",right,0,27,32,m,y,y,2019_Jul_16_1425,2AFC_task,59.97551800263119,
stimuli/lamp_bump_10_a.png,stimuli/lamp_bump_10_b.png,0,28,28,29,"[0, 1]",right,1,27,32,m,y,y,2019_Jul_16_1425,2AFC_task,59.97551800263119,
stimuli/lamp_light_09_a.png,stimuli/lamp_light_09_b.png,0,29,29,38,"[0, 1]",right,1,27,32,m,y,y,2019_Jul_16_1425,2AFC_task,59.97551800263119,
stimuli/hdri_bump_01_a.png,stimuli/hdri_bump_01_b.png,0,30,30,0,"[1, 0]",left,1,27,32,m,y,y,2019_Jul_16_1425,2AFC_task,59.97551800263119,
stimuli/lamp_light_05_a.png,stimuli/lamp_light_05_b.png,0,31,31,34,"[1, 0]",left,1,27,32,m,y,y,2019_Jul_16_1425,2AFC_task,59.97551800263119,
stimuli/hdri_light_10_a.png,stimuli/hdri_light_10_b.png,0,32,32,19,"[0, 1]",right,1,27,32,m,y,y,2019_Jul_16_1425,2AFC_task,59.97551800263119,
stimuli/lamp_light_01_a.png,stimuli/lamp_light_01_b.png,0,33,33,30,"[1, 0]",left,1,27,32,m,y,y,2019_Jul_16_1425,2AFC_task,59.97551800263119,
stimuli/lamp_bump_08_a.png,stimuli/lamp_bump_08_b.png,0,34,34,27,"[0, 1]",right,1,27,32,m,y,y,2019_Jul_16_1425,2AFC_task,59.97551800263119,
stimuli/hdri_light_02_a.png,stimuli/hdri_light_02_b.png,0,35,35,11,"[1, 0]",left,1,27,32,m,y,y,2019_Jul_16_1425,2AFC_task,59.97551800263119,
stimuli/lamp_bump_07_a.png,stimuli/lamp_bump_07_b.png,0,36,36,26,"[0, 1]",left,0,27,32,m,y,y,2019_Jul_16_1425,2AFC_task,59.97551800263119,
stimuli/lamp_light_03_a.png,stimuli/lamp_light_03_b.png,0,37,37,32,"[1, 0]",right,0,27,32,m,y,y,2019_Jul_16_1425,2AFC_task,59.97551800263119,
stimuli/lamp_light_10_a.png,stimuli/lamp_light_10_b.png,0,38,38,39,"[0, 1]",right,1,27,32,m,y,y,2019_Jul_16_1425,2AFC_task,59.97551800263119,
stimuli/hdri_light_01_a.png,stimuli/hdri_light_01_b.png,0,39,39,10,"[1, 0]",left,1,27,32,m,y,y,2019_Jul_16_1425,2AFC_task,59.97551800263119,
stimuli/hdri_light_06_a.png,stimuli/hdri_light_06_b.png,1,0,40,15,"[1, 0]",right,0,27,32,m,y,y,2019_Jul_16_1425,2AFC_task,59.97551800263119,
stimuli/lamp_light_09_a.png,stimuli/lamp_light_09_b.png,1,1,41,38,"[0, 1]",right,1,27,32,m,y,y,2019_Jul_16_1425,2AFC_task,59.97551800263119,
stimuli/hdri_bump_03_a.png,stimuli/hdri_bump_03_b.png,1,2,42,2,"[1, 0]",left,1,27,32,m,y,y,2019_Jul_16_1425,2AFC_task,59.97551800263119,
stimuli/lamp_light_01_a.png,stimuli/lamp_light_01_b.png,1,3,43,30,"[0, 1]",right,1,27,32,m,y,y,2019_Jul_16_1425,2AFC_task,59.97551800263119,
stimuli/hdri_bump_05_a.png,stimuli/hdri_bump_05_b.png,1,4,44,4,"[0, 1]",right,1,27,32,m,y,y,2019_Jul_16_1425,2AFC_task,59.97551800263119,
stimuli/lamp_bump_09_a.png,stimuli/lamp_bump_09_b.png,1,5,45,28,"[1, 0]",left,1,27,32,m,y,y,2019_Jul_16_1425,2AFC_task,59.97551800263119,
stimuli/hdri_light_07_a.png,stimuli/hdri_light_07_b.png,1,6,46,16,"[0, 1]",right,1,27,32,m,y,y,2019_Jul_16_1425,2AFC_task,59.97551800263119,
stimuli/lamp_light_06_a.png,stimuli/lamp_light_06_b.png,1,7,47,35,"[0, 1]",right,1,27,32,m,y,y,2019_Jul_16_1425,2AFC_task,59.97551800263119,
stimuli/hdri_bump_02_a.png,stimuli/hdri_bump_02_b.png,1,8,48,1,"[0, 1]",right,1,27,32,m,y,y,2019_Jul_16_1425,2AFC_task,59.97551800263119,
stimuli/lamp_light_08_a.png,stimuli/lamp_light_08_b.png,1,9,49,37,"[0, 1]",right,1,27,32,m,y,y,2019_Jul_16_1425,2AFC_task,59.97551800263119,
stimuli/hdri_light_09_a.png,stimuli/hdri_light_09_b.png,1,10,50,18,"[1, 0]",right,0,27,32,m,y,y,2019_Jul_16_1425,2AFC_task,59.97551800263119,
stimuli/hdri_light_04_a.png,stimuli/hdri_light_04_b.png,1,11,51,13,"[0, 1]",left,0,27,32,m,y,y,2019_Jul_16_1425,2AFC_task,59.97551800263119,
stimuli/hdri_light_03_a.png,stimuli/hdri_light_03_b.png,1,12,52,12,"[0, 1]",left,0,27,32,m,y,y,2019_Jul_16_1425,2AFC_task,59.97551800263119,
stimuli/hdri_light_02_a.png,stimuli/hdri_light_02_b.png,1,13,53,11,"[1, 0]",right,0,27,32,m,y,y,2019_Jul_16_1425,2AFC_task,59.97551800263119,
stimuli/hdri_light_08_a.png,stimuli/hdri_light_08_b.png,1,14,54,17,"[1, 0]",left,1,27,32,m,y,y,2019_Jul_16_1425,2AFC_task,59.97551800263119,
stimuli/hdri_bump_04_a.png,stimuli/hdri_bump_04_b.png,1,15,55,3,"[1, 0]",left,1,27,32,m,y,y,2019_Jul_16_1425,2AFC_task,59.97551800263119,
stimuli/hdri_bump_08_a.png,stimuli/hdri_bump_08_b.png,1,16,56,7,"[1, 0]",left,1,27,32,m,y,y,2019_Jul_16_1425,2AFC_task,59.97551800263119,
stimuli/lamp_light_02_a.png,stimuli/lamp_light_02_b.png,1,17,57,31,"[0, 1]",right,1,27,32,m,y,y,2019_Jul_16_1425,2AFC_task,59.97551800263119,
stimuli/lamp_light_10_a.png,stimuli/lamp_light_10_b.png,1,18,58,39,"[0, 1]",right,1,27,32,m,y,y,2019_Jul_16_1425,2AFC_task,59.97551800263119,
stimuli/hdri_bump_09_a.png,stimuli/hdri_bump_09_b.png,1,19,59,8,"[1, 0]",left,1,27,32,m,y,y,2019_Jul_16_1425,2AFC_task,59.97551800263119,
stimuli/lamp_light_05_a.png,stimuli/lamp_light_05_b.png,1,20,60,34,"[1, 0]",left,1,27,32,m,y,y,2019_Jul_16_1425,2AFC_task,59.97551800263119,
stimuli/lamp_bump_02_a.png,stimuli/lamp_bump_02_b.png,1,21,61,21,"[0, 1]",right,1,27,32,m,y,y,2019_Jul_16_1425,2AFC_task,59.97551800263119,
stimuli/hdri_light_01_a.png,stimuli/hdri_light_01_b.png,1,22,62,10,"[1, 0]",left,1,27,32,m,y,y,2019_Jul_16_1425,2AFC_task,59.97551800263119,
stimuli/lamp_light_07_a.png,stimuli/lamp_light_07_b.png,1,23,63,36,"[1, 0]",left,1,27,32,m,y,y,2019_Jul_16_1425,2AFC_task,59.97551800263119,
stimuli/lamp_bump_06_a.png,stimuli/lamp_bump_06_b.png,1,24,64,25,"[0, 1]",right,1,27,32,m,y,y,2019_Jul_16_1425,2AFC_task,59.97551800263119,
stimuli/lamp_bump_03_a.png,stimuli/lamp_bump_03_b.png,1,25,65,22,"[1, 0]",left,1,27,32,m,y,y,2019_Jul_16_1425,2AFC_task,59.97551800263119,
stimuli/lamp_light_04_a.png,stimuli/lamp_light_04_b.png,1,26,66,33,"[1, 0]",left,1,27,32,m,y,y,2019_Jul_16_1425,2AFC_task,59.97551800263119,
stimuli/lamp_bump_04_a.png,stimuli/lamp_bump_04_b.png,1,27,67,23,"[0, 1]",left,0,27,32,m,y,y,2019_Jul_16_1425,2AFC_task,59.97551800263119,
stimuli/hdri_bump_10_a.png,stimuli/hdri_bump_10_b.png,1,28,68,9,"[0, 1]",right,1,27,32,m,y,y,2019_Jul_16_1425,2AFC_task,59.97551800263119,
stimuli/lamp_bump_08_a.png,stimuli/lamp_bump_08_b.png,1,29,69,27,"[1, 0]",left,1,27,32,m,y,y,2019_Jul_16_1425,2AFC_task,59.97551800263119,
stimuli/hdri_bump_01_a.png,stimuli/hdri_bump_01_b.png,1,30,70,0,"[0, 1]",left,0,27,32,m,y,y,2019_Jul_16_1425,2AFC_task,59.97551800263119,
stimuli/lamp_bump_07_a.png,stimuli/lamp_bump_07_b.png,1,31,71,26,"[0, 1]",right,1,27,32,m,y,y,2019_Jul_16_1425,2AFC_task,59.97551800263119,
stimuli/lamp_bump_10_a.png,stimuli/lamp_bump_10_b.png,1,32,72,29,"[1, 0]",left,1,27,32,m,y,y,2019_Jul_16_1425,2AFC_task,59.97551800263119,
stimuli/lamp_bump_01_a.png,stimuli/lamp_bump_01_b.png,1,33,73,20,"[1, 0]",left,1,27,32,m,y,y,2019_Jul_16_1425,2AFC_task,59.97551800263119,
stimuli/lamp_light_03_a.png,stimuli/lamp_light_03_b.png,1,34,74,32,"[1, 0]",left,1,27,32,m,y,y,2019_Jul_16_1425,2AFC_task,59.97551800263119,
stimuli/hdri_light_05_a.png,stimuli/hdri_light_05_b.png,1,35,75,14,"[0, 1]",right,1,27,32,m,y,y,2019_Jul_16_1425,2AFC_task,59.97551800263119,
stimuli/lamp_bump_05_a.png,stimuli/lamp_bump_05_b.png,1,36,76,24,"[0, 1]",right,1,27,32,m,y,y,2019_Jul_16_1425,2AFC_task,59.97551800263119,
stimuli/hdri_bump_07_a.png,stimuli/hdri_bump_07_b.png,1,37,77,6,"[1, 0]",left,1,27,32,m,y,y,2019_Jul_16_1425,2AFC_task,59.97551800263119,
stimuli/hdri_light_10_a.png,stimuli/hdri_light_10_b.png,1,38,78,19,"[1, 0]",left,1,27,32,m,y,y,2019_Jul_16_1425,2AFC_task,59.97551800263119,
stimuli/hdri_bump_06_a.png,stimuli/hdri_bump_06_b.png,1,39,79,5,"[1, 0]",left,1,27,32,m,y,y,2019_Jul_16_1425,2AFC_task,59.97551800263119,
stimuli/hdri_bump_09_a.png,stimuli/hdri_bump_09_b.png,2,0,80,8,"[1, 0]",left,1,27,32,m,y,y,2019_Jul_16_1425,2AFC_task,59.97551800263119,
stimuli/hdri_bump_04_a.png,stimuli/hdri_bump_04_b.png,2,1,81,3,"[1, 0]",left,1,27,32,m,y,y,2019_Jul_16_1425,2AFC_task,59.97551800263119,
stimuli/lamp_light_04_a.png,stimuli/lamp_light_04_b.png,2,2,82,33,"[1, 0]",left,1,27,32,m,y,y,2019_Jul_16_1425,2AFC_task,59.97551800263119,
stimuli/lamp_bump_01_a.png,stimuli/lamp_bump_01_b.png,2,3,83,20,"[0, 1]",left,0,27,32,m,y,y,2019_Jul_16_1425,2AFC_task,59.97551800263119,
stimuli/lamp_bump_06_a.png,stimuli/lamp_bump_06_b.png,2,4,84,25,"[0, 1]",left,0,27,32,m,y,y,2019_Jul_16_1425,2AFC_task,59.97551800263119,
stimuli/hdri_light_06_a.png,stimuli/hdri_light_06_b.png,2,5,85,15,"[1, 0]",right,0,27,32,m,y,y,2019_Jul_16_1425,2AFC_task,59.97551800263119,
stimuli/hdri_bump_01_a.png,stimuli/hdri_bump_01_b.png,2,6,86,0,"[1, 0]",left,1,27,32,m,y,y,2019_Jul_16_1425,2AFC_task,59.97551800263119,
stimuli/lamp_light_09_a.png,stimuli/lamp_light_09_b.png,2,7,87,38,"[1, 0]",left,1,27,32,m,y,y,2019_Jul_16_1425,2AFC_task,59.97551800263119,
stimuli/lamp_light_01_a.png,stimuli/lamp_light_01_b.png,2,8,88,30,"[1, 0]",right,0,27,32,m,y,y,2019_Jul_16_1425,2AFC_task,59.97551800263119,
stimuli/lamp_bump_03_a.png,stimuli/lamp_bump_03_b.png,2,9,89,22,"[1, 0]",left,1,27,32,m,y,y,2019_Jul_16_1425,2AFC_task,59.97551800263119,
stimuli/lamp_bump_04_a.png,stimuli/lamp_bump_04_b.png,2,10,90,23,"[0, 1]",left,0,27,32,m,y,y,2019_Jul_16_1425,2AFC_task,59.97551800263119,
stimuli/hdri_light_04_a.png,stimuli/hdri_light_04_b.png,2,11,91,13,"[1, 0]",left,1,27,32,m,y,y,2019_Jul_16_1425,2AFC_task,59.97551800263119,
stimuli/hdri_bump_03_a.png,stimuli/hdri_bump_03_b.png,2,12,92,2,"[1, 0]",left,1,27,32,m,y,y,2019_Jul_16_1425,2AFC_task,59.97551800263119,
stimuli/hdri_light_02_a.png,stimuli/hdri_light_02_b.png,2,13,93,11,"[1, 0]",right,0,27,32,m,y,y,2019_Jul_16_1425,2AFC_task,59.97551800263119,
stimuli/hdri_bump_02_a.png,stimuli/hdri_bump_02_b.png,2,14,94,1,"[0, 1]",right,1,27,32,m,y,y,2019_Jul_16_1425,2AFC_task,59.97551800263119,
stimuli/hdri_light_05_a.png,stimuli/hdri_light_05_b.png,2,15,95,14,"[0, 1]",left,0,27,32,m,y,y,2019_Jul_16_1425,2AFC_task,59.97551800263119,
stimuli/hdri_bump_06_a.png,stimuli/hdri_bump_06_b.png,2,16,96,5,"[1, 0]",left,1,27,32,m,y,y,2019_Jul_16_1425,2AFC_task,59.97551800263119,
stimuli/hdri_light_03_a.png,stimuli/hdri_light_03_b.png,2,17,97,12,"[1, 0]",left,1,27,32,m,y,y,2019_Jul_16_1425,2AFC_task,59.97551800263119,
stimuli/lamp_light_10_a.png,stimuli/lamp_light_10_b.png,2,18,98,39,"[1, 0]",left,1,27,32,m,y,y,2019_Jul_16_1425,2AFC_task,59.97551800263119,
stimuli/hdri_light_08_a.png,stimuli/hdri_light_08_b.png,2,19,99,17,"[0, 1]",right,1,27,32,m,y,y,2019_Jul_16_1425,2AFC_task,59.97551800263119,
stimuli/hdri_bump_07_a.png,stimuli/hdri_bump_07_b.png,2,20,100,6,"[0, 1]",right,1,27,32,m,y,y,2019_Jul_16_1425,2AFC_task,59.97551800263119,
stimuli/lamp_light_05_a.png,stimuli/lamp_light_05_b.png,2,21,101,34,"[1, 0]",left,1,27,32,m,y,y,2019_Jul_16_1425,2AFC_task,59.97551800263119,
stimuli/lamp_light_03_a.png,stimuli/lamp_light_03_b.png,2,22,102,32,"[1, 0]",left,1,27,32,m,y,y,2019_Jul_16_1425,2AFC_task,59.97551800263119,
stimuli/lamp_light_02_a.png,stimuli/lamp_light_02_b.png,2,23,103,31,"[1, 0]",left,1,27,32,m,y,y,2019_Jul_16_1425,2AFC_task,59.97551800263119,
stimuli/hdri_bump_05_a.png,stimuli/hdri_bump_05_b.png,2,24,104,4,"[0, 1]",right,1,27,32,m,y,y,2019_Jul_16_1425,2AFC_task,59.97551800263119,
stimuli/hdri_light_09_a.png,stimuli/hdri_light_09_b.png,2,25,105,18,"[1, 0]",right,0,27,32,m,y,y,2019_Jul_16_1425,2AFC_task,59.97551800263119,
stimuli/lamp_bump_09_a.png,stimuli/lamp_bump_09_b.png,2,26,106,28,"[1, 0]",left,1,27,32,m,y,y,2019_Jul_16_1425,2AFC_task,59.97551800263119,
stimuli/lamp_bump_02_a.png,stimuli/lamp_bump_02_b.png,2,27,107,21,"[1, 0]",right,0,27,32,m,y,y,2019_Jul_16_1425,2AFC_task,59.97551800263119,
stimuli/hdri_light_07_a.png,stimuli/hdri_light_07_b.png,2,28,108,16,"[0, 1]",right,1,27,32,m,y,y,2019_Jul_16_1425,2AFC_task,59.97551800263119,
stimuli/hdri_bump_10_a.png,stimuli/hdri_bump_10_b.png,2,29,109,9,"[1, 0]",left,1,27,32,m,y,y,2019_Jul_16_1425,2AFC_task,59.97551800263119,
stimuli/lamp_bump_08_a.png,stimuli/lamp_bump_08_b.png,2,30,110,27,"[0, 1]",right,1,27,32,m,y,y,2019_Jul_16_1425,2AFC_task,59.97551800263119,
stimuli/hdri_light_01_a.png,stimuli/hdri_light_01_b.png,2,31,111,10,"[0, 1]",right,1,27,32,m,y,y,2019_Jul_16_1425,2AFC_task,59.97551800263119,
stimuli/lamp_light_08_a.png,stimuli/lamp_light_08_b.png,2,32,112,37,"[0, 1]",right,1,27,32,m,y,y,2019_Jul_16_1425,2AFC_task,59.97551800263119,
stimuli/hdri_light_10_a.png,stimuli/hdri_light_10_b.png,2,33,113,19,"[1, 0]",left,1,27,32,m,y,y,2019_Jul_16_1425,2AFC_task,59.97551800263119,
stimuli/hdri_bump_08_a.png,stimuli/hdri_bump_08_b.png,2,34,114,7,"[1, 0]",right,0,27,32,m,y,y,2019_Jul_16_1425,2AFC_task,59.97551800263119,
stimuli/lamp_bump_05_a.png,stimuli/lamp_bump_05_b.png,2,35,115,24,"[1, 0]",left,1,27,32,m,y,y,2019_Jul_16_1425,2AFC_task,59.97551800263119,
stimuli/lamp_bump_07_a.png,stimuli/lamp_bump_07_b.png,2,36,116,26,"[1, 0]",right,0,27,32,m,y,y,2019_Jul_16_1425,2AFC_task,59.97551800263119,
stimuli/lamp_light_07_a.png,stimuli/lamp_light_07_b.png,2,37,117,36,"[1, 0]",left,1,27,32,m,y,y,2019_Jul_16_1425,2AFC_task,59.97551800263119,
stimuli/lamp_bump_10_a.png,stimuli/lamp_bump_10_b.png,2,38,118,29,"[1, 0]",left,1,27,32,m,y,y,2019_Jul_16_1425,2AFC_task,59.97551800263119,
stimuli/lamp_light_06_a.png,stimuli/lamp_light_06_b.png,2,39,119,35,"[0, 1]",right,1,27,32,m,y,y,2019_Jul_16_1425,2AFC_task,59.97551800263119,
stimuli/hdri_bump_10_a.png,stimuli/hdri_bump_10_b.png,3,0,120,9,"[1, 0]",left,1,27,32,m,y,y,2019_Jul_16_1425,2AFC_task,59.97551800263119,
stimuli/lamp_bump_02_a.png,stimuli/lamp_bump_02_b.png,3,1,121,21,"[1, 0]",right,0,27,32,m,y,y,2019_Jul_16_1425,2AFC_task,59.97551800263119,
stimuli/hdri_light_01_a.png,stimuli/hdri_light_01_b.png,3,2,122,10,"[1, 0]",left,1,27,32,m,y,y,2019_Jul_16_1425,2AFC_task,59.97551800263119,
stimuli/lamp_light_08_a.png,stimuli/lamp_light_08_b.png,3,3,123,37,"[1, 0]",left,1,27,32,m,y,y,2019_Jul_16_1425,2AFC_task,59.97551800263119,
stimuli/hdri_light_05_a.png,stimuli/hdri_light_05_b.png,3,4,124,14,"[1, 0]",right,0,27,32,m,y,y,2019_Jul_16_1425,2AFC_task,59.97551800263119,
stimuli/hdri_light_04_a.png,stimuli/hdri_light_04_b.png,3,5,125,13,"[1, 0]",left,1,27,32,m,y,y,2019_Jul_16_1425,2AFC_task,59.97551800263119,
stimuli/hdri_bump_09_a.png,stimuli/hdri_bump_09_b.png,3,6,126,8,"[0, 1]",left,0,27,32,m,y,y,2019_Jul_16_1425,2AFC_task,59.97551800263119,
stimuli/hdri_bump_06_a.png,stimuli/hdri_bump_06_b.png,3,7,127,5,"[1, 0]",left,1,27,32,m,y,y,2019_Jul_16_1425,2AFC_task,59.97551800263119,
stimuli/lamp_bump_03_a.png,stimuli/lamp_bump_03_b.png,3,8,128,22,"[1, 0]",left,1,27,32,m,y,y,2019_Jul_16_1425,2AFC_task,59.97551800263119,
stimuli/lamp_light_05_a.png,stimuli/lamp_light_05_b.png,3,9,129,34,"[0, 1]",right,1,27,32,m,y,y,2019_Jul_16_1425,2AFC_task,59.97551800263119,
stimuli/lamp_light_02_a.png,stimuli/lamp_light_02_b.png,3,10,130,31,"[0, 1]",right,1,27,32,m,y,y,2019_Jul_16_1425,2AFC_task,59.97551800263119,
stimuli/hdri_bump_02_a.png,stimuli/hdri_bump_02_b.png,3,11,131,1,"[1, 0]",left,1,27,32,m,y,y,2019_Jul_16_1425,2AFC_task,59.97551800263119,
stimuli/hdri_bump_07_a.png,stimuli/hdri_bump_07_b.png,3,12,132,6,"[0, 1]",right,1,27,32,m,y,y,2019_Jul_16_1425,2AFC_task,59.97551800263119,
stimuli/lamp_bump_04_a.png,stimuli/lamp_bump_04_b.png,3,13,133,23,"[0, 1]",left,0,27,32,m,y,y,2019_Jul_16_1425,2AFC_task,59.97551800263119,
stimuli/lamp_light_01_a.png,stimuli/lamp_light_01_b.png,3,14,134,30,"[1, 0]",left,1,27,32,m,y,y,2019_Jul_16_1425,2AFC_task,59.97551800263119,
stimuli/hdri_bump_03_a.png,stimuli/hdri_bump_03_b.png,3,15,135,2,"[0, 1]",right,1,27,32,m,y,y,2019_Jul_16_1425,2AFC_task,59.97551800263119,
stimuli/lamp_bump_08_a.png,stimuli/lamp_bump_08_b.png,3,16,136,27,"[0, 1]",right,1,27,32,m,y,y,2019_Jul_16_1425,2AFC_task,59.97551800263119,
stimuli/lamp_bump_07_a.png,stimuli/lamp_bump_07_b.png,3,17,137,26,"[0, 1]",left,0,27,32,m,y,y,2019_Jul_16_1425,2AFC_task,59.97551800263119,
stimuli/hdri_light_09_a.png,stimuli/hdri_light_09_b.png,3,18,138,18,"[0, 1]",left,0,27,32,m,y,y,2019_Jul_16_1425,2AFC_task,59.97551800263119,
stimuli/hdri_bump_08_a.png,stimuli/hdri_bump_08_b.png,3,19,139,7,"[1, 0]",left,1,27,32,m,y,y,2019_Jul_16_1425,2AFC_task,59.97551800263119,
stimuli/hdri_light_02_a.png,stimuli/hdri_light_02_b.png,3,20,140,11,"[0, 1]",right,1,27,32,m,y,y,2019_Jul_16_1425,2AFC_task,59.97551800263119,
stimuli/lamp_light_10_a.png,stimuli/lamp_light_10_b.png,3,21,141,39,"[1, 0]",left,1,27,32,m,y,y,2019_Jul_16_1425,2AFC_task,59.97551800263119,
stimuli/hdri_bump_04_a.png,stimuli/hdri_bump_04_b.png,3,22,142,3,"[0, 1]",right,1,27,32,m,y,y,2019_Jul_16_1425,2AFC_task,59.97551800263119,
stimuli/hdri_bump_05_a.png,stimuli/hdri_bump_05_b.png,3,23,143,4,"[0, 1]",right,1,27,32,m,y,y,2019_Jul_16_1425,2AFC_task,59.97551800263119,
stimuli/lamp_light_03_a.png,stimuli/lamp_light_03_b.png,3,24,144,32,"[0, 1]",right,1,27,32,m,y,y,2019_Jul_16_1425,2AFC_task,59.97551800263119,
stimuli/lamp_light_04_a.png,stimuli/lamp_light_04_b.png,3,25,145,33,"[1, 0]",left,1,27,32,m,y,y,2019_Jul_16_1425,2AFC_task,59.97551800263119,
stimuli/lamp_light_07_a.png,stimuli/lamp_light_07_b.png,3,26,146,36,"[1, 0]",left,1,27,32,m,y,y,2019_Jul_16_1425,2AFC_task,59.97551800263119,
stimuli/hdri_light_06_a.png,stimuli/hdri_light_06_b.png,3,27,147,15,"[1, 0]",right,0,27,32,m,y,y,2019_Jul_16_1425,2AFC_task,59.97551800263119,
stimuli/lamp_bump_09_a.png,stimuli/lamp_bump_09_b.png,3,28,148,28,"[1, 0]",left,1,27,32,m,y,y,2019_Jul_16_1425,2AFC_task,59.97551800263119,
stimuli/lamp_light_06_a.png,stimuli/lamp_light_06_b.png,3,29,149,35,"[0, 1]",right,1,27,32,m,y,y,2019_Jul_16_1425,2AFC_task,59.97551800263119,
stimuli/hdri_light_03_a.png,stimuli/hdri_light_03_b.png,3,30,150,12,"[0, 1]",left,0,27,32,m,y,y,2019_Jul_16_1425,2AFC_task,59.97551800263119,
stimuli/lamp_light_09_a.png,stimuli/lamp_light_09_b.png,3,31,151,38,"[0, 1]",right,1,27,32,m,y,y,2019_Jul_16_1425,2AFC_task,59.97551800263119,
stimuli/lamp_bump_10_a.png,stimuli/lamp_bump_10_b.png,3,32,152,29,"[0, 1]",right,1,27,32,m,y,y,2019_Jul_16_1425,2AFC_task,59.97551800263119,
stimuli/hdri_bump_01_a.png,stimuli/hdri_bump_01_b.png,3,33,153,0,"[1, 0]",left,1,27,32,m,y,y,2019_Jul_16_1425,2AFC_task,59.97551800263119,
stimuli/lamp_bump_01_a.png,stimuli/lamp_bump_01_b.png,3,34,154,20,"[1, 0]",right,0,27,32,m,y,y,2019_Jul_16_1425,2AFC_task,59.97551800263119,
stimuli/lamp_bump_05_a.png,stimuli/lamp_bump_05_b.png,3,35,155,24,"[1, 0]",left,1,27,32,m,y,y,2019_Jul_16_1425,2AFC_task,59.97551800263119,
stimuli/hdri_light_10_a.png,stimuli/hdri_light_10_b.png,3,36,156,19,"[0, 1]",right,1,27,32,m,y,y,2019_Jul_16_1425,2AFC_task,59.97551800263119,
stimuli/hdri_light_07_a.png,stimuli/hdri_light_07_b.png,3,37,157,16,"[0, 1]",right,1,27,32,m,y,y,2019_Jul_16_1425,2AFC_task,59.97551800263119,
stimuli/lamp_bump_06_a.png,stimuli/lamp_bump_06_b.png,3,38,158,25,"[0, 1]",left,0,27,32,m,y,y,2019_Jul_16_1425,2AFC_task,59.97551800263119,
stimuli/hdri_light_08_a.png,stimuli/hdri_light_08_b.png,3,39,159,17,"[1, 0]",left,1,27,32,m,y,y,2019_Jul_16_1425,2AFC_task,59.97551800263119,
stimuli/lamp_bump_08_a.png,stimuli/lamp_bump_08_b.png,4,0,160,27,"[1, 0]",right,0,27,32,m,y,y,2019_Jul_16_1425,2AFC_task,59.97551800263119,
stimuli/lamp_bump_05_a.png,stimuli/lamp_bump_05_b.png,4,1,161,24,"[0, 1]",right,1,27,32,m,y,y,2019_Jul_16_1425,2AFC_task,59.97551800263119,
stimuli/hdri_bump_10_a.png,stimuli/hdri_bump_10_b.png,4,2,162,9,"[0, 1]",right,1,27,32,m,y,y,2019_Jul_16_1425,2AFC_task,59.97551800263119,
stimuli/lamp_light_03_a.png,stimuli/lamp_light_03_b.png,4,3,163,32,"[0, 1]",right,1,27,32,m,y,y,2019_Jul_16_1425,2AFC_task,59.97551800263119,
stimuli/lamp_bump_07_a.png,stimuli/lamp_bump_07_b.png,4,4,164,26,"[0, 1]",left,0,27,32,m,y,y,2019_Jul_16_1425,2AFC_task,59.97551800263119,
stimuli/lamp_bump_01_a.png,stimuli/lamp_bump_01_b.png,4,5,165,20,"[1, 0]",right,0,27,32,m,y,y,2019_Jul_16_1425,2AFC_task,59.97551800263119,
stimuli/hdri_light_06_a.png,stimuli/hdri_light_06_b.png,4,6,166,15,"[1, 0]",right,0,27,32,m,y,y,2019_Jul_16_1425,2AFC_task,59.97551800263119,
stimuli/lamp_light_06_a.png,stimuli/lamp_light_06_b.png,4,7,167,35,"[1, 0]",left,1,27,32,m,y,y,2019_Jul_16_1425,2AFC_task,59.97551800263119,
stimuli/hdri_bump_09_a.png,stimuli/hdri_bump_09_b.png,4,8,168,8,"[0, 1]",right,1,27,32,m,y,y,2019_Jul_16_1425,2AFC_task,59.97551800263119,
stimuli/lamp_bump_06_a.png,stimuli/lamp_bump_06_b.png,4,9,169,25,"[1, 0]",right,0,27,32,m,y,y,2019_Jul_16_1425,2AFC_task,59.97551800263119,
stimuli/hdri_bump_03_a.png,stimuli/hdri_bump_03_b.png,4,10,170,2,"[0, 1]",right,1,27,32,m,y,y,2019_Jul_16_1425,2AFC_task,59.97551800263119,
stimuli/lamp_light_07_a.png,stimuli/lamp_light_07_b.png,4,11,171,36,"[0, 1]",right,1,27,32,m,y,y,2019_Jul_16_1425,2AFC_task,59.97551800263119,
stimuli/lamp_light_05_a.png,stimuli/lamp_light_05_b.png,4,12,172,34,"[1, 0]",left,1,27,32,m,y,y,2019_Jul_16_1425,2AFC_task,59.97551800263119,
stimuli/hdri_light_10_a.png,stimuli/hdri_light_10_b.png,4,13,173,19,"[1, 0]",left,1,27,32,m,y,y,2019_Jul_16_1425,2AFC_task,59.97551800263119,
stimuli/lamp_bump_10_a.png,stimuli/lamp_bump_10_b.png,4,14,174,29,"[1, 0]",left,1,27,32,m,y,y,2019_Jul_16_1425,2AFC_task,59.97551800263119,
stimuli/lamp_light_08_a.png,stimuli/lamp_light_08_b.png,4,15,175,37,"[1, 0]",left,1,27,32,m,y,y,2019_Jul_16_1425,2AFC_task,59.97551800263119,
stimuli/lamp_light_02_a.png,stimuli/lamp_light_02_b.png,4,16,176,31,"[1, 0]",right,0,27,32,m,y,y,2019_Jul_16_1425,2AFC_task,59.97551800263119,
stimuli/lamp_light_10_a.png,stimuli/lamp_light_10_b.png,4,17,177,39,"[1, 0]",left,1,27,32,m,y,y,2019_Jul_16_1425,2AFC_task,59.97551800263119,
stimuli/lamp_bump_03_a.png,stimuli/lamp_bump_03_b.png,4,18,178,22,"[1, 0]",left,1,27,32,m,y,y,2019_Jul_16_1425,2AFC_task,59.97551800263119,
stimuli/lamp_bump_09_a.png,stimuli/lamp_bump_09_b.png,4,19,179,28,"[1, 0]",right,0,27,32,m,y,y,2019_Jul_16_1425,2AFC_task,59.97551800263119,
stimuli/hdri_light_02_a.png,stimuli/hdri_light_02_b.png,4,20,180,11,"[0, 1]",left,0,27,32,m,y,y,2019_Jul_16_1425,2AFC_task,59.97551800263119,
stimuli/hdri_light_03_a.png,stimuli/hdri_light_03_b.png,4,21,181,12,"[1, 0]",right,0,27,32,m,y,y,2019_Jul_16_1425,2AFC_task,59.97551800263119,
stimuli/hdri_light_05_a.png,stimuli/hdri_light_05_b.png,4,22,182,14,"[0, 1]",left,0,27,32,m,y,y,2019_Jul_16_1425,2AFC_task,59.97551800263119,
stimuli/lamp_light_09_a.png,stimuli/lamp_light_09_b.png,4,23,183,38,"[1, 0]",left,1,27,32,m,y,y,2019_Jul_16_1425,2AFC_task,59.97551800263119,
stimuli/hdri_bump_06_a.png,stimuli/hdri_bump_06_b.png,4,24,184,5,"[1, 0]",right,0,27,32,m,y,y,2019_Jul_16_1425,2AFC_task,59.97551800263119,
stimuli/lamp_light_01_a.png,stimuli/lamp_light_01_b.png,4,25,185,30,"[0, 1]",right,1,27,32,m,y,y,2019_Jul_16_1425,2AFC_task,59.97551800263119,
stimuli/hdri_bump_02_a.png,stimuli/hdri_bump_02_b.png,4,26,186,1,"[0, 1]",left,0,27,32,m,y,y,2019_Jul_16_1425,2AFC_task,59.97551800263119,
stimuli/hdri_bump_01_a.png,stimuli/hdri_bump_01_b.png,4,27,187,0,"[1, 0]",left,1,27,32,m,y,y,2019_Jul_16_1425,2AFC_task,59.97551800263119,
stimuli/hdri_light_07_a.png,stimuli/hdri_light_07_b.png,4,28,188,16,"[0, 1]",right,1,27,32,m,y,y,2019_Jul_16_1425,2AFC_task,59.97551800263119,
stimuli/lamp_light_04_a.png,stimuli/lamp_light_04_b.png,4,29,189,33,"[1, 0]",left,1,27,32,m,y,y,2019_Jul_16_1425,2AFC_task,59.97551800263119,
stimuli/hdri_light_01_a.png,stimuli/hdri_light_01_b.png,4,30,190,10,"[0, 1]",right,1,27,32,m,y,y,2019_Jul_16_1425,2AFC_task,59.97551800263119,
stimuli/hdri_bump_07_a.png,stimuli/hdri_bump_07_b.png,4,31,191,6,"[0, 1]",left,0,27,32,m,y,y,2019_Jul_16_1425,2AFC_task,59.97551800263119,
stimuli/hdri_light_04_a.png,stimuli/hdri_light_04_b.png,4,32,192,13,"[0, 1]",right,1,27,32,m,y,y,2019_Jul_16_1425,2AFC_task,59.97551800263119,
stimuli/lamp_bump_04_a.png,stimuli/lamp_bump_04_b.png,4,33,193,23,"[0, 1]",left,0,27,32,m,y,y,2019_Jul_16_1425,2AFC_task,59.97551800263119,
stimuli/hdri_bump_05_a.png,stimuli/hdri_bump_05_b.png,4,34,194,4,"[0, 1]",right,1,27,32,m,y,y,2019_Jul_16_1425,2AFC_task,59.97551800263119,
stimuli/hdri_bump_04_a.png,stimuli/hdri_bump_04_b.png,4,35,195,3,"[1, 0]",left,1,27,32,m,y,y,2019_Jul_16_1425,2AFC_task,59.97551800263119,
stimuli/hdri_bump_08_a.png,stimuli/hdri_bump_08_b.png,4,36,196,7,"[1, 0]",right,0,27,32,m,y,y,2019_Jul_16_1425,2AFC_task,59.97551800263119,
stimuli/hdri_light_09_a.png,stimuli/hdri_light_09_b.png,4,37,197,18,"[0, 1]",left,0,27,32,m,y,y,2019_Jul_16_1425,2AFC_task,59.97551800263119,
stimuli/lamp_bump_02_a.png,stimuli/lamp_bump_02_b.png,4,38,198,21,"[0, 1]",right,1,27,32,m,y,y,2019_Jul_16_1425,2AFC_task,59.97551800263119,
stimuli/hdri_light_08_a.png,stimuli/hdri_light_08_b.png,4,39,199,17,"[0, 1]",right,1,27,32,m,y,y,2019_Jul_16_1425,2AFC_task,59.97551800263119,
stimuli/lamp_light_09_a.png,stimuli/lamp_light_09_b.png,5,0,200,38,"[1, 0]",left,1,27,32,m,y,y,2019_Jul_16_1425,2AFC_task,59.97551800263119,
stimuli/lamp_bump_08_a.png,stimuli/lamp_bump_08_b.png,5,1,201,27,"[1, 0]",right,0,27,32,m,y,y,2019_Jul_16_1425,2AFC_task,59.97551800263119,
stimuli/hdri_bump_06_a.png,stimuli/hdri_bump_06_b.png,5,2,202,5,"[0, 1]",right,1,27,32,m,y,y,2019_Jul_16_1425,2AFC_task,59.97551800263119,
stimuli/hdri_light_02_a.png,stimuli/hdri_light_02_b.png,5,3,203,11,"[0, 1]",left,0,27,32,m,y,y,2019_Jul_16_1425,2AFC_task,59.97551800263119,
stimuli/lamp_bump_02_a.png,stimuli/lamp_bump_02_b.png,5,4,204,21,"[0, 1]",right,1,27,32,m,y,y,2019_Jul_16_1425,2AFC_task,59.97551800263119,
stimuli/lamp_bump_01_a.png,stimuli/lamp_bump_01_b.png,5,5,205,20,"[1, 0]",right,0,27,32,m,y,y,2019_Jul_16_1425,2AFC_task,59.97551800263119,
stimuli/lamp_light_10_a.png,stimuli/lamp_light_10_b.png,5,6,206,39,"[1, 0]",left,1,27,32,m,y,y,2019_Jul_16_1425,2AFC_task,59.97551800263119,
stimuli/hdri_bump_02_a.png,stimuli/hdri_bump_02_b.png,5,7,207,1,"[0, 1]",right,1,27,32,m,y,y,2019_Jul_16_1425,2AFC_task,59.97551800263119,
stimuli/hdri_bump_10_a.png,stimuli/hdri_bump_10_b.png,5,8,208,9,"[0, 1]",right,1,27,32,m,y,y,2019_Jul_16_1425,2AFC_task,59.97551800263119,
stimuli/hdri_light_05_a.png,stimuli/hdri_light_05_b.png,5,9,209,14,"[1, 0]",right,0,27,32,m,y,y,2019_Jul_16_1425,2AFC_task,59.97551800263119,
stimuli/hdri_bump_07_a.png,stimuli/hdri_bump_07_b.png,5,10,210,6,"[0, 1]",left,0,27,32,m,y,y,2019_Jul_16_1425,2AFC_task,59.97551800263119,
stimuli/lamp_bump_05_a.png,stimuli/lamp_bump_05_b.png,5,11,211,24,"[1, 0]",left,1,27,32,m,y,y,2019_Jul_16_1425,2AFC_task,59.97551800263119,
stimuli/lamp_bump_10_a.png,stimuli/lamp_bump_10_b.png,5,12,212,29,"[1, 0]",left,1,27,32,m,y,y,2019_Jul_16_1425,2AFC_task,59.97551800263119,
stimuli/hdri_bump_03_a.png,stimuli/hdri_bump_03_b.png,5,13,213,2,"[1, 0]",left,1,27,32,m,y,y,2019_Jul_16_1425,2AFC_task,59.97551800263119,
stimuli/hdri_light_07_a.png,stimuli/hdri_light_07_b.png,5,14,214,16,"[1, 0]",left,1,27,32,m,y,y,2019_Jul_16_1425,2AFC_task,59.97551800263119,
stimuli/lamp_light_07_a.png,stimuli/lamp_light_07_b.png,5,15,215,36,"[1, 0]",left,1,27,32,m,y,y,2019_Jul_16_1425,2AFC_task,59.97551800263119,
stimuli/hdri_light_09_a.png,stimuli/hdri_light_09_b.png,5,16,216,18,"[0, 1]",left,0,27,32,m,y,y,2019_Jul_16_1425,2AFC_task,59.97551800263119,
stimuli/hdri_bump_08_a.png,stimuli/hdri_bump_08_b.png,5,17,217,7,"[1, 0]",left,1,27,32,m,y,y,2019_Jul_16_1425,2AFC_task,59.97551800263119,
stimuli/hdri_light_06_a.png,stimuli/hdri_light_06_b.png,5,18,218,15,"[1, 0]",right,0,27,32,m,y,y,2019_Jul_16_1425,2AFC_task,59.97551800263119,
stimuli/hdri_bump_01_a.png,stimuli/hdri_bump_01_b.png,5,19,219,0,"[0, 1]",right,1,27,32,m,y,y,2019_Jul_16_1425,2AFC_task,59.97551800263119,
stimuli/lamp_light_04_a.png,stimuli/lamp_light_04_b.png,5,20,220,33,"[1, 0]",left,1,27,32,m,y,y,2019_Jul_16_1425,2AFC_task,59.97551800263119,
stimuli/lamp_light_02_a.png,stimuli/lamp_light_02_b.png,5,21,221,31,"[0, 1]",right,1,27,32,m,y,y,2019_Jul_16_1425,2AFC_task,59.97551800263119,
stimuli/hdri_bump_04_a.png,stimuli/hdri_bump_04_b.png,5,22,222,3,"[1, 0]",left,1,27,32,m,y,y,2019_Jul_16_1425,2AFC_task,59.97551800263119,
stimuli/lamp_bump_09_a.png,stimuli/lamp_bump_09_b.png,5,23,223,28,"[1, 0]",right,0,27,32,m,y,y,2019_Jul_16_1425,2AFC_task,59.97551800263119,
stimuli/lamp_bump_07_a.png,stimuli/lamp_bump_07_b.png,5,24,224,26,"[0, 1]",left,0,27,32,m,y,y,2019_Jul_16_1425,2AFC_task,59.97551800263119,
stimuli/lamp_light_06_a.png,stimuli/lamp_light_06_b.png,5,25,225,35,"[0, 1]",right,1,27,32,m,y,y,2019_Jul_16_1425,2AFC_task,59.97551800263119,
stimuli/lamp_bump_06_a.png,stimuli/lamp_bump_06_b.png,5,26,226,25,"[1, 0]",right,0,27,32,m,y,y,2019_Jul_16_1425,2AFC_task,59.97551800263119,
stimuli/hdri_bump_09_a.png,stimuli/hdri_bump_09_b.png,5,27,227,8,"[0, 1]",right,1,27,32,m,y,y,2019_Jul_16_1425,2AFC_task,59.97551800263119,
stimuli/hdri_bump_05_a.png,stimuli/hdri_bump_05_b.png,5,28,228,4,"[0, 1]",right,1,27,32,m,y,y,2019_Jul_16_1425,2AFC_task,59.97551800263119,
stimuli/lamp_light_08_a.png,stimuli/lamp_light_08_b.png,5,29,229,37,"[1, 0]",left,1,27,32,m,y,y,2019_Jul_16_1425,2AFC_task,59.97551800263119,
stimuli/hdri_light_10_a.png,stimuli/hdri_light_10_b.png,5,30,230,19,"[0, 1]",right,1,27,32,m,y,y,2019_Jul_16_1425,2AFC_task,59.97551800263119,
stimuli/hdri_light_04_a.png,stimuli/hdri_light_04_b.png,5,31,231,13,"[1, 0]",left,1,27,32,m,y,y,2019_Jul_16_1425,2AFC_task,59.97551800263119,
stimuli/lamp_light_05_a.png,stimuli/lamp_light_05_b.png,5,32,232,34,"[0, 1]",right,1,27,32,m,y,y,2019_Jul_16_1425,2AFC_task,59.97551800263119,
stimuli/hdri_light_03_a.png,stimuli/hdri_light_03_b.png,5,33,233,12,"[0, 1]",right,1,27,32,m,y,y,2019_Jul_16_1425,2AFC_task,59.97551800263119,
stimuli/lamp_light_03_a.png,stimuli/lamp_light_03_b.png,5,34,234,32,"[0, 1]",right,1,27,32,m,y,y,2019_Jul_16_1425,2AFC_task,59.97551800263119,
stimuli/lamp_light_01_a.png,stimuli/lamp_light_01_b.png,5,35,235,30,"[1, 0]",left,1,27,32,m,y,y,2019_Jul_16_1425,2AFC_task,59.97551800263119,
stimuli/lamp_bump_04_a.png,stimuli/lamp_bump_04_b.png,5,36,236,23,"[1, 0]",right,0,27,32,m,y,y,2019_Jul_16_1425,2AFC_task,59.97551800263119,
stimuli/hdri_light_08_a.png,stimuli/hdri_light_08_b.png,5,37,237,17,"[0, 1]",left,0,27,32,m,y,y,2019_Jul_16_1425,2AFC_task,59.97551800263119,
stimuli/hdri_light_01_a.png,stimuli/hdri_light_01_b.png,5,38,238,10,"[1, 0]",left,1,27,32,m,y,y,2019_Jul_16_1425,2AFC_task,59.97551800263119,
stimuli/lamp_bump_03_a.png,stimuli/lamp_bump_03_b.png,5,39,239,22,"[1, 0]",left,1,27,32,m,y,y,2019_Jul_16_1425,2AFC_task,59.97551800263119,
stimuli/hdri_light_02_a.png,stimuli/hdri_light_02_b.png,6,0,240,11,"[1, 0]",left,1,27,32,m,y,y,2019_Jul_16_1425,2AFC_task,59.97551800263119,
stimuli/lamp_bump_04_a.png,stimuli/lamp_bump_04_b.png,6,1,241,23,"[1, 0]",right,0,27,32,m,y,y,2019_Jul_16_1425,2AFC_task,59.97551800263119,
stimuli/hdri_bump_04_a.png,stimuli/hdri_bump_04_b.png,6,2,242,3,"[1, 0]",left,1,27,32,m,y,y,2019_Jul_16_1425,2AFC_task,59.97551800263119,
stimuli/lamp_bump_10_a.png,stimuli/lamp_bump_10_b.png,6,3,243,29,"[0, 1]",right,1,27,32,m,y,y,2019_Jul_16_1425,2AFC_task,59.97551800263119,
stimuli/lamp_light_03_a.png,stimuli/lamp_light_03_b.png,6,4,244,32,"[1, 0]",left,1,27,32,m,y,y,2019_Jul_16_1425,2AFC_task,59.97551800263119,
stimuli/hdri_light_07_a.png,stimuli/hdri_light_07_b.png,6,5,245,16,"[0, 1]",right,1,27,32,m,y,y,2019_Jul_16_1425,2AFC_task,59.97551800263119,
stimuli/hdri_light_09_a.png,stimuli/hdri_light_09_b.png,6,6,246,18,"[0, 1]",left,0,27,32,m,y,y,2019_Jul_16_1425,2AFC_task,59.97551800263119,
stimuli/lamp_bump_07_a.png,stimuli/lamp_bump_07_b.png,6,7,247,26,"[1, 0]",right,0,27,32,m,y,y,2019_Jul_16_1425,2AFC_task,59.97551800263119,
stimuli/hdri_bump_07_a.png,stimuli/hdri_bump_07_b.png,6,8,248,6,"[1, 0]",right,0,27,32,m,y,y,2019_Jul_16_1425,2AFC_task,59.97551800263119,
stimuli/hdri_bump_01_a.png,stimuli/hdri_bump_01_b.png,6,9,249,0,"[1, 0]",left,1,27,32,m,y,y,2019_Jul_16_1425,2AFC_task,59.97551800263119,
stimuli/hdri_light_03_a.png,stimuli/hdri_light_03_b.png,6,10,250,12,"[1, 0]",left,1,27,32,m,y,y,2019_Jul_16_1425,2AFC_task,59.97551800263119,
stimuli/lamp_light_10_a.png,stimuli/lamp_light_10_b.png,6,11,251,39,"[1, 0]",left,1,27,32,m,y,y,2019_Jul_16_1425,2AFC_task,59.97551800263119,
stimuli/lamp_bump_03_a.png,stimuli/lamp_bump_03_b.png,6,12,252,22,"[0, 1]",right,1,27,32,m,y,y,2019_Jul_16_1425,2AFC_task,59.97551800263119,
stimuli/hdri_bump_03_a.png,stimuli/hdri_bump_03_b.png,6,13,253,2,"[1, 0]",left,1,27,32,m,y,y,2019_Jul_16_1425,2AFC_task,59.97551800263119,
stimuli/hdri_light_05_a.png,stimuli/hdri_light_05_b.png,6,14,254,14,"[0, 1]",right,1,27,32,m,y,y,2019_Jul_16_1425,2AFC_task,59.97551800263119,
stimuli/hdri_light_01_a.png,stimuli/hdri_light_01_b.png,6,15,255,10,"[0, 1]",right,1,27,32,m,y,y,2019_Jul_16_1425,2AFC_task,59.97551800263119,
stimuli/hdri_bump_02_a.png,stimuli/hdri_bump_02_b.png,6,16,256,1,"[1, 0]",left,1,27,32,m,y,y,2019_Jul_16_1425,2AFC_task,59.97551800263119,
stimuli/lamp_light_02_a.png,stimuli/lamp_light_02_b.png,6,17,257,31,"[0, 1]",right,1,27,32,m,y,y,2019_Jul_16_1425,2AFC_task,59.97551800263119,
stimuli/lamp_light_01_a.png,stimuli/lamp_light_01_b.png,6,18,258,30,"[1, 0]",left,1,27,32,m,y,y,2019_Jul_16_1425,2AFC_task,59.97551800263119,
stimuli/hdri_bump_08_a.png,stimuli/hdri_bump_08_b.png,6,19,259,7,"[1, 0]",right,0,27,32,m,y,y,2019_Jul_16_1425,2AFC_task,59.97551800263119,
stimuli/lamp_light_06_a.png,stimuli/lamp_light_06_b.png,6,20,260,35,"[1, 0]",left,1,27,32,m,y,y,2019_Jul_16_1425,2AFC_task,59.97551800263119,
stimuli/hdri_light_06_a.png,stimuli/hdri_light_06_b.png,6,21,261,15,"[1, 0]",right,0,27,32,m,y,y,2019_Jul_16_1425,2AFC_task,59.97551800263119,
stimuli/hdri_light_10_a.png,stimuli/hdri_light_10_b.png,6,22,262,19,"[0, 1]",right,1,27,32,m,y,y,2019_Jul_16_1425,2AFC_task,59.97551800263119,
stimuli/lamp_bump_08_a.png,stimuli/lamp_bump_08_b.png,6,23,263,27,"[1, 0]",left,1,27,32,m,y,y,2019_Jul_16_1425,2AFC_task,59.97551800263119,
stimuli/hdri_bump_10_a.png,stimuli/hdri_bump_10_b.png,6,24,264,9,"[1, 0]",left,1,27,32,m,y,y,2019_Jul_16_1425,2AFC_task,59.97551800263119,
stimuli/lamp_bump_02_a.png,stimuli/lamp_bump_02_b.png,6,25,265,21,"[0, 1]",left,0,27,32,m,y,y,2019_Jul_16_1425,2AFC_task,59.97551800263119,
stimuli/lamp_bump_06_a.png,stimuli/lamp_bump_06_b.png,6,26,266,25,"[1, 0]",right,0,27,32,m,y,y,2019_Jul_16_1425,2AFC_task,59.97551800263119,
stimuli/lamp_bump_05_a.png,stimuli/lamp_bump_05_b.png,6,27,267,24,"[1, 0]",left,1,27,32,m,y,y,2019_Jul_16_1425,2AFC_task,59.97551800263119,
stimuli/hdri_light_04_a.png,stimuli/hdri_light_04_b.png,6,28,268,13,"[0, 1]",right,1,27,32,m,y,y,2019_Jul_16_1425,2AFC_task,59.97551800263119,
stimuli/lamp_bump_09_a.png,stimuli/lamp_bump_09_b.png,6,29,269,28,"[1, 0]",right,0,27,32,m,y,y,2019_Jul_16_1425,2AFC_task,59.97551800263119,
stimuli/lamp_light_05_a.png,stimuli/lamp_light_05_b.png,6,30,270,34,"[1, 0]",left,1,27,32,m,y,y,2019_Jul_16_1425,2AFC_task,59.97551800263119,
stimuli/lamp_light_08_a.png,stimuli/lamp_light_08_b.png,6,31,271,37,"[1, 0]",left,1,27,32,m,y,y,2019_Jul_16_1425,2AFC_task,59.97551800263119,
stimuli/hdri_bump_06_a.png,stimuli/hdri_bump_06_b.png,6,32,272,5,"[1, 0]",right,0,27,32,m,y,y,2019_Jul_16_1425,2AFC_task,59.97551800263119,
stimuli/lamp_light_09_a.png,stimuli/lamp_light_09_b.png,6,33,273,38,"[1, 0]",left,1,27,32,m,y,y,2019_Jul_16_1425,2AFC_task,59.97551800263119,
stimuli/hdri_bump_05_a.png,stimuli/hdri_bump_05_b.png,6,34,274,4,"[1, 0]",left,1,27,32,m,y,y,2019_Jul_16_1425,2AFC_task,59.97551800263119,
stimuli/lamp_bump_01_a.png,stimuli/lamp_bump_01_b.png,6,35,275,20,"[0, 1]",left,0,27,32,m,y,y,2019_Jul_16_1425,2AFC_task,59.97551800263119,
stimuli/hdri_bump_09_a.png,stimuli/hdri_bump_09_b.png,6,36,276,8,"[0, 1]",left,0,27,32,m,y,y,2019_Jul_16_1425,2AFC_task,59.97551800263119,
stimuli/lamp_light_07_a.png,stimuli/lamp_light_07_b.png,6,37,277,36,"[1, 0]",left,1,27,32,m,y,y,2019_Jul_16_1425,2AFC_task,59.97551800263119,
stimuli/hdri_light_08_a.png,stimuli/hdri_light_08_b.png,6,38,278,17,"[0, 1]",left,0,27,32,m,y,y,2019_Jul_16_1425,2AFC_task,59.97551800263119,
stimuli/lamp_light_04_a.png,stimuli/lamp_light_04_b.png,6,39,279,33,"[0, 1]",right,1,27,32,m,y,y,2019_Jul_16_1425,2AFC_task,59.97551800263119,
stimuli/lamp_light_10_a.png,stimuli/lamp_light_10_b.png,7,0,280,39,"[1, 0]",left,1,27,32,m,y,y,2019_Jul_16_1425,2AFC_task,59.97551800263119,
stimuli/hdri_light_05_a.png,stimuli/hdri_light_05_b.png,7,1,281,14,"[0, 1]",right,1,27,32,m,y,y,2019_Jul_16_1425,2AFC_task,59.97551800263119,
stimuli/lamp_bump_08_a.png,stimuli/lamp_bump_08_b.png,7,2,282,27,"[1, 0]",left,1,27,32,m,y,y,2019_Jul_16_1425,2AFC_task,59.97551800263119,
stimuli/lamp_bump_06_a.png,stimuli/lamp_bump_06_b.png,7,3,283,25,"[1, 0]",right,0,27,32,m,y,y,2019_Jul_16_1425,2AFC_task,59.97551800263119,
stimuli/hdri_light_09_a.png,stimuli/hdri_light_09_b.png,7,4,284,18,"[0, 1]",left,0,27,32,m,y,y,2019_Jul_16_1425,2AFC_task,59.97551800263119,
stimuli/hdri_light_06_a.png,stimuli/hdri_light_06_b.png,7,5,285,15,"[1, 0]",right,0,27,32,m,y,y,2019_Jul_16_1425,2AFC_task,59.97551800263119,
stimuli/lamp_bump_02_a.png,stimuli/lamp_bump_02_b.png,7,6,286,21,"[1, 0]",right,0,27,32,m,y,y,2019_Jul_16_1425,2AFC_task,59.97551800263119,
stimuli/lamp_bump_03_a.png,stimuli/lamp_bump_03_b.png,7,7,287,22,"[1, 0]",left,1,27,32,m,y,y,2019_Jul_16_1425,2AFC_task,59.97551800263119,
stimuli/hdri_light_04_a.png,stimuli/hdri_light_04_b.png,7,8,288,13,"[0, 1]",right,1,27,32,m,y,y,2019_Jul_16_1425,2AFC_task,59.97551800263119,
stimuli/hdri_bump_01_a.png,stimuli/hdri_bump_01_b.png,7,9,289,0,"[1, 0]",right,0,27,32,m,y,y,2019_Jul_16_1425,2AFC_task,59.97551800263119,
stimuli/hdri_light_02_a.png,stimuli/hdri_light_02_b.png,7,10,290,11,"[0, 1]",left,0,27,32,m,y,y,2019_Jul_16_1425,2AFC_task,59.97551800263119,
stimuli/hdri_bump_06_a.png,stimuli/hdri_bump_06_b.png,7,11,291,5,"[1, 0]",left,1,27,32,m,y,y,2019_Jul_16_1425,2AFC_task,59.97551800263119,
stimuli/lamp_light_01_a.png,stimuli/lamp_light_01_b.png,7,12,292,30,"[0, 1]",right,1,27,32,m,y,y,2019_Jul_16_1425,2AFC_task,59.97551800263119,
stimuli/hdri_bump_05_a.png,stimuli/hdri_bump_05_b.png,7,13,293,4,"[0, 1]",right,1,27,32,m,y,y,2019_Jul_16_1425,2AFC_task,59.97551800263119,
stimuli/lamp_light_09_a.png,stimuli/lamp_light_09_b.png,7,14,294,38,"[0, 1]",right,1,27,32,m,y,y,2019_Jul_16_1425,2AFC_task,59.97551800263119,
stimuli/hdri_bump_09_a.png,stimuli/hdri_bump_09_b.png,7,15,295,8,"[0, 1]",left,0,27,32,m,y,y,2019_Jul_16_1425,2AFC_task,59.97551800263119,
stimuli/lamp_bump_05_a.png,stimuli/lamp_bump_05_b.png,7,16,296,24,"[0, 1]",right,1,27,32,m,y,y,2019_Jul_16_1425,2AFC_task,59.97551800263119,
stimuli/hdri_bump_08_a.png,stimuli/hdri_bump_08_b.png,7,17,297,7,"[0, 1]",left,0,27,32,m,y,y,2019_Jul_16_1425,2AFC_task,59.97551800263119,
stimuli/lamp_light_08_a.png,stimuli/lamp_light_08_b.png,7,18,298,37,"[0, 1]",right,1,27,32,m,y,y,2019_Jul_16_1425,2AFC_task,59.97551800263119,
stimuli/hdri_bump_10_a.png,stimuli/hdri_bump_10_b.png,7,19,299,9,"[1, 0]",left,1,27,32,m,y,y,2019_Jul_16_1425,2AFC_task,59.97551800263119,
stimuli/lamp_bump_10_a.png,stimuli/lamp_bump_10_b.png,7,20,300,29,"[1, 0]",left,1,27,32,m,y,y,2019_Jul_16_1425,2AFC_task,59.97551800263119,
stimuli/hdri_light_03_a.png,stimuli/hdri_light_03_b.png,7,21,301,12,"[0, 1]",left,0,27,32,m,y,y,2019_Jul_16_1425,2AFC_task,59.97551800263119,
stimuli/hdri_light_07_a.png,stimuli/hdri_light_07_b.png,7,22,302,16,"[1, 0]",left,1,27,32,m,y,y,2019_Jul_16_1425,2AFC_task,59.97551800263119,
stimuli/hdri_light_10_a.png,stimuli/hdri_light_10_b.png,7,23,303,19,"[0, 1]",right,1,27,32,m,y,y,2019_Jul_16_1425,2AFC_task,59.97551800263119,
stimuli/lamp_bump_07_a.png,stimuli/lamp_bump_07_b.png,7,24,304,26,"[0, 1]",left,0,27,32,m,y,y,2019_Jul_16_1425,2AFC_task,59.97551800263119,
stimuli/lamp_light_05_a.png,stimuli/lamp_light_05_b.png,7,25,305,34,"[0, 1]",right,1,27,32,m,y,y,2019_Jul_16_1425,2AFC_task,59.97551800263119,
stimuli/hdri_light_01_a.png,stimuli/hdri_light_01_b.png,7,26,306,10,"[0, 1]",right,1,27,32,m,y,y,2019_Jul_16_1425,2AFC_task,59.97551800263119,
stimuli/lamp_bump_04_a.png,stimuli/lamp_bump_04_b.png,7,27,307,23,"[1, 0]",right,0,27,32,m,y,y,2019_Jul_16_1425,2AFC_task,59.97551800263119,
stimuli/lamp_light_06_a.png,stimuli/lamp_light_06_b.png,7,28,308,35,"[0, 1]",right,1,27,32,m,y,y,2019_Jul_16_1425,2AFC_task,59.97551800263119,
stimuli/lamp_light_03_a.png,stimuli/lamp_light_03_b.png,7,29,309,32,"[0, 1]",left,0,27,32,m,y,y,2019_Jul_16_1425,2AFC_task,59.97551800263119,
stimuli/lamp_bump_01_a.png,stimuli/lamp_bump_01_b.png,7,30,310,20,"[0, 1]",left,0,27,32,m,y,y,2019_Jul_16_1425,2AFC_task,59.97551800263119,
stimuli/hdri_bump_04_a.png,stimuli/hdri_bump_04_b.png,7,31,311,3,"[0, 1]",right,1,27,32,m,y,y,2019_Jul_16_1425,2AFC_task,59.97551800263119,
stimuli/lamp_light_04_a.png,stimuli/lamp_light_04_b.png,7,32,312,33,"[0, 1]",right,1,27,32,m,y,y,2019_Jul_16_1425,2AFC_task,59.97551800263119,
stimuli/lamp_bump_09_a.png,stimuli/lamp_bump_09_b.png,7,33,313,28,"[1, 0]",left,1,27,32,m,y,y,2019_Jul_16_1425,2AFC_task,59.97551800263119,
stimuli/lamp_light_07_a.png,stimuli/lamp_light_07_b.png,7,34,314,36,"[1, 0]",left,1,27,32,m,y,y,2019_Jul_16_1425,2AFC_task,59.97551800263119,
stimuli/hdri_light_08_a.png,stimuli/hdri_light_08_b.png,7,35,315,17,"[1, 0]",right,0,27,32,m,y,y,2019_Jul_16_1425,2AFC_task,59.97551800263119,
stimuli/hdri_bump_07_a.png,stimuli/hdri_bump_07_b.png,7,36,316,6,"[0, 1]",left,0,27,32,m,y,y,2019_Jul_16_1425,2AFC_task,59.97551800263119,
stimuli/hdri_bump_03_a.png,stimuli/hdri_bump_03_b.png,7,37,317,2,"[0, 1]",right,1,27,32,m,y,y,2019_Jul_16_1425,2AFC_task,59.97551800263119,
stimuli/lamp_light_02_a.png,stimuli/lamp_light_02_b.png,7,38,318,31,"[1, 0]",left,1,27,32,m,y,y,2019_Jul_16_1425,2AFC_task,59.97551800263119,
stimuli/hdri_bump_02_a.png,stimuli/hdri_bump_02_b.png,7,39,319,1,"[0, 1]",left,0,27,32,m,y,y,2019_Jul_16_1425,2AFC_task,59.97551800263119,
