stimOne,stimTwo,trials_1.thisRepN,trials_1.thisTrialN,trials_1.thisN,trials_1.thisIndex,presentation_positions,resp_key,corresponding_image,participant ID (two digits, e.g. 01),age,gender (m/f/-),normal or corrected-to-normal vision (y/n),normal colour vision (y/n),date,expName,frameRate,
stimuli/lamp_bump_02_a.png,stimuli/lamp_bump_02_b.png,0,0,0,21,"[0, 1]",left,0,28,21,f,y,y,2019_Jul_17_1054,2AFC_task,59.94851622701899,
stimuli/lamp_light_06_a.png,stimuli/lamp_light_06_b.png,0,1,1,35,"[0, 1]",right,1,28,21,f,y,y,2019_Jul_17_1054,2AFC_task,59.94851622701899,
stimuli/lamp_bump_01_a.png,stimuli/lamp_bump_01_b.png,0,2,2,20,"[0, 1]",left,0,28,21,f,y,y,2019_Jul_17_1054,2AFC_task,59.94851622701899,
stimuli/lamp_light_05_a.png,stimuli/lamp_light_05_b.png,0,3,3,34,"[0, 1]",right,1,28,21,f,y,y,2019_Jul_17_1054,2AFC_task,59.94851622701899,
stimuli/hdri_light_02_a.png,stimuli/hdri_light_02_b.png,0,4,4,11,"[0, 1]",left,0,28,21,f,y,y,2019_Jul_17_1054,2AFC_task,59.94851622701899,
stimuli/lamp_light_03_a.png,stimuli/lamp_light_03_b.png,0,5,5,32,"[1, 0]",left,1,28,21,f,y,y,2019_Jul_17_1054,2AFC_task,59.94851622701899,
stimuli/hdri_bump_04_a.png,stimuli/hdri_bump_04_b.png,0,6,6,3,"[0, 1]",right,1,28,21,f,y,y,2019_Jul_17_1054,2AFC_task,59.94851622701899,
stimuli/hdri_light_04_a.png,stimuli/hdri_light_04_b.png,0,7,7,13,"[1, 0]",left,1,28,21,f,y,y,2019_Jul_17_1054,2AFC_task,59.94851622701899,
stimuli/hdri_bump_08_a.png,stimuli/hdri_bump_08_b.png,0,8,8,7,"[0, 1]",right,1,28,21,f,y,y,2019_Jul_17_1054,2AFC_task,59.94851622701899,
stimuli/hdri_light_03_a.png,stimuli/hdri_light_03_b.png,0,9,9,12,"[0, 1]",left,0,28,21,f,y,y,2019_Jul_17_1054,2AFC_task,59.94851622701899,
stimuli/lamp_bump_03_a.png,stimuli/lamp_bump_03_b.png,0,10,10,22,"[1, 0]",left,1,28,21,f,y,y,2019_Jul_17_1054,2AFC_task,59.94851622701899,
stimuli/hdri_light_05_a.png,stimuli/hdri_light_05_b.png,0,11,11,14,"[1, 0]",right,0,28,21,f,y,y,2019_Jul_17_1054,2AFC_task,59.94851622701899,
stimuli/lamp_bump_09_a.png,stimuli/lamp_bump_09_b.png,0,12,12,28,"[1, 0]",right,0,28,21,f,y,y,2019_Jul_17_1054,2AFC_task,59.94851622701899,
stimuli/hdri_bump_02_a.png,stimuli/hdri_bump_02_b.png,0,13,13,1,"[0, 1]",right,1,28,21,f,y,y,2019_Jul_17_1054,2AFC_task,59.94851622701899,
stimuli/lamp_light_10_a.png,stimuli/lamp_light_10_b.png,0,14,14,39,"[1, 0]",left,1,28,21,f,y,y,2019_Jul_17_1054,2AFC_task,59.94851622701899,
stimuli/hdri_light_07_a.png,stimuli/hdri_light_07_b.png,0,15,15,16,"[1, 0]",left,1,28,21,f,y,y,2019_Jul_17_1054,2AFC_task,59.94851622701899,
stimuli/hdri_bump_03_a.png,stimuli/hdri_bump_03_b.png,0,16,16,2,"[0, 1]",right,1,28,21,f,y,y,2019_Jul_17_1054,2AFC_task,59.94851622701899,
stimuli/lamp_light_08_a.png,stimuli/lamp_light_08_b.png,0,17,17,37,"[1, 0]",left,1,28,21,f,y,y,2019_Jul_17_1054,2AFC_task,59.94851622701899,
stimuli/hdri_bump_06_a.png,stimuli/hdri_bump_06_b.png,0,18,18,5,"[1, 0]",left,1,28,21,f,y,y,2019_Jul_17_1054,2AFC_task,59.94851622701899,
stimuli/hdri_bump_07_a.png,stimuli/hdri_bump_07_b.png,0,19,19,6,"[0, 1]",left,0,28,21,f,y,y,2019_Jul_17_1054,2AFC_task,59.94851622701899,
stimuli/lamp_bump_08_a.png,stimuli/lamp_bump_08_b.png,0,20,20,27,"[1, 0]",left,1,28,21,f,y,y,2019_Jul_17_1054,2AFC_task,59.94851622701899,
stimuli/lamp_bump_10_a.png,stimuli/lamp_bump_10_b.png,0,21,21,29,"[0, 1]",right,1,28,21,f,y,y,2019_Jul_17_1054,2AFC_task,59.94851622701899,
stimuli/lamp_light_01_a.png,stimuli/lamp_light_01_b.png,0,22,22,30,"[1, 0]",left,1,28,21,f,y,y,2019_Jul_17_1054,2AFC_task,59.94851622701899,
stimuli/lamp_light_09_a.png,stimuli/lamp_light_09_b.png,0,23,23,38,"[1, 0]",left,1,28,21,f,y,y,2019_Jul_17_1054,2AFC_task,59.94851622701899,
stimuli/hdri_bump_05_a.png,stimuli/hdri_bump_05_b.png,0,24,24,4,"[1, 0]",left,1,28,21,f,y,y,2019_Jul_17_1054,2AFC_task,59.94851622701899,
stimuli/hdri_light_08_a.png,stimuli/hdri_light_08_b.png,0,25,25,17,"[1, 0]",left,1,28,21,f,y,y,2019_Jul_17_1054,2AFC_task,59.94851622701899,
stimuli/lamp_bump_04_a.png,stimuli/lamp_bump_04_b.png,0,26,26,23,"[1, 0]",left,1,28,21,f,y,y,2019_Jul_17_1054,2AFC_task,59.94851622701899,
stimuli/hdri_light_10_a.png,stimuli/hdri_light_10_b.png,0,27,27,19,"[1, 0]",left,1,28,21,f,y,y,2019_Jul_17_1054,2AFC_task,59.94851622701899,
stimuli/lamp_light_07_a.png,stimuli/lamp_light_07_b.png,0,28,28,36,"[0, 1]",right,1,28,21,f,y,y,2019_Jul_17_1054,2AFC_task,59.94851622701899,
stimuli/lamp_light_02_a.png,stimuli/lamp_light_02_b.png,0,29,29,31,"[1, 0]",left,1,28,21,f,y,y,2019_Jul_17_1054,2AFC_task,59.94851622701899,
stimuli/hdri_bump_10_a.png,stimuli/hdri_bump_10_b.png,0,30,30,9,"[1, 0]",left,1,28,21,f,y,y,2019_Jul_17_1054,2AFC_task,59.94851622701899,
stimuli/hdri_light_06_a.png,stimuli/hdri_light_06_b.png,0,31,31,15,"[1, 0]",right,0,28,21,f,y,y,2019_Jul_17_1054,2AFC_task,59.94851622701899,
stimuli/lamp_bump_07_a.png,stimuli/lamp_bump_07_b.png,0,32,32,26,"[0, 1]",right,1,28,21,f,y,y,2019_Jul_17_1054,2AFC_task,59.94851622701899,
stimuli/hdri_light_01_a.png,stimuli/hdri_light_01_b.png,0,33,33,10,"[0, 1]",left,0,28,21,f,y,y,2019_Jul_17_1054,2AFC_task,59.94851622701899,
stimuli/hdri_light_09_a.png,stimuli/hdri_light_09_b.png,0,34,34,18,"[1, 0]",right,0,28,21,f,y,y,2019_Jul_17_1054,2AFC_task,59.94851622701899,
stimuli/hdri_bump_01_a.png,stimuli/hdri_bump_01_b.png,0,35,35,0,"[0, 1]",right,1,28,21,f,y,y,2019_Jul_17_1054,2AFC_task,59.94851622701899,
stimuli/lamp_light_04_a.png,stimuli/lamp_light_04_b.png,0,36,36,33,"[0, 1]",left,0,28,21,f,y,y,2019_Jul_17_1054,2AFC_task,59.94851622701899,
stimuli/lamp_bump_05_a.png,stimuli/lamp_bump_05_b.png,0,37,37,24,"[0, 1]",right,1,28,21,f,y,y,2019_Jul_17_1054,2AFC_task,59.94851622701899,
stimuli/lamp_bump_06_a.png,stimuli/lamp_bump_06_b.png,0,38,38,25,"[1, 0]",left,1,28,21,f,y,y,2019_Jul_17_1054,2AFC_task,59.94851622701899,
stimuli/hdri_bump_09_a.png,stimuli/hdri_bump_09_b.png,0,39,39,8,"[0, 1]",right,1,28,21,f,y,y,2019_Jul_17_1054,2AFC_task,59.94851622701899,
stimuli/hdri_bump_10_a.png,stimuli/hdri_bump_10_b.png,1,0,40,9,"[0, 1]",right,1,28,21,f,y,y,2019_Jul_17_1054,2AFC_task,59.94851622701899,
stimuli/hdri_light_01_a.png,stimuli/hdri_light_01_b.png,1,1,41,10,"[0, 1]",left,0,28,21,f,y,y,2019_Jul_17_1054,2AFC_task,59.94851622701899,
stimuli/lamp_bump_04_a.png,stimuli/lamp_bump_04_b.png,1,2,42,23,"[0, 1]",right,1,28,21,f,y,y,2019_Jul_17_1054,2AFC_task,59.94851622701899,
stimuli/lamp_light_06_a.png,stimuli/lamp_light_06_b.png,1,3,43,35,"[1, 0]",left,1,28,21,f,y,y,2019_Jul_17_1054,2AFC_task,59.94851622701899,
stimuli/hdri_light_02_a.png,stimuli/hdri_light_02_b.png,1,4,44,11,"[1, 0]",right,0,28,21,f,y,y,2019_Jul_17_1054,2AFC_task,59.94851622701899,
stimuli/hdri_light_09_a.png,stimuli/hdri_light_09_b.png,1,5,45,18,"[1, 0]",right,0,28,21,f,y,y,2019_Jul_17_1054,2AFC_task,59.94851622701899,
stimuli/lamp_light_10_a.png,stimuli/lamp_light_10_b.png,1,6,46,39,"[0, 1]",right,1,28,21,f,y,y,2019_Jul_17_1054,2AFC_task,59.94851622701899,
stimuli/lamp_bump_10_a.png,stimuli/lamp_bump_10_b.png,1,7,47,29,"[1, 0]",left,1,28,21,f,y,y,2019_Jul_17_1054,2AFC_task,59.94851622701899,
stimuli/lamp_light_01_a.png,stimuli/lamp_light_01_b.png,1,8,48,30,"[0, 1]",right,1,28,21,f,y,y,2019_Jul_17_1054,2AFC_task,59.94851622701899,
stimuli/hdri_light_05_a.png,stimuli/hdri_light_05_b.png,1,9,49,14,"[0, 1]",left,0,28,21,f,y,y,2019_Jul_17_1054,2AFC_task,59.94851622701899,
stimuli/hdri_bump_07_a.png,stimuli/hdri_bump_07_b.png,1,10,50,6,"[1, 0]",left,1,28,21,f,y,y,2019_Jul_17_1054,2AFC_task,59.94851622701899,
stimuli/hdri_light_10_a.png,stimuli/hdri_light_10_b.png,1,11,51,19,"[1, 0]",left,1,28,21,f,y,y,2019_Jul_17_1054,2AFC_task,59.94851622701899,
stimuli/hdri_light_04_a.png,stimuli/hdri_light_04_b.png,1,12,52,13,"[1, 0]",left,1,28,21,f,y,y,2019_Jul_17_1054,2AFC_task,59.94851622701899,
stimuli/lamp_light_05_a.png,stimuli/lamp_light_05_b.png,1,13,53,34,"[0, 1]",right,1,28,21,f,y,y,2019_Jul_17_1054,2AFC_task,59.94851622701899,
stimuli/hdri_bump_04_a.png,stimuli/hdri_bump_04_b.png,1,14,54,3,"[0, 1]",right,1,28,21,f,y,y,2019_Jul_17_1054,2AFC_task,59.94851622701899,
stimuli/lamp_bump_08_a.png,stimuli/lamp_bump_08_b.png,1,15,55,27,"[1, 0]",left,1,28,21,f,y,y,2019_Jul_17_1054,2AFC_task,59.94851622701899,
stimuli/lamp_bump_03_a.png,stimuli/lamp_bump_03_b.png,1,16,56,22,"[1, 0]",left,1,28,21,f,y,y,2019_Jul_17_1054,2AFC_task,59.94851622701899,
stimuli/lamp_bump_06_a.png,stimuli/lamp_bump_06_b.png,1,17,57,25,"[1, 0]",left,1,28,21,f,y,y,2019_Jul_17_1054,2AFC_task,59.94851622701899,
stimuli/hdri_bump_03_a.png,stimuli/hdri_bump_03_b.png,1,18,58,2,"[0, 1]",right,1,28,21,f,y,y,2019_Jul_17_1054,2AFC_task,59.94851622701899,
stimuli/hdri_light_06_a.png,stimuli/hdri_light_06_b.png,1,19,59,15,"[1, 0]",left,1,28,21,f,y,y,2019_Jul_17_1054,2AFC_task,59.94851622701899,
stimuli/lamp_light_08_a.png,stimuli/lamp_light_08_b.png,1,20,60,37,"[0, 1]",right,1,28,21,f,y,y,2019_Jul_17_1054,2AFC_task,59.94851622701899,
stimuli/lamp_light_04_a.png,stimuli/lamp_light_04_b.png,1,21,61,33,"[1, 0]",left,1,28,21,f,y,y,2019_Jul_17_1054,2AFC_task,59.94851622701899,
stimuli/hdri_light_07_a.png,stimuli/hdri_light_07_b.png,1,22,62,16,"[0, 1]",right,1,28,21,f,y,y,2019_Jul_17_1054,2AFC_task,59.94851622701899,
stimuli/hdri_bump_05_a.png,stimuli/hdri_bump_05_b.png,1,23,63,4,"[1, 0]",left,1,28,21,f,y,y,2019_Jul_17_1054,2AFC_task,59.94851622701899,
stimuli/hdri_light_03_a.png,stimuli/hdri_light_03_b.png,1,24,64,12,"[1, 0]",right,0,28,21,f,y,y,2019_Jul_17_1054,2AFC_task,59.94851622701899,
stimuli/lamp_light_07_a.png,stimuli/lamp_light_07_b.png,1,25,65,36,"[0, 1]",right,1,28,21,f,y,y,2019_Jul_17_1054,2AFC_task,59.94851622701899,
stimuli/lamp_bump_07_a.png,stimuli/lamp_bump_07_b.png,1,26,66,26,"[1, 0]",left,1,28,21,f,y,y,2019_Jul_17_1054,2AFC_task,59.94851622701899,
stimuli/hdri_light_08_a.png,stimuli/hdri_light_08_b.png,1,27,67,17,"[0, 1]",right,1,28,21,f,y,y,2019_Jul_17_1054,2AFC_task,59.94851622701899,
stimuli/hdri_bump_09_a.png,stimuli/hdri_bump_09_b.png,1,28,68,8,"[1, 0]",left,1,28,21,f,y,y,2019_Jul_17_1054,2AFC_task,59.94851622701899,
stimuli/lamp_light_03_a.png,stimuli/lamp_light_03_b.png,1,29,69,32,"[0, 1]",left,0,28,21,f,y,y,2019_Jul_17_1054,2AFC_task,59.94851622701899,
stimuli/lamp_bump_02_a.png,stimuli/lamp_bump_02_b.png,1,30,70,21,"[1, 0]",left,1,28,21,f,y,y,2019_Jul_17_1054,2AFC_task,59.94851622701899,
stimuli/hdri_bump_02_a.png,stimuli/hdri_bump_02_b.png,1,31,71,1,"[0, 1]",right,1,28,21,f,y,y,2019_Jul_17_1054,2AFC_task,59.94851622701899,
stimuli/hdri_bump_06_a.png,stimuli/hdri_bump_06_b.png,1,32,72,5,"[1, 0]",left,1,28,21,f,y,y,2019_Jul_17_1054,2AFC_task,59.94851622701899,
stimuli/lamp_bump_01_a.png,stimuli/lamp_bump_01_b.png,1,33,73,20,"[0, 1]",right,1,28,21,f,y,y,2019_Jul_17_1054,2AFC_task,59.94851622701899,
stimuli/lamp_light_09_a.png,stimuli/lamp_light_09_b.png,1,34,74,38,"[1, 0]",left,1,28,21,f,y,y,2019_Jul_17_1054,2AFC_task,59.94851622701899,
stimuli/lamp_bump_05_a.png,stimuli/lamp_bump_05_b.png,1,35,75,24,"[0, 1]",right,1,28,21,f,y,y,2019_Jul_17_1054,2AFC_task,59.94851622701899,
stimuli/hdri_bump_08_a.png,stimuli/hdri_bump_08_b.png,1,36,76,7,"[0, 1]",right,1,28,21,f,y,y,2019_Jul_17_1054,2AFC_task,59.94851622701899,
stimuli/lamp_bump_09_a.png,stimuli/lamp_bump_09_b.png,1,37,77,28,"[1, 0]",left,1,28,21,f,y,y,2019_Jul_17_1054,2AFC_task,59.94851622701899,
stimuli/lamp_light_02_a.png,stimuli/lamp_light_02_b.png,1,38,78,31,"[0, 1]",right,1,28,21,f,y,y,2019_Jul_17_1054,2AFC_task,59.94851622701899,
stimuli/hdri_bump_01_a.png,stimuli/hdri_bump_01_b.png,1,39,79,0,"[0, 1]",right,1,28,21,f,y,y,2019_Jul_17_1054,2AFC_task,59.94851622701899,
stimuli/hdri_bump_05_a.png,stimuli/hdri_bump_05_b.png,2,0,80,4,"[0, 1]",right,1,28,21,f,y,y,2019_Jul_17_1054,2AFC_task,59.94851622701899,
stimuli/hdri_light_05_a.png,stimuli/hdri_light_05_b.png,2,1,81,14,"[0, 1]",left,0,28,21,f,y,y,2019_Jul_17_1054,2AFC_task,59.94851622701899,
stimuli/lamp_bump_01_a.png,stimuli/lamp_bump_01_b.png,2,2,82,20,"[0, 1]",right,1,28,21,f,y,y,2019_Jul_17_1054,2AFC_task,59.94851622701899,
stimuli/lamp_light_05_a.png,stimuli/lamp_light_05_b.png,2,3,83,34,"[1, 0]",left,1,28,21,f,y,y,2019_Jul_17_1054,2AFC_task,59.94851622701899,
stimuli/lamp_light_08_a.png,stimuli/lamp_light_08_b.png,2,4,84,37,"[0, 1]",left,0,28,21,f,y,y,2019_Jul_17_1054,2AFC_task,59.94851622701899,
stimuli/lamp_bump_04_a.png,stimuli/lamp_bump_04_b.png,2,5,85,23,"[0, 1]",right,1,28,21,f,y,y,2019_Jul_17_1054,2AFC_task,59.94851622701899,
stimuli/hdri_light_08_a.png,stimuli/hdri_light_08_b.png,2,6,86,17,"[0, 1]",right,1,28,21,f,y,y,2019_Jul_17_1054,2AFC_task,59.94851622701899,
stimuli/lamp_bump_09_a.png,stimuli/lamp_bump_09_b.png,2,7,87,28,"[1, 0]",left,1,28,21,f,y,y,2019_Jul_17_1054,2AFC_task,59.94851622701899,
stimuli/lamp_light_01_a.png,stimuli/lamp_light_01_b.png,2,8,88,30,"[0, 1]",right,1,28,21,f,y,y,2019_Jul_17_1054,2AFC_task,59.94851622701899,
stimuli/lamp_light_10_a.png,stimuli/lamp_light_10_b.png,2,9,89,39,"[1, 0]",left,1,28,21,f,y,y,2019_Jul_17_1054,2AFC_task,59.94851622701899,
stimuli/hdri_bump_10_a.png,stimuli/hdri_bump_10_b.png,2,10,90,9,"[1, 0]",left,1,28,21,f,y,y,2019_Jul_17_1054,2AFC_task,59.94851622701899,
stimuli/hdri_bump_06_a.png,stimuli/hdri_bump_06_b.png,2,11,91,5,"[0, 1]",right,1,28,21,f,y,y,2019_Jul_17_1054,2AFC_task,59.94851622701899,
stimuli/lamp_bump_07_a.png,stimuli/lamp_bump_07_b.png,2,12,92,26,"[0, 1]",right,1,28,21,f,y,y,2019_Jul_17_1054,2AFC_task,59.94851622701899,
stimuli/hdri_bump_04_a.png,stimuli/hdri_bump_04_b.png,2,13,93,3,"[1, 0]",left,1,28,21,f,y,y,2019_Jul_17_1054,2AFC_task,59.94851622701899,
stimuli/lamp_light_04_a.png,stimuli/lamp_light_04_b.png,2,14,94,33,"[1, 0]",left,1,28,21,f,y,y,2019_Jul_17_1054,2AFC_task,59.94851622701899,
stimuli/hdri_light_09_a.png,stimuli/hdri_light_09_b.png,2,15,95,18,"[1, 0]",right,0,28,21,f,y,y,2019_Jul_17_1054,2AFC_task,59.94851622701899,
stimuli/hdri_light_03_a.png,stimuli/hdri_light_03_b.png,2,16,96,12,"[1, 0]",right,0,28,21,f,y,y,2019_Jul_17_1054,2AFC_task,59.94851622701899,
stimuli/hdri_bump_03_a.png,stimuli/hdri_bump_03_b.png,2,17,97,2,"[0, 1]",right,1,28,21,f,y,y,2019_Jul_17_1054,2AFC_task,59.94851622701899,
stimuli/lamp_bump_10_a.png,stimuli/lamp_bump_10_b.png,2,18,98,29,"[1, 0]",left,1,28,21,f,y,y,2019_Jul_17_1054,2AFC_task,59.94851622701899,
stimuli/hdri_light_04_a.png,stimuli/hdri_light_04_b.png,2,19,99,13,"[0, 1]",left,0,28,21,f,y,y,2019_Jul_17_1054,2AFC_task,59.94851622701899,
stimuli/lamp_bump_05_a.png,stimuli/lamp_bump_05_b.png,2,20,100,24,"[0, 1]",right,1,28,21,f,y,y,2019_Jul_17_1054,2AFC_task,59.94851622701899,
stimuli/hdri_bump_02_a.png,stimuli/hdri_bump_02_b.png,2,21,101,1,"[1, 0]",left,1,28,21,f,y,y,2019_Jul_17_1054,2AFC_task,59.94851622701899,
stimuli/hdri_light_01_a.png,stimuli/hdri_light_01_b.png,2,22,102,10,"[0, 1]",left,0,28,21,f,y,y,2019_Jul_17_1054,2AFC_task,59.94851622701899,
stimuli/hdri_light_07_a.png,stimuli/hdri_light_07_b.png,2,23,103,16,"[0, 1]",right,1,28,21,f,y,y,2019_Jul_17_1054,2AFC_task,59.94851622701899,
stimuli/lamp_bump_02_a.png,stimuli/lamp_bump_02_b.png,2,24,104,21,"[0, 1]",right,1,28,21,f,y,y,2019_Jul_17_1054,2AFC_task,59.94851622701899,
stimuli/hdri_light_10_a.png,stimuli/hdri_light_10_b.png,2,25,105,19,"[1, 0]",left,1,28,21,f,y,y,2019_Jul_17_1054,2AFC_task,59.94851622701899,
stimuli/lamp_light_07_a.png,stimuli/lamp_light_07_b.png,2,26,106,36,"[1, 0]",left,1,28,21,f,y,y,2019_Jul_17_1054,2AFC_task,59.94851622701899,
stimuli/hdri_bump_09_a.png,stimuli/hdri_bump_09_b.png,2,27,107,8,"[0, 1]",right,1,28,21,f,y,y,2019_Jul_17_1054,2AFC_task,59.94851622701899,
stimuli/hdri_bump_07_a.png,stimuli/hdri_bump_07_b.png,2,28,108,6,"[0, 1]",right,1,28,21,f,y,y,2019_Jul_17_1054,2AFC_task,59.94851622701899,
stimuli/lamp_bump_08_a.png,stimuli/lamp_bump_08_b.png,2,29,109,27,"[1, 0]",left,1,28,21,f,y,y,2019_Jul_17_1054,2AFC_task,59.94851622701899,
stimuli/lamp_light_02_a.png,stimuli/lamp_light_02_b.png,2,30,110,31,"[0, 1]",right,1,28,21,f,y,y,2019_Jul_17_1054,2AFC_task,59.94851622701899,
stimuli/lamp_bump_03_a.png,stimuli/lamp_bump_03_b.png,2,31,111,22,"[1, 0]",left,1,28,21,f,y,y,2019_Jul_17_1054,2AFC_task,59.94851622701899,
stimuli/hdri_light_06_a.png,stimuli/hdri_light_06_b.png,2,32,112,15,"[1, 0]",right,0,28,21,f,y,y,2019_Jul_17_1054,2AFC_task,59.94851622701899,
stimuli/lamp_light_03_a.png,stimuli/lamp_light_03_b.png,2,33,113,32,"[0, 1]",right,1,28,21,f,y,y,2019_Jul_17_1054,2AFC_task,59.94851622701899,
stimuli/hdri_bump_08_a.png,stimuli/hdri_bump_08_b.png,2,34,114,7,"[1, 0]",left,1,28,21,f,y,y,2019_Jul_17_1054,2AFC_task,59.94851622701899,
stimuli/lamp_bump_06_a.png,stimuli/lamp_bump_06_b.png,2,35,115,25,"[1, 0]",left,1,28,21,f,y,y,2019_Jul_17_1054,2AFC_task,59.94851622701899,
stimuli/lamp_light_09_a.png,stimuli/lamp_light_09_b.png,2,36,116,38,"[0, 1]",right,1,28,21,f,y,y,2019_Jul_17_1054,2AFC_task,59.94851622701899,
stimuli/lamp_light_06_a.png,stimuli/lamp_light_06_b.png,2,37,117,35,"[0, 1]",right,1,28,21,f,y,y,2019_Jul_17_1054,2AFC_task,59.94851622701899,
stimuli/hdri_bump_01_a.png,stimuli/hdri_bump_01_b.png,2,38,118,0,"[0, 1]",right,1,28,21,f,y,y,2019_Jul_17_1054,2AFC_task,59.94851622701899,
stimuli/hdri_light_02_a.png,stimuli/hdri_light_02_b.png,2,39,119,11,"[1, 0]",right,0,28,21,f,y,y,2019_Jul_17_1054,2AFC_task,59.94851622701899,
stimuli/hdri_bump_04_a.png,stimuli/hdri_bump_04_b.png,3,0,120,3,"[0, 1]",right,1,28,21,f,y,y,2019_Jul_17_1054,2AFC_task,59.94851622701899,
stimuli/hdri_bump_03_a.png,stimuli/hdri_bump_03_b.png,3,1,121,2,"[1, 0]",left,1,28,21,f,y,y,2019_Jul_17_1054,2AFC_task,59.94851622701899,
stimuli/lamp_bump_10_a.png,stimuli/lamp_bump_10_b.png,3,2,122,29,"[1, 0]",left,1,28,21,f,y,y,2019_Jul_17_1054,2AFC_task,59.94851622701899,
stimuli/lamp_bump_01_a.png,stimuli/lamp_bump_01_b.png,3,3,123,20,"[0, 1]",right,1,28,21,f,y,y,2019_Jul_17_1054,2AFC_task,59.94851622701899,
stimuli/hdri_bump_10_a.png,stimuli/hdri_bump_10_b.png,3,4,124,9,"[1, 0]",left,1,28,21,f,y,y,2019_Jul_17_1054,2AFC_task,59.94851622701899,
stimuli/hdri_bump_02_a.png,stimuli/hdri_bump_02_b.png,3,5,125,1,"[1, 0]",left,1,28,21,f,y,y,2019_Jul_17_1054,2AFC_task,59.94851622701899,
stimuli/lamp_light_08_a.png,stimuli/lamp_light_08_b.png,3,6,126,37,"[1, 0]",left,1,28,21,f,y,y,2019_Jul_17_1054,2AFC_task,59.94851622701899,
stimuli/lamp_light_03_a.png,stimuli/lamp_light_03_b.png,3,7,127,32,"[0, 1]",right,1,28,21,f,y,y,2019_Jul_17_1054,2AFC_task,59.94851622701899,
stimuli/lamp_bump_09_a.png,stimuli/lamp_bump_09_b.png,3,8,128,28,"[0, 1]",right,1,28,21,f,y,y,2019_Jul_17_1054,2AFC_task,59.94851622701899,
stimuli/hdri_bump_05_a.png,stimuli/hdri_bump_05_b.png,3,9,129,4,"[0, 1]",right,1,28,21,f,y,y,2019_Jul_17_1054,2AFC_task,59.94851622701899,
stimuli/lamp_bump_03_a.png,stimuli/lamp_bump_03_b.png,3,10,130,22,"[1, 0]",left,1,28,21,f,y,y,2019_Jul_17_1054,2AFC_task,59.94851622701899,
stimuli/hdri_bump_01_a.png,stimuli/hdri_bump_01_b.png,3,11,131,0,"[1, 0]",left,1,28,21,f,y,y,2019_Jul_17_1054,2AFC_task,59.94851622701899,
stimuli/lamp_light_09_a.png,stimuli/lamp_light_09_b.png,3,12,132,38,"[1, 0]",left,1,28,21,f,y,y,2019_Jul_17_1054,2AFC_task,59.94851622701899,
stimuli/hdri_light_06_a.png,stimuli/hdri_light_06_b.png,3,13,133,15,"[0, 1]",left,0,28,21,f,y,y,2019_Jul_17_1054,2AFC_task,59.94851622701899,
stimuli/hdri_light_08_a.png,stimuli/hdri_light_08_b.png,3,14,134,17,"[0, 1]",right,1,28,21,f,y,y,2019_Jul_17_1054,2AFC_task,59.94851622701899,
stimuli/hdri_bump_09_a.png,stimuli/hdri_bump_09_b.png,3,15,135,8,"[0, 1]",right,1,28,21,f,y,y,2019_Jul_17_1054,2AFC_task,59.94851622701899,
stimuli/lamp_light_04_a.png,stimuli/lamp_light_04_b.png,3,16,136,33,"[0, 1]",right,1,28,21,f,y,y,2019_Jul_17_1054,2AFC_task,59.94851622701899,
stimuli/lamp_bump_02_a.png,stimuli/lamp_bump_02_b.png,3,17,137,21,"[1, 0]",left,1,28,21,f,y,y,2019_Jul_17_1054,2AFC_task,59.94851622701899,
stimuli/hdri_light_01_a.png,stimuli/hdri_light_01_b.png,3,18,138,10,"[0, 1]",left,0,28,21,f,y,y,2019_Jul_17_1054,2AFC_task,59.94851622701899,
stimuli/lamp_bump_07_a.png,stimuli/lamp_bump_07_b.png,3,19,139,26,"[1, 0]",left,1,28,21,f,y,y,2019_Jul_17_1054,2AFC_task,59.94851622701899,
stimuli/hdri_light_09_a.png,stimuli/hdri_light_09_b.png,3,20,140,18,"[1, 0]",right,0,28,21,f,y,y,2019_Jul_17_1054,2AFC_task,59.94851622701899,
stimuli/lamp_bump_05_a.png,stimuli/lamp_bump_05_b.png,3,21,141,24,"[1, 0]",left,1,28,21,f,y,y,2019_Jul_17_1054,2AFC_task,59.94851622701899,
stimuli/lamp_light_01_a.png,stimuli/lamp_light_01_b.png,3,22,142,30,"[0, 1]",right,1,28,21,f,y,y,2019_Jul_17_1054,2AFC_task,59.94851622701899,
stimuli/lamp_bump_04_a.png,stimuli/lamp_bump_04_b.png,3,23,143,23,"[1, 0]",left,1,28,21,f,y,y,2019_Jul_17_1054,2AFC_task,59.94851622701899,
stimuli/hdri_bump_07_a.png,stimuli/hdri_bump_07_b.png,3,24,144,6,"[1, 0]",left,1,28,21,f,y,y,2019_Jul_17_1054,2AFC_task,59.94851622701899,
stimuli/hdri_light_07_a.png,stimuli/hdri_light_07_b.png,3,25,145,16,"[1, 0]",left,1,28,21,f,y,y,2019_Jul_17_1054,2AFC_task,59.94851622701899,
stimuli/lamp_bump_08_a.png,stimuli/lamp_bump_08_b.png,3,26,146,27,"[1, 0]",left,1,28,21,f,y,y,2019_Jul_17_1054,2AFC_task,59.94851622701899,
stimuli/hdri_light_02_a.png,stimuli/hdri_light_02_b.png,3,27,147,11,"[0, 1]",left,0,28,21,f,y,y,2019_Jul_17_1054,2AFC_task,59.94851622701899,
stimuli/lamp_light_07_a.png,stimuli/lamp_light_07_b.png,3,28,148,36,"[0, 1]",right,1,28,21,f,y,y,2019_Jul_17_1054,2AFC_task,59.94851622701899,
stimuli/lamp_light_06_a.png,stimuli/lamp_light_06_b.png,3,29,149,35,"[0, 1]",right,1,28,21,f,y,y,2019_Jul_17_1054,2AFC_task,59.94851622701899,
stimuli/lamp_light_02_a.png,stimuli/lamp_light_02_b.png,3,30,150,31,"[1, 0]",right,0,28,21,f,y,y,2019_Jul_17_1054,2AFC_task,59.94851622701899,
stimuli/hdri_bump_06_a.png,stimuli/hdri_bump_06_b.png,3,31,151,5,"[0, 1]",right,1,28,21,f,y,y,2019_Jul_17_1054,2AFC_task,59.94851622701899,
stimuli/lamp_light_10_a.png,stimuli/lamp_light_10_b.png,3,32,152,39,"[1, 0]",left,1,28,21,f,y,y,2019_Jul_17_1054,2AFC_task,59.94851622701899,
stimuli/hdri_light_04_a.png,stimuli/hdri_light_04_b.png,3,33,153,13,"[1, 0]",left,1,28,21,f,y,y,2019_Jul_17_1054,2AFC_task,59.94851622701899,
stimuli/hdri_light_05_a.png,stimuli/hdri_light_05_b.png,3,34,154,14,"[0, 1]",left,0,28,21,f,y,y,2019_Jul_17_1054,2AFC_task,59.94851622701899,
stimuli/hdri_light_03_a.png,stimuli/hdri_light_03_b.png,3,35,155,12,"[1, 0]",left,1,28,21,f,y,y,2019_Jul_17_1054,2AFC_task,59.94851622701899,
stimuli/hdri_bump_08_a.png,stimuli/hdri_bump_08_b.png,3,36,156,7,"[0, 1]",right,1,28,21,f,y,y,2019_Jul_17_1054,2AFC_task,59.94851622701899,
stimuli/lamp_light_05_a.png,stimuli/lamp_light_05_b.png,3,37,157,34,"[0, 1]",right,1,28,21,f,y,y,2019_Jul_17_1054,2AFC_task,59.94851622701899,
stimuli/lamp_bump_06_a.png,stimuli/lamp_bump_06_b.png,3,38,158,25,"[0, 1]",right,1,28,21,f,y,y,2019_Jul_17_1054,2AFC_task,59.94851622701899,
stimuli/hdri_light_10_a.png,stimuli/hdri_light_10_b.png,3,39,159,19,"[1, 0]",left,1,28,21,f,y,y,2019_Jul_17_1054,2AFC_task,59.94851622701899,
stimuli/lamp_bump_04_a.png,stimuli/lamp_bump_04_b.png,4,0,160,23,"[0, 1]",right,1,28,21,f,y,y,2019_Jul_17_1054,2AFC_task,59.94851622701899,
stimuli/lamp_bump_10_a.png,stimuli/lamp_bump_10_b.png,4,1,161,29,"[1, 0]",left,1,28,21,f,y,y,2019_Jul_17_1054,2AFC_task,59.94851622701899,
stimuli/hdri_bump_10_a.png,stimuli/hdri_bump_10_b.png,4,2,162,9,"[1, 0]",left,1,28,21,f,y,y,2019_Jul_17_1054,2AFC_task,59.94851622701899,
stimuli/hdri_bump_05_a.png,stimuli/hdri_bump_05_b.png,4,3,163,4,"[0, 1]",right,1,28,21,f,y,y,2019_Jul_17_1054,2AFC_task,59.94851622701899,
stimuli/hdri_light_06_a.png,stimuli/hdri_light_06_b.png,4,4,164,15,"[1, 0]",right,0,28,21,f,y,y,2019_Jul_17_1054,2AFC_task,59.94851622701899,
stimuli/lamp_light_03_a.png,stimuli/lamp_light_03_b.png,4,5,165,32,"[1, 0]",left,1,28,21,f,y,y,2019_Jul_17_1054,2AFC_task,59.94851622701899,
stimuli/lamp_bump_08_a.png,stimuli/lamp_bump_08_b.png,4,6,166,27,"[0, 1]",right,1,28,21,f,y,y,2019_Jul_17_1054,2AFC_task,59.94851622701899,
stimuli/lamp_light_07_a.png,stimuli/lamp_light_07_b.png,4,7,167,36,"[0, 1]",right,1,28,21,f,y,y,2019_Jul_17_1054,2AFC_task,59.94851622701899,
stimuli/hdri_light_04_a.png,stimuli/hdri_light_04_b.png,4,8,168,13,"[0, 1]",right,1,28,21,f,y,y,2019_Jul_17_1054,2AFC_task,59.94851622701899,
stimuli/hdri_light_05_a.png,stimuli/hdri_light_05_b.png,4,9,169,14,"[1, 0]",right,0,28,21,f,y,y,2019_Jul_17_1054,2AFC_task,59.94851622701899,
stimuli/lamp_bump_05_a.png,stimuli/lamp_bump_05_b.png,4,10,170,24,"[0, 1]",right,1,28,21,f,y,y,2019_Jul_17_1054,2AFC_task,59.94851622701899,
stimuli/lamp_bump_02_a.png,stimuli/lamp_bump_02_b.png,4,11,171,21,"[0, 1]",right,1,28,21,f,y,y,2019_Jul_17_1054,2AFC_task,59.94851622701899,
stimuli/hdri_bump_08_a.png,stimuli/hdri_bump_08_b.png,4,12,172,7,"[1, 0]",left,1,28,21,f,y,y,2019_Jul_17_1054,2AFC_task,59.94851622701899,
stimuli/lamp_bump_03_a.png,stimuli/lamp_bump_03_b.png,4,13,173,22,"[0, 1]",right,1,28,21,f,y,y,2019_Jul_17_1054,2AFC_task,59.94851622701899,
stimuli/lamp_light_02_a.png,stimuli/lamp_light_02_b.png,4,14,174,31,"[0, 1]",left,0,28,21,f,y,y,2019_Jul_17_1054,2AFC_task,59.94851622701899,
stimuli/lamp_light_01_a.png,stimuli/lamp_light_01_b.png,4,15,175,30,"[0, 1]",right,1,28,21,f,y,y,2019_Jul_17_1054,2AFC_task,59.94851622701899,
stimuli/hdri_light_08_a.png,stimuli/hdri_light_08_b.png,4,16,176,17,"[0, 1]",right,1,28,21,f,y,y,2019_Jul_17_1054,2AFC_task,59.94851622701899,
stimuli/hdri_bump_02_a.png,stimuli/hdri_bump_02_b.png,4,17,177,1,"[0, 1]",right,1,28,21,f,y,y,2019_Jul_17_1054,2AFC_task,59.94851622701899,
stimuli/hdri_light_09_a.png,stimuli/hdri_light_09_b.png,4,18,178,18,"[1, 0]",right,0,28,21,f,y,y,2019_Jul_17_1054,2AFC_task,59.94851622701899,
stimuli/lamp_bump_07_a.png,stimuli/lamp_bump_07_b.png,4,19,179,26,"[1, 0]",left,1,28,21,f,y,y,2019_Jul_17_1054,2AFC_task,59.94851622701899,
stimuli/hdri_light_07_a.png,stimuli/hdri_light_07_b.png,4,20,180,16,"[0, 1]",right,1,28,21,f,y,y,2019_Jul_17_1054,2AFC_task,59.94851622701899,
stimuli/hdri_light_10_a.png,stimuli/hdri_light_10_b.png,4,21,181,19,"[1, 0]",left,1,28,21,f,y,y,2019_Jul_17_1054,2AFC_task,59.94851622701899,
stimuli/lamp_bump_06_a.png,stimuli/lamp_bump_06_b.png,4,22,182,25,"[0, 1]",right,1,28,21,f,y,y,2019_Jul_17_1054,2AFC_task,59.94851622701899,
stimuli/hdri_bump_09_a.png,stimuli/hdri_bump_09_b.png,4,23,183,8,"[0, 1]",right,1,28,21,f,y,y,2019_Jul_17_1054,2AFC_task,59.94851622701899,
stimuli/hdri_light_02_a.png,stimuli/hdri_light_02_b.png,4,24,184,11,"[0, 1]",right,1,28,21,f,y,y,2019_Jul_17_1054,2AFC_task,59.94851622701899,
stimuli/hdri_bump_07_a.png,stimuli/hdri_bump_07_b.png,4,25,185,6,"[0, 1]",right,1,28,21,f,y,y,2019_Jul_17_1054,2AFC_task,59.94851622701899,
stimuli/lamp_light_10_a.png,stimuli/lamp_light_10_b.png,4,26,186,39,"[1, 0]",left,1,28,21,f,y,y,2019_Jul_17_1054,2AFC_task,59.94851622701899,
stimuli/hdri_light_03_a.png,stimuli/hdri_light_03_b.png,4,27,187,12,"[1, 0]",left,1,28,21,f,y,y,2019_Jul_17_1054,2AFC_task,59.94851622701899,
stimuli/lamp_light_09_a.png,stimuli/lamp_light_09_b.png,4,28,188,38,"[1, 0]",left,1,28,21,f,y,y,2019_Jul_17_1054,2AFC_task,59.94851622701899,
stimuli/hdri_bump_06_a.png,stimuli/hdri_bump_06_b.png,4,29,189,5,"[0, 1]",right,1,28,21,f,y,y,2019_Jul_17_1054,2AFC_task,59.94851622701899,
stimuli/lamp_light_04_a.png,stimuli/lamp_light_04_b.png,4,30,190,33,"[0, 1]",right,1,28,21,f,y,y,2019_Jul_17_1054,2AFC_task,59.94851622701899,
stimuli/lamp_light_08_a.png,stimuli/lamp_light_08_b.png,4,31,191,37,"[0, 1]",right,1,28,21,f,y,y,2019_Jul_17_1054,2AFC_task,59.94851622701899,
stimuli/hdri_bump_04_a.png,stimuli/hdri_bump_04_b.png,4,32,192,3,"[0, 1]",right,1,28,21,f,y,y,2019_Jul_17_1054,2AFC_task,59.94851622701899,
stimuli/hdri_bump_01_a.png,stimuli/hdri_bump_01_b.png,4,33,193,0,"[0, 1]",right,1,28,21,f,y,y,2019_Jul_17_1054,2AFC_task,59.94851622701899,
stimuli/lamp_light_06_a.png,stimuli/lamp_light_06_b.png,4,34,194,35,"[0, 1]",right,1,28,21,f,y,y,2019_Jul_17_1054,2AFC_task,59.94851622701899,
stimuli/lamp_bump_01_a.png,stimuli/lamp_bump_01_b.png,4,35,195,20,"[1, 0]",left,1,28,21,f,y,y,2019_Jul_17_1054,2AFC_task,59.94851622701899,
stimuli/hdri_light_01_a.png,stimuli/hdri_light_01_b.png,4,36,196,10,"[1, 0]",right,0,28,21,f,y,y,2019_Jul_17_1054,2AFC_task,59.94851622701899,
stimuli/lamp_bump_09_a.png,stimuli/lamp_bump_09_b.png,4,37,197,28,"[1, 0]",left,1,28,21,f,y,y,2019_Jul_17_1054,2AFC_task,59.94851622701899,
stimuli/lamp_light_05_a.png,stimuli/lamp_light_05_b.png,4,38,198,34,"[0, 1]",right,1,28,21,f,y,y,2019_Jul_17_1054,2AFC_task,59.94851622701899,
stimuli/hdri_bump_03_a.png,stimuli/hdri_bump_03_b.png,4,39,199,2,"[1, 0]",right,0,28,21,f,y,y,2019_Jul_17_1054,2AFC_task,59.94851622701899,
stimuli/lamp_light_03_a.png,stimuli/lamp_light_03_b.png,5,0,200,32,"[0, 1]",right,1,28,21,f,y,y,2019_Jul_17_1054,2AFC_task,59.94851622701899,
stimuli/lamp_bump_02_a.png,stimuli/lamp_bump_02_b.png,5,1,201,21,"[0, 1]",right,1,28,21,f,y,y,2019_Jul_17_1054,2AFC_task,59.94851622701899,
stimuli/hdri_light_08_a.png,stimuli/hdri_light_08_b.png,5,2,202,17,"[0, 1]",right,1,28,21,f,y,y,2019_Jul_17_1054,2AFC_task,59.94851622701899,
stimuli/hdri_bump_04_a.png,stimuli/hdri_bump_04_b.png,5,3,203,3,"[0, 1]",right,1,28,21,f,y,y,2019_Jul_17_1054,2AFC_task,59.94851622701899,
stimuli/hdri_light_07_a.png,stimuli/hdri_light_07_b.png,5,4,204,16,"[1, 0]",left,1,28,21,f,y,y,2019_Jul_17_1054,2AFC_task,59.94851622701899,
stimuli/lamp_light_01_a.png,stimuli/lamp_light_01_b.png,5,5,205,30,"[1, 0]",left,1,28,21,f,y,y,2019_Jul_17_1054,2AFC_task,59.94851622701899,
stimuli/lamp_light_09_a.png,stimuli/lamp_light_09_b.png,5,6,206,38,"[1, 0]",left,1,28,21,f,y,y,2019_Jul_17_1054,2AFC_task,59.94851622701899,
stimuli/lamp_light_04_a.png,stimuli/lamp_light_04_b.png,5,7,207,33,"[1, 0]",left,1,28,21,f,y,y,2019_Jul_17_1054,2AFC_task,59.94851622701899,
stimuli/hdri_light_06_a.png,stimuli/hdri_light_06_b.png,5,8,208,15,"[1, 0]",right,0,28,21,f,y,y,2019_Jul_17_1054,2AFC_task,59.94851622701899,
stimuli/hdri_bump_07_a.png,stimuli/hdri_bump_07_b.png,5,9,209,6,"[1, 0]",left,1,28,21,f,y,y,2019_Jul_17_1054,2AFC_task,59.94851622701899,
stimuli/hdri_light_04_a.png,stimuli/hdri_light_04_b.png,5,10,210,13,"[1, 0]",left,1,28,21,f,y,y,2019_Jul_17_1054,2AFC_task,59.94851622701899,
stimuli/hdri_bump_02_a.png,stimuli/hdri_bump_02_b.png,5,11,211,1,"[1, 0]",left,1,28,21,f,y,y,2019_Jul_17_1054,2AFC_task,59.94851622701899,
stimuli/lamp_bump_07_a.png,stimuli/lamp_bump_07_b.png,5,12,212,26,"[0, 1]",right,1,28,21,f,y,y,2019_Jul_17_1054,2AFC_task,59.94851622701899,
stimuli/hdri_bump_10_a.png,stimuli/hdri_bump_10_b.png,5,13,213,9,"[1, 0]",left,1,28,21,f,y,y,2019_Jul_17_1054,2AFC_task,59.94851622701899,
stimuli/lamp_light_05_a.png,stimuli/lamp_light_05_b.png,5,14,214,34,"[1, 0]",left,1,28,21,f,y,y,2019_Jul_17_1054,2AFC_task,59.94851622701899,
stimuli/lamp_bump_04_a.png,stimuli/lamp_bump_04_b.png,5,15,215,23,"[1, 0]",left,1,28,21,f,y,y,2019_Jul_17_1054,2AFC_task,59.94851622701899,
stimuli/lamp_bump_01_a.png,stimuli/lamp_bump_01_b.png,5,16,216,20,"[0, 1]",right,1,28,21,f,y,y,2019_Jul_17_1054,2AFC_task,59.94851622701899,
stimuli/hdri_bump_09_a.png,stimuli/hdri_bump_09_b.png,5,17,217,8,"[0, 1]",right,1,28,21,f,y,y,2019_Jul_17_1054,2AFC_task,59.94851622701899,
stimuli/lamp_light_06_a.png,stimuli/lamp_light_06_b.png,5,18,218,35,"[1, 0]",left,1,28,21,f,y,y,2019_Jul_17_1054,2AFC_task,59.94851622701899,
stimuli/lamp_bump_06_a.png,stimuli/lamp_bump_06_b.png,5,19,219,25,"[1, 0]",left,1,28,21,f,y,y,2019_Jul_17_1054,2AFC_task,59.94851622701899,
stimuli/lamp_light_07_a.png,stimuli/lamp_light_07_b.png,5,20,220,36,"[0, 1]",right,1,28,21,f,y,y,2019_Jul_17_1054,2AFC_task,59.94851622701899,
stimuli/hdri_light_01_a.png,stimuli/hdri_light_01_b.png,5,21,221,10,"[1, 0]",right,0,28,21,f,y,y,2019_Jul_17_1054,2AFC_task,59.94851622701899,
stimuli/lamp_bump_09_a.png,stimuli/lamp_bump_09_b.png,5,22,222,28,"[0, 1]",right,1,28,21,f,y,y,2019_Jul_17_1054,2AFC_task,59.94851622701899,
stimuli/hdri_bump_05_a.png,stimuli/hdri_bump_05_b.png,5,23,223,4,"[1, 0]",left,1,28,21,f,y,y,2019_Jul_17_1054,2AFC_task,59.94851622701899,
stimuli/hdri_light_09_a.png,stimuli/hdri_light_09_b.png,5,24,224,18,"[0, 1]",left,0,28,21,f,y,y,2019_Jul_17_1054,2AFC_task,59.94851622701899,
stimuli/hdri_bump_03_a.png,stimuli/hdri_bump_03_b.png,5,25,225,2,"[0, 1]",left,0,28,21,f,y,y,2019_Jul_17_1054,2AFC_task,59.94851622701899,
stimuli/lamp_light_10_a.png,stimuli/lamp_light_10_b.png,5,26,226,39,"[1, 0]",left,1,28,21,f,y,y,2019_Jul_17_1054,2AFC_task,59.94851622701899,
stimuli/lamp_light_08_a.png,stimuli/lamp_light_08_b.png,5,27,227,37,"[1, 0]",left,1,28,21,f,y,y,2019_Jul_17_1054,2AFC_task,59.94851622701899,
stimuli/hdri_bump_01_a.png,stimuli/hdri_bump_01_b.png,5,28,228,0,"[0, 1]",right,1,28,21,f,y,y,2019_Jul_17_1054,2AFC_task,59.94851622701899,
stimuli/hdri_bump_08_a.png,stimuli/hdri_bump_08_b.png,5,29,229,7,"[1, 0]",left,1,28,21,f,y,y,2019_Jul_17_1054,2AFC_task,59.94851622701899,
stimuli/lamp_bump_03_a.png,stimuli/lamp_bump_03_b.png,5,30,230,22,"[1, 0]",left,1,28,21,f,y,y,2019_Jul_17_1054,2AFC_task,59.94851622701899,
stimuli/hdri_light_03_a.png,stimuli/hdri_light_03_b.png,5,31,231,12,"[0, 1]",left,0,28,21,f,y,y,2019_Jul_17_1054,2AFC_task,59.94851622701899,
stimuli/lamp_bump_08_a.png,stimuli/lamp_bump_08_b.png,5,32,232,27,"[0, 1]",right,1,28,21,f,y,y,2019_Jul_17_1054,2AFC_task,59.94851622701899,
stimuli/hdri_light_02_a.png,stimuli/hdri_light_02_b.png,5,33,233,11,"[0, 1]",left,0,28,21,f,y,y,2019_Jul_17_1054,2AFC_task,59.94851622701899,
stimuli/hdri_bump_06_a.png,stimuli/hdri_bump_06_b.png,5,34,234,5,"[1, 0]",left,1,28,21,f,y,y,2019_Jul_17_1054,2AFC_task,59.94851622701899,
stimuli/lamp_light_02_a.png,stimuli/lamp_light_02_b.png,5,35,235,31,"[1, 0]",left,1,28,21,f,y,y,2019_Jul_17_1054,2AFC_task,59.94851622701899,
stimuli/lamp_bump_10_a.png,stimuli/lamp_bump_10_b.png,5,36,236,29,"[0, 1]",right,1,28,21,f,y,y,2019_Jul_17_1054,2AFC_task,59.94851622701899,
stimuli/hdri_light_05_a.png,stimuli/hdri_light_05_b.png,5,37,237,14,"[0, 1]",left,0,28,21,f,y,y,2019_Jul_17_1054,2AFC_task,59.94851622701899,
stimuli/lamp_bump_05_a.png,stimuli/lamp_bump_05_b.png,5,38,238,24,"[0, 1]",right,1,28,21,f,y,y,2019_Jul_17_1054,2AFC_task,59.94851622701899,
stimuli/hdri_light_10_a.png,stimuli/hdri_light_10_b.png,5,39,239,19,"[1, 0]",left,1,28,21,f,y,y,2019_Jul_17_1054,2AFC_task,59.94851622701899,
stimuli/lamp_light_08_a.png,stimuli/lamp_light_08_b.png,6,0,240,37,"[0, 1]",right,1,28,21,f,y,y,2019_Jul_17_1054,2AFC_task,59.94851622701899,
stimuli/lamp_light_10_a.png,stimuli/lamp_light_10_b.png,6,1,241,39,"[0, 1]",right,1,28,21,f,y,y,2019_Jul_17_1054,2AFC_task,59.94851622701899,
stimuli/lamp_bump_03_a.png,stimuli/lamp_bump_03_b.png,6,2,242,22,"[1, 0]",left,1,28,21,f,y,y,2019_Jul_17_1054,2AFC_task,59.94851622701899,
stimuli/lamp_bump_06_a.png,stimuli/lamp_bump_06_b.png,6,3,243,25,"[1, 0]",right,0,28,21,f,y,y,2019_Jul_17_1054,2AFC_task,59.94851622701899,
stimuli/lamp_light_05_a.png,stimuli/lamp_light_05_b.png,6,4,244,34,"[1, 0]",left,1,28,21,f,y,y,2019_Jul_17_1054,2AFC_task,59.94851622701899,
stimuli/hdri_light_01_a.png,stimuli/hdri_light_01_b.png,6,5,245,10,"[0, 1]",left,0,28,21,f,y,y,2019_Jul_17_1054,2AFC_task,59.94851622701899,
stimuli/hdri_light_02_a.png,stimuli/hdri_light_02_b.png,6,6,246,11,"[0, 1]",left,0,28,21,f,y,y,2019_Jul_17_1054,2AFC_task,59.94851622701899,
stimuli/lamp_light_01_a.png,stimuli/lamp_light_01_b.png,6,7,247,30,"[1, 0]",left,1,28,21,f,y,y,2019_Jul_17_1054,2AFC_task,59.94851622701899,
stimuli/hdri_light_05_a.png,stimuli/hdri_light_05_b.png,6,8,248,14,"[1, 0]",right,0,28,21,f,y,y,2019_Jul_17_1054,2AFC_task,59.94851622701899,
stimuli/hdri_bump_09_a.png,stimuli/hdri_bump_09_b.png,6,9,249,8,"[0, 1]",right,1,28,21,f,y,y,2019_Jul_17_1054,2AFC_task,59.94851622701899,
stimuli/hdri_light_03_a.png,stimuli/hdri_light_03_b.png,6,10,250,12,"[0, 1]",right,1,28,21,f,y,y,2019_Jul_17_1054,2AFC_task,59.94851622701899,
stimuli/lamp_light_03_a.png,stimuli/lamp_light_03_b.png,6,11,251,32,"[0, 1]",right,1,28,21,f,y,y,2019_Jul_17_1054,2AFC_task,59.94851622701899,
stimuli/hdri_bump_01_a.png,stimuli/hdri_bump_01_b.png,6,12,252,0,"[0, 1]",right,1,28,21,f,y,y,2019_Jul_17_1054,2AFC_task,59.94851622701899,
stimuli/lamp_bump_08_a.png,stimuli/lamp_bump_08_b.png,6,13,253,27,"[1, 0]",left,1,28,21,f,y,y,2019_Jul_17_1054,2AFC_task,59.94851622701899,
stimuli/hdri_light_09_a.png,stimuli/hdri_light_09_b.png,6,14,254,18,"[0, 1]",left,0,28,21,f,y,y,2019_Jul_17_1054,2AFC_task,59.94851622701899,
stimuli/lamp_light_07_a.png,stimuli/lamp_light_07_b.png,6,15,255,36,"[0, 1]",right,1,28,21,f,y,y,2019_Jul_17_1054,2AFC_task,59.94851622701899,
stimuli/lamp_light_09_a.png,stimuli/lamp_light_09_b.png,6,16,256,38,"[1, 0]",left,1,28,21,f,y,y,2019_Jul_17_1054,2AFC_task,59.94851622701899,
stimuli/hdri_bump_06_a.png,stimuli/hdri_bump_06_b.png,6,17,257,5,"[1, 0]",left,1,28,21,f,y,y,2019_Jul_17_1054,2AFC_task,59.94851622701899,
stimuli/lamp_bump_07_a.png,stimuli/lamp_bump_07_b.png,6,18,258,26,"[0, 1]",right,1,28,21,f,y,y,2019_Jul_17_1054,2AFC_task,59.94851622701899,
stimuli/hdri_light_08_a.png,stimuli/hdri_light_08_b.png,6,19,259,17,"[1, 0]",left,1,28,21,f,y,y,2019_Jul_17_1054,2AFC_task,59.94851622701899,
stimuli/hdri_bump_05_a.png,stimuli/hdri_bump_05_b.png,6,20,260,4,"[0, 1]",right,1,28,21,f,y,y,2019_Jul_17_1054,2AFC_task,59.94851622701899,
stimuli/hdri_bump_07_a.png,stimuli/hdri_bump_07_b.png,6,21,261,6,"[0, 1]",right,1,28,21,f,y,y,2019_Jul_17_1054,2AFC_task,59.94851622701899,
stimuli/lamp_bump_09_a.png,stimuli/lamp_bump_09_b.png,6,22,262,28,"[0, 1]",right,1,28,21,f,y,y,2019_Jul_17_1054,2AFC_task,59.94851622701899,
stimuli/hdri_bump_10_a.png,stimuli/hdri_bump_10_b.png,6,23,263,9,"[0, 1]",right,1,28,21,f,y,y,2019_Jul_17_1054,2AFC_task,59.94851622701899,
stimuli/lamp_light_04_a.png,stimuli/lamp_light_04_b.png,6,24,264,33,"[0, 1]",right,1,28,21,f,y,y,2019_Jul_17_1054,2AFC_task,59.94851622701899,
stimuli/lamp_bump_01_a.png,stimuli/lamp_bump_01_b.png,6,25,265,20,"[0, 1]",right,1,28,21,f,y,y,2019_Jul_17_1054,2AFC_task,59.94851622701899,
stimuli/lamp_bump_05_a.png,stimuli/lamp_bump_05_b.png,6,26,266,24,"[1, 0]",left,1,28,21,f,y,y,2019_Jul_17_1054,2AFC_task,59.94851622701899,
stimuli/hdri_bump_03_a.png,stimuli/hdri_bump_03_b.png,6,27,267,2,"[0, 1]",right,1,28,21,f,y,y,2019_Jul_17_1054,2AFC_task,59.94851622701899,
stimuli/lamp_bump_10_a.png,stimuli/lamp_bump_10_b.png,6,28,268,29,"[1, 0]",right,0,28,21,f,y,y,2019_Jul_17_1054,2AFC_task,59.94851622701899,
stimuli/lamp_bump_04_a.png,stimuli/lamp_bump_04_b.png,6,29,269,23,"[1, 0]",left,1,28,21,f,y,y,2019_Jul_17_1054,2AFC_task,59.94851622701899,
stimuli/lamp_light_02_a.png,stimuli/lamp_light_02_b.png,6,30,270,31,"[1, 0]",left,1,28,21,f,y,y,2019_Jul_17_1054,2AFC_task,59.94851622701899,
stimuli/hdri_bump_02_a.png,stimuli/hdri_bump_02_b.png,6,31,271,1,"[1, 0]",left,1,28,21,f,y,y,2019_Jul_17_1054,2AFC_task,59.94851622701899,
stimuli/lamp_light_06_a.png,stimuli/lamp_light_06_b.png,6,32,272,35,"[0, 1]",right,1,28,21,f,y,y,2019_Jul_17_1054,2AFC_task,59.94851622701899,
stimuli/hdri_light_04_a.png,stimuli/hdri_light_04_b.png,6,33,273,13,"[1, 0]",left,1,28,21,f,y,y,2019_Jul_17_1054,2AFC_task,59.94851622701899,
stimuli/hdri_light_07_a.png,stimuli/hdri_light_07_b.png,6,34,274,16,"[0, 1]",right,1,28,21,f,y,y,2019_Jul_17_1054,2AFC_task,59.94851622701899,
stimuli/hdri_bump_08_a.png,stimuli/hdri_bump_08_b.png,6,35,275,7,"[1, 0]",left,1,28,21,f,y,y,2019_Jul_17_1054,2AFC_task,59.94851622701899,
stimuli/lamp_bump_02_a.png,stimuli/lamp_bump_02_b.png,6,36,276,21,"[1, 0]",left,1,28,21,f,y,y,2019_Jul_17_1054,2AFC_task,59.94851622701899,
stimuli/hdri_light_06_a.png,stimuli/hdri_light_06_b.png,6,37,277,15,"[0, 1]",left,0,28,21,f,y,y,2019_Jul_17_1054,2AFC_task,59.94851622701899,
stimuli/hdri_light_10_a.png,stimuli/hdri_light_10_b.png,6,38,278,19,"[0, 1]",right,1,28,21,f,y,y,2019_Jul_17_1054,2AFC_task,59.94851622701899,
stimuli/hdri_bump_04_a.png,stimuli/hdri_bump_04_b.png,6,39,279,3,"[1, 0]",left,1,28,21,f,y,y,2019_Jul_17_1054,2AFC_task,59.94851622701899,
stimuli/lamp_bump_06_a.png,stimuli/lamp_bump_06_b.png,7,0,280,25,"[0, 1]",right,1,28,21,f,y,y,2019_Jul_17_1054,2AFC_task,59.94851622701899,
stimuli/lamp_light_05_a.png,stimuli/lamp_light_05_b.png,7,1,281,34,"[0, 1]",right,1,28,21,f,y,y,2019_Jul_17_1054,2AFC_task,59.94851622701899,
stimuli/lamp_light_07_a.png,stimuli/lamp_light_07_b.png,7,2,282,36,"[1, 0]",left,1,28,21,f,y,y,2019_Jul_17_1054,2AFC_task,59.94851622701899,
stimuli/hdri_light_08_a.png,stimuli/hdri_light_08_b.png,7,3,283,17,"[0, 1]",right,1,28,21,f,y,y,2019_Jul_17_1054,2AFC_task,59.94851622701899,
stimuli/hdri_light_09_a.png,stimuli/hdri_light_09_b.png,7,4,284,18,"[1, 0]",right,0,28,21,f,y,y,2019_Jul_17_1054,2AFC_task,59.94851622701899,
stimuli/hdri_bump_05_a.png,stimuli/hdri_bump_05_b.png,7,5,285,4,"[1, 0]",left,1,28,21,f,y,y,2019_Jul_17_1054,2AFC_task,59.94851622701899,
stimuli/hdri_bump_04_a.png,stimuli/hdri_bump_04_b.png,7,6,286,3,"[0, 1]",right,1,28,21,f,y,y,2019_Jul_17_1054,2AFC_task,59.94851622701899,
stimuli/lamp_bump_03_a.png,stimuli/lamp_bump_03_b.png,7,7,287,22,"[0, 1]",right,1,28,21,f,y,y,2019_Jul_17_1054,2AFC_task,59.94851622701899,
stimuli/lamp_bump_04_a.png,stimuli/lamp_bump_04_b.png,7,8,288,23,"[0, 1]",right,1,28,21,f,y,y,2019_Jul_17_1054,2AFC_task,59.94851622701899,
stimuli/hdri_light_05_a.png,stimuli/hdri_light_05_b.png,7,9,289,14,"[0, 1]",left,0,28,21,f,y,y,2019_Jul_17_1054,2AFC_task,59.94851622701899,
stimuli/hdri_light_10_a.png,stimuli/hdri_light_10_b.png,7,10,290,19,"[1, 0]",left,1,28,21,f,y,y,2019_Jul_17_1054,2AFC_task,59.94851622701899,
stimuli/lamp_light_02_a.png,stimuli/lamp_light_02_b.png,7,11,291,31,"[1, 0]",right,0,28,21,f,y,y,2019_Jul_17_1054,2AFC_task,59.94851622701899,
stimuli/hdri_light_07_a.png,stimuli/hdri_light_07_b.png,7,12,292,16,"[0, 1]",right,1,28,21,f,y,y,2019_Jul_17_1054,2AFC_task,59.94851622701899,
stimuli/lamp_bump_01_a.png,stimuli/lamp_bump_01_b.png,7,13,293,20,"[0, 1]",right,1,28,21,f,y,y,2019_Jul_17_1054,2AFC_task,59.94851622701899,
stimuli/lamp_light_01_a.png,stimuli/lamp_light_01_b.png,7,14,294,30,"[0, 1]",right,1,28,21,f,y,y,2019_Jul_17_1054,2AFC_task,59.94851622701899,
stimuli/hdri_light_01_a.png,stimuli/hdri_light_01_b.png,7,15,295,10,"[1, 0]",right,0,28,21,f,y,y,2019_Jul_17_1054,2AFC_task,59.94851622701899,
stimuli/lamp_bump_07_a.png,stimuli/lamp_bump_07_b.png,7,16,296,26,"[0, 1]",right,1,28,21,f,y,y,2019_Jul_17_1054,2AFC_task,59.94851622701899,
stimuli/lamp_light_09_a.png,stimuli/lamp_light_09_b.png,7,17,297,38,"[1, 0]",left,1,28,21,f,y,y,2019_Jul_17_1054,2AFC_task,59.94851622701899,
stimuli/lamp_bump_08_a.png,stimuli/lamp_bump_08_b.png,7,18,298,27,"[0, 1]",right,1,28,21,f,y,y,2019_Jul_17_1054,2AFC_task,59.94851622701899,
stimuli/lamp_bump_09_a.png,stimuli/lamp_bump_09_b.png,7,19,299,28,"[0, 1]",left,0,28,21,f,y,y,2019_Jul_17_1054,2AFC_task,59.94851622701899,
stimuli/hdri_bump_02_a.png,stimuli/hdri_bump_02_b.png,7,20,300,1,"[1, 0]",left,1,28,21,f,y,y,2019_Jul_17_1054,2AFC_task,59.94851622701899,
stimuli/hdri_light_04_a.png,stimuli/hdri_light_04_b.png,7,21,301,13,"[1, 0]",left,1,28,21,f,y,y,2019_Jul_17_1054,2AFC_task,59.94851622701899,
stimuli/hdri_bump_10_a.png,stimuli/hdri_bump_10_b.png,7,22,302,9,"[1, 0]",left,1,28,21,f,y,y,2019_Jul_17_1054,2AFC_task,59.94851622701899,
stimuli/hdri_bump_08_a.png,stimuli/hdri_bump_08_b.png,7,23,303,7,"[0, 1]",right,1,28,21,f,y,y,2019_Jul_17_1054,2AFC_task,59.94851622701899,
stimuli/lamp_light_06_a.png,stimuli/lamp_light_06_b.png,7,24,304,35,"[0, 1]",right,1,28,21,f,y,y,2019_Jul_17_1054,2AFC_task,59.94851622701899,
stimuli/hdri_light_06_a.png,stimuli/hdri_light_06_b.png,7,25,305,15,"[0, 1]",left,0,28,21,f,y,y,2019_Jul_17_1054,2AFC_task,59.94851622701899,
stimuli/lamp_bump_10_a.png,stimuli/lamp_bump_10_b.png,7,26,306,29,"[0, 1]",right,1,28,21,f,y,y,2019_Jul_17_1054,2AFC_task,59.94851622701899,
stimuli/hdri_light_03_a.png,stimuli/hdri_light_03_b.png,7,27,307,12,"[1, 0]",left,1,28,21,f,y,y,2019_Jul_17_1054,2AFC_task,59.94851622701899,
stimuli/lamp_light_03_a.png,stimuli/lamp_light_03_b.png,7,28,308,32,"[1, 0]",left,1,28,21,f,y,y,2019_Jul_17_1054,2AFC_task,59.94851622701899,
stimuli/lamp_light_04_a.png,stimuli/lamp_light_04_b.png,7,29,309,33,"[0, 1]",right,1,28,21,f,y,y,2019_Jul_17_1054,2AFC_task,59.94851622701899,
stimuli/lamp_bump_05_a.png,stimuli/lamp_bump_05_b.png,7,30,310,24,"[1, 0]",left,1,28,21,f,y,y,2019_Jul_17_1054,2AFC_task,59.94851622701899,
stimuli/lamp_bump_02_a.png,stimuli/lamp_bump_02_b.png,7,31,311,21,"[1, 0]",left,1,28,21,f,y,y,2019_Jul_17_1054,2AFC_task,59.94851622701899,
stimuli/hdri_bump_03_a.png,stimuli/hdri_bump_03_b.png,7,32,312,2,"[1, 0]",left,1,28,21,f,y,y,2019_Jul_17_1054,2AFC_task,59.94851622701899,
stimuli/hdri_bump_01_a.png,stimuli/hdri_bump_01_b.png,7,33,313,0,"[1, 0]",left,1,28,21,f,y,y,2019_Jul_17_1054,2AFC_task,59.94851622701899,
stimuli/hdri_light_02_a.png,stimuli/hdri_light_02_b.png,7,34,314,11,"[1, 0]",left,1,28,21,f,y,y,2019_Jul_17_1054,2AFC_task,59.94851622701899,
stimuli/lamp_light_10_a.png,stimuli/lamp_light_10_b.png,7,35,315,39,"[0, 1]",right,1,28,21,f,y,y,2019_Jul_17_1054,2AFC_task,59.94851622701899,
stimuli/hdri_bump_07_a.png,stimuli/hdri_bump_07_b.png,7,36,316,6,"[0, 1]",right,1,28,21,f,y,y,2019_Jul_17_1054,2AFC_task,59.94851622701899,
stimuli/lamp_light_08_a.png,stimuli/lamp_light_08_b.png,7,37,317,37,"[0, 1]",right,1,28,21,f,y,y,2019_Jul_17_1054,2AFC_task,59.94851622701899,
stimuli/hdri_bump_09_a.png,stimuli/hdri_bump_09_b.png,7,38,318,8,"[1, 0]",left,1,28,21,f,y,y,2019_Jul_17_1054,2AFC_task,59.94851622701899,
stimuli/hdri_bump_06_a.png,stimuli/hdri_bump_06_b.png,7,39,319,5,"[1, 0]",left,1,28,21,f,y,y,2019_Jul_17_1054,2AFC_task,59.94851622701899,
