stimOne,stimTwo,trials_1.thisRepN,trials_1.thisTrialN,trials_1.thisN,trials_1.thisIndex,presentation_positions,resp_key,corresponding_image,participant ID (two digits, e.g. 01),age,gender (m/f/-),normal or corrected-to-normal vision (y/n),normal colour vision (y/n),date,expName,frameRate,
stimuli/lamp_bump_05_a.png,stimuli/lamp_bump_05_b.png,0,0,0,24,"[0, 1]",right,1,77,25,f,y,y,2019_Jul_15_1430,2AFC_task,59.949845960821,
stimuli/lamp_light_02_a.png,stimuli/lamp_light_02_b.png,0,1,1,31,"[0, 1]",right,1,77,25,f,y,y,2019_Jul_15_1430,2AFC_task,59.949845960821,
stimuli/hdri_light_02_a.png,stimuli/hdri_light_02_b.png,0,2,2,11,"[1, 0]",right,0,77,25,f,y,y,2019_Jul_15_1430,2AFC_task,59.949845960821,
stimuli/hdri_light_10_a.png,stimuli/hdri_light_10_b.png,0,3,3,19,"[1, 0]",left,1,77,25,f,y,y,2019_Jul_15_1430,2AFC_task,59.949845960821,
stimuli/hdri_light_08_a.png,stimuli/hdri_light_08_b.png,0,4,4,17,"[0, 1]",right,1,77,25,f,y,y,2019_Jul_15_1430,2AFC_task,59.949845960821,
stimuli/lamp_light_07_a.png,stimuli/lamp_light_07_b.png,0,5,5,36,"[0, 1]",right,1,77,25,f,y,y,2019_Jul_15_1430,2AFC_task,59.949845960821,
stimuli/hdri_bump_01_a.png,stimuli/hdri_bump_01_b.png,0,6,6,0,"[1, 0]",left,1,77,25,f,y,y,2019_Jul_15_1430,2AFC_task,59.949845960821,
stimuli/lamp_light_05_a.png,stimuli/lamp_light_05_b.png,0,7,7,34,"[1, 0]",left,1,77,25,f,y,y,2019_Jul_15_1430,2AFC_task,59.949845960821,
stimuli/lamp_bump_01_a.png,stimuli/lamp_bump_01_b.png,0,8,8,20,"[0, 1]",left,0,77,25,f,y,y,2019_Jul_15_1430,2AFC_task,59.949845960821,
stimuli/lamp_light_09_a.png,stimuli/lamp_light_09_b.png,0,9,9,38,"[1, 0]",left,1,77,25,f,y,y,2019_Jul_15_1430,2AFC_task,59.949845960821,
stimuli/lamp_bump_08_a.png,stimuli/lamp_bump_08_b.png,0,10,10,27,"[0, 1]",left,0,77,25,f,y,y,2019_Jul_15_1430,2AFC_task,59.949845960821,
stimuli/lamp_light_01_a.png,stimuli/lamp_light_01_b.png,0,11,11,30,"[0, 1]",right,1,77,25,f,y,y,2019_Jul_15_1430,2AFC_task,59.949845960821,
stimuli/lamp_bump_02_a.png,stimuli/lamp_bump_02_b.png,0,12,12,21,"[0, 1]",left,0,77,25,f,y,y,2019_Jul_15_1430,2AFC_task,59.949845960821,
stimuli/lamp_bump_06_a.png,stimuli/lamp_bump_06_b.png,0,13,13,25,"[0, 1]",left,0,77,25,f,y,y,2019_Jul_15_1430,2AFC_task,59.949845960821,
stimuli/hdri_light_05_a.png,stimuli/hdri_light_05_b.png,0,14,14,14,"[1, 0]",right,0,77,25,f,y,y,2019_Jul_15_1430,2AFC_task,59.949845960821,
stimuli/lamp_bump_07_a.png,stimuli/lamp_bump_07_b.png,0,15,15,26,"[1, 0]",right,0,77,25,f,y,y,2019_Jul_15_1430,2AFC_task,59.949845960821,
stimuli/hdri_light_06_a.png,stimuli/hdri_light_06_b.png,0,16,16,15,"[0, 1]",left,0,77,25,f,y,y,2019_Jul_15_1430,2AFC_task,59.949845960821,
stimuli/lamp_bump_10_a.png,stimuli/lamp_bump_10_b.png,0,17,17,29,"[0, 1]",right,1,77,25,f,y,y,2019_Jul_15_1430,2AFC_task,59.949845960821,
stimuli/lamp_bump_09_a.png,stimuli/lamp_bump_09_b.png,0,18,18,28,"[0, 1]",right,1,77,25,f,y,y,2019_Jul_15_1430,2AFC_task,59.949845960821,
stimuli/hdri_bump_04_a.png,stimuli/hdri_bump_04_b.png,0,19,19,3,"[1, 0]",left,1,77,25,f,y,y,2019_Jul_15_1430,2AFC_task,59.949845960821,
stimuli/hdri_light_07_a.png,stimuli/hdri_light_07_b.png,0,20,20,16,"[1, 0]",left,1,77,25,f,y,y,2019_Jul_15_1430,2AFC_task,59.949845960821,
stimuli/hdri_bump_06_a.png,stimuli/hdri_bump_06_b.png,0,21,21,5,"[0, 1]",right,1,77,25,f,y,y,2019_Jul_15_1430,2AFC_task,59.949845960821,
stimuli/hdri_bump_02_a.png,stimuli/hdri_bump_02_b.png,0,22,22,1,"[1, 0]",left,1,77,25,f,y,y,2019_Jul_15_1430,2AFC_task,59.949845960821,
stimuli/hdri_light_03_a.png,stimuli/hdri_light_03_b.png,0,23,23,12,"[0, 1]",left,0,77,25,f,y,y,2019_Jul_15_1430,2AFC_task,59.949845960821,
stimuli/hdri_bump_10_a.png,stimuli/hdri_bump_10_b.png,0,24,24,9,"[1, 0]",left,1,77,25,f,y,y,2019_Jul_15_1430,2AFC_task,59.949845960821,
stimuli/lamp_light_06_a.png,stimuli/lamp_light_06_b.png,0,25,25,35,"[0, 1]",right,1,77,25,f,y,y,2019_Jul_15_1430,2AFC_task,59.949845960821,
stimuli/hdri_bump_07_a.png,stimuli/hdri_bump_07_b.png,0,26,26,6,"[1, 0]",left,1,77,25,f,y,y,2019_Jul_15_1430,2AFC_task,59.949845960821,
stimuli/hdri_bump_03_a.png,stimuli/hdri_bump_03_b.png,0,27,27,2,"[1, 0]",right,0,77,25,f,y,y,2019_Jul_15_1430,2AFC_task,59.949845960821,
stimuli/hdri_light_09_a.png,stimuli/hdri_light_09_b.png,0,28,28,18,"[0, 1]",left,0,77,25,f,y,y,2019_Jul_15_1430,2AFC_task,59.949845960821,
stimuli/hdri_bump_08_a.png,stimuli/hdri_bump_08_b.png,0,29,29,7,"[0, 1]",right,1,77,25,f,y,y,2019_Jul_15_1430,2AFC_task,59.949845960821,
stimuli/hdri_light_01_a.png,stimuli/hdri_light_01_b.png,0,30,30,10,"[1, 0]",right,0,77,25,f,y,y,2019_Jul_15_1430,2AFC_task,59.949845960821,
stimuli/lamp_light_08_a.png,stimuli/lamp_light_08_b.png,0,31,31,37,"[0, 1]",right,1,77,25,f,y,y,2019_Jul_15_1430,2AFC_task,59.949845960821,
stimuli/lamp_light_04_a.png,stimuli/lamp_light_04_b.png,0,32,32,33,"[1, 0]",left,1,77,25,f,y,y,2019_Jul_15_1430,2AFC_task,59.949845960821,
stimuli/lamp_light_10_a.png,stimuli/lamp_light_10_b.png,0,33,33,39,"[0, 1]",right,1,77,25,f,y,y,2019_Jul_15_1430,2AFC_task,59.949845960821,
stimuli/hdri_bump_09_a.png,stimuli/hdri_bump_09_b.png,0,34,34,8,"[0, 1]",right,1,77,25,f,y,y,2019_Jul_15_1430,2AFC_task,59.949845960821,
stimuli/hdri_bump_05_a.png,stimuli/hdri_bump_05_b.png,0,35,35,4,"[0, 1]",right,1,77,25,f,y,y,2019_Jul_15_1430,2AFC_task,59.949845960821,
stimuli/lamp_light_03_a.png,stimuli/lamp_light_03_b.png,0,36,36,32,"[1, 0]",left,1,77,25,f,y,y,2019_Jul_15_1430,2AFC_task,59.949845960821,
stimuli/lamp_bump_03_a.png,stimuli/lamp_bump_03_b.png,0,37,37,22,"[1, 0]",left,1,77,25,f,y,y,2019_Jul_15_1430,2AFC_task,59.949845960821,
stimuli/hdri_light_04_a.png,stimuli/hdri_light_04_b.png,0,38,38,13,"[1, 0]",right,0,77,25,f,y,y,2019_Jul_15_1430,2AFC_task,59.949845960821,
stimuli/lamp_bump_04_a.png,stimuli/lamp_bump_04_b.png,0,39,39,23,"[1, 0]",right,0,77,25,f,y,y,2019_Jul_15_1430,2AFC_task,59.949845960821,
stimuli/lamp_bump_04_a.png,stimuli/lamp_bump_04_b.png,1,0,40,23,"[1, 0]",right,0,77,25,f,y,y,2019_Jul_15_1430,2AFC_task,59.949845960821,
stimuli/lamp_light_07_a.png,stimuli/lamp_light_07_b.png,1,1,41,36,"[0, 1]",right,1,77,25,f,y,y,2019_Jul_15_1430,2AFC_task,59.949845960821,
stimuli/lamp_bump_07_a.png,stimuli/lamp_bump_07_b.png,1,2,42,26,"[0, 1]",left,0,77,25,f,y,y,2019_Jul_15_1430,2AFC_task,59.949845960821,
stimuli/lamp_light_02_a.png,stimuli/lamp_light_02_b.png,1,3,43,31,"[0, 1]",right,1,77,25,f,y,y,2019_Jul_15_1430,2AFC_task,59.949845960821,
stimuli/lamp_bump_03_a.png,stimuli/lamp_bump_03_b.png,1,4,44,22,"[1, 0]",left,1,77,25,f,y,y,2019_Jul_15_1430,2AFC_task,59.949845960821,
stimuli/lamp_light_03_a.png,stimuli/lamp_light_03_b.png,1,5,45,32,"[0, 1]",right,1,77,25,f,y,y,2019_Jul_15_1430,2AFC_task,59.949845960821,
stimuli/lamp_light_05_a.png,stimuli/lamp_light_05_b.png,1,6,46,34,"[1, 0]",left,1,77,25,f,y,y,2019_Jul_15_1430,2AFC_task,59.949845960821,
stimuli/hdri_light_09_a.png,stimuli/hdri_light_09_b.png,1,7,47,18,"[1, 0]",right,0,77,25,f,y,y,2019_Jul_15_1430,2AFC_task,59.949845960821,
stimuli/hdri_light_05_a.png,stimuli/hdri_light_05_b.png,1,8,48,14,"[1, 0]",right,0,77,25,f,y,y,2019_Jul_15_1430,2AFC_task,59.949845960821,
stimuli/hdri_bump_04_a.png,stimuli/hdri_bump_04_b.png,1,9,49,3,"[0, 1]",right,1,77,25,f,y,y,2019_Jul_15_1430,2AFC_task,59.949845960821,
stimuli/lamp_bump_01_a.png,stimuli/lamp_bump_01_b.png,1,10,50,20,"[0, 1]",right,1,77,25,f,y,y,2019_Jul_15_1430,2AFC_task,59.949845960821,
stimuli/hdri_bump_05_a.png,stimuli/hdri_bump_05_b.png,1,11,51,4,"[1, 0]",left,1,77,25,f,y,y,2019_Jul_15_1430,2AFC_task,59.949845960821,
stimuli/hdri_light_08_a.png,stimuli/hdri_light_08_b.png,1,12,52,17,"[1, 0]",left,1,77,25,f,y,y,2019_Jul_15_1430,2AFC_task,59.949845960821,
stimuli/lamp_bump_02_a.png,stimuli/lamp_bump_02_b.png,1,13,53,21,"[1, 0]",right,0,77,25,f,y,y,2019_Jul_15_1430,2AFC_task,59.949845960821,
stimuli/lamp_bump_06_a.png,stimuli/lamp_bump_06_b.png,1,14,54,25,"[0, 1]",left,0,77,25,f,y,y,2019_Jul_15_1430,2AFC_task,59.949845960821,
stimuli/lamp_light_08_a.png,stimuli/lamp_light_08_b.png,1,15,55,37,"[1, 0]",left,1,77,25,f,y,y,2019_Jul_15_1430,2AFC_task,59.949845960821,
stimuli/lamp_bump_05_a.png,stimuli/lamp_bump_05_b.png,1,16,56,24,"[1, 0]",left,1,77,25,f,y,y,2019_Jul_15_1430,2AFC_task,59.949845960821,
stimuli/hdri_bump_02_a.png,stimuli/hdri_bump_02_b.png,1,17,57,1,"[0, 1]",right,1,77,25,f,y,y,2019_Jul_15_1430,2AFC_task,59.949845960821,
stimuli/hdri_bump_10_a.png,stimuli/hdri_bump_10_b.png,1,18,58,9,"[0, 1]",right,1,77,25,f,y,y,2019_Jul_15_1430,2AFC_task,59.949845960821,
stimuli/hdri_light_04_a.png,stimuli/hdri_light_04_b.png,1,19,59,13,"[0, 1]",left,0,77,25,f,y,y,2019_Jul_15_1430,2AFC_task,59.949845960821,
stimuli/hdri_light_02_a.png,stimuli/hdri_light_02_b.png,1,20,60,11,"[0, 1]",left,0,77,25,f,y,y,2019_Jul_15_1430,2AFC_task,59.949845960821,
stimuli/lamp_light_06_a.png,stimuli/lamp_light_06_b.png,1,21,61,35,"[1, 0]",left,1,77,25,f,y,y,2019_Jul_15_1430,2AFC_task,59.949845960821,
stimuli/hdri_light_06_a.png,stimuli/hdri_light_06_b.png,1,22,62,15,"[0, 1]",left,0,77,25,f,y,y,2019_Jul_15_1430,2AFC_task,59.949845960821,
stimuli/hdri_light_01_a.png,stimuli/hdri_light_01_b.png,1,23,63,10,"[0, 1]",left,0,77,25,f,y,y,2019_Jul_15_1430,2AFC_task,59.949845960821,
stimuli/lamp_light_09_a.png,stimuli/lamp_light_09_b.png,1,24,64,38,"[1, 0]",left,1,77,25,f,y,y,2019_Jul_15_1430,2AFC_task,59.949845960821,
stimuli/hdri_bump_09_a.png,stimuli/hdri_bump_09_b.png,1,25,65,8,"[0, 1]",right,1,77,25,f,y,y,2019_Jul_15_1430,2AFC_task,59.949845960821,
stimuli/hdri_bump_06_a.png,stimuli/hdri_bump_06_b.png,1,26,66,5,"[1, 0]",right,0,77,25,f,y,y,2019_Jul_15_1430,2AFC_task,59.949845960821,
stimuli/hdri_light_07_a.png,stimuli/hdri_light_07_b.png,1,27,67,16,"[1, 0]",left,1,77,25,f,y,y,2019_Jul_15_1430,2AFC_task,59.949845960821,
stimuli/lamp_bump_10_a.png,stimuli/lamp_bump_10_b.png,1,28,68,29,"[1, 0]",left,1,77,25,f,y,y,2019_Jul_15_1430,2AFC_task,59.949845960821,
stimuli/lamp_bump_08_a.png,stimuli/lamp_bump_08_b.png,1,29,69,27,"[1, 0]",left,1,77,25,f,y,y,2019_Jul_15_1430,2AFC_task,59.949845960821,
stimuli/lamp_light_01_a.png,stimuli/lamp_light_01_b.png,1,30,70,30,"[1, 0]",left,1,77,25,f,y,y,2019_Jul_15_1430,2AFC_task,59.949845960821,
stimuli/hdri_light_10_a.png,stimuli/hdri_light_10_b.png,1,31,71,19,"[0, 1]",right,1,77,25,f,y,y,2019_Jul_15_1430,2AFC_task,59.949845960821,
stimuli/hdri_bump_08_a.png,stimuli/hdri_bump_08_b.png,1,32,72,7,"[1, 0]",left,1,77,25,f,y,y,2019_Jul_15_1430,2AFC_task,59.949845960821,
stimuli/lamp_light_04_a.png,stimuli/lamp_light_04_b.png,1,33,73,33,"[0, 1]",right,1,77,25,f,y,y,2019_Jul_15_1430,2AFC_task,59.949845960821,
stimuli/lamp_light_10_a.png,stimuli/lamp_light_10_b.png,1,34,74,39,"[1, 0]",left,1,77,25,f,y,y,2019_Jul_15_1430,2AFC_task,59.949845960821,
stimuli/hdri_light_03_a.png,stimuli/hdri_light_03_b.png,1,35,75,12,"[1, 0]",right,0,77,25,f,y,y,2019_Jul_15_1430,2AFC_task,59.949845960821,
stimuli/hdri_bump_01_a.png,stimuli/hdri_bump_01_b.png,1,36,76,0,"[1, 0]",left,1,77,25,f,y,y,2019_Jul_15_1430,2AFC_task,59.949845960821,
stimuli/hdri_bump_03_a.png,stimuli/hdri_bump_03_b.png,1,37,77,2,"[0, 1]",left,0,77,25,f,y,y,2019_Jul_15_1430,2AFC_task,59.949845960821,
stimuli/hdri_bump_07_a.png,stimuli/hdri_bump_07_b.png,1,38,78,6,"[1, 0]",left,1,77,25,f,y,y,2019_Jul_15_1430,2AFC_task,59.949845960821,
stimuli/lamp_bump_09_a.png,stimuli/lamp_bump_09_b.png,1,39,79,28,"[1, 0]",right,0,77,25,f,y,y,2019_Jul_15_1430,2AFC_task,59.949845960821,
stimuli/lamp_light_01_a.png,stimuli/lamp_light_01_b.png,2,0,80,30,"[0, 1]",right,1,77,25,f,y,y,2019_Jul_15_1430,2AFC_task,59.949845960821,
stimuli/lamp_light_06_a.png,stimuli/lamp_light_06_b.png,2,1,81,35,"[1, 0]",left,1,77,25,f,y,y,2019_Jul_15_1430,2AFC_task,59.949845960821,
stimuli/hdri_light_01_a.png,stimuli/hdri_light_01_b.png,2,2,82,10,"[1, 0]",right,0,77,25,f,y,y,2019_Jul_15_1430,2AFC_task,59.949845960821,
stimuli/lamp_bump_07_a.png,stimuli/lamp_bump_07_b.png,2,3,83,26,"[1, 0]",right,0,77,25,f,y,y,2019_Jul_15_1430,2AFC_task,59.949845960821,
stimuli/hdri_bump_06_a.png,stimuli/hdri_bump_06_b.png,2,4,84,5,"[0, 1]",right,1,77,25,f,y,y,2019_Jul_15_1430,2AFC_task,59.949845960821,
stimuli/lamp_bump_04_a.png,stimuli/lamp_bump_04_b.png,2,5,85,23,"[1, 0]",right,0,77,25,f,y,y,2019_Jul_15_1430,2AFC_task,59.949845960821,
stimuli/lamp_light_08_a.png,stimuli/lamp_light_08_b.png,2,6,86,37,"[1, 0]",left,1,77,25,f,y,y,2019_Jul_15_1430,2AFC_task,59.949845960821,
stimuli/lamp_light_05_a.png,stimuli/lamp_light_05_b.png,2,7,87,34,"[0, 1]",right,1,77,25,f,y,y,2019_Jul_15_1430,2AFC_task,59.949845960821,
stimuli/hdri_light_02_a.png,stimuli/hdri_light_02_b.png,2,8,88,11,"[0, 1]",left,0,77,25,f,y,y,2019_Jul_15_1430,2AFC_task,59.949845960821,
stimuli/hdri_bump_09_a.png,stimuli/hdri_bump_09_b.png,2,9,89,8,"[1, 0]",left,1,77,25,f,y,y,2019_Jul_15_1430,2AFC_task,59.949845960821,
stimuli/lamp_bump_09_a.png,stimuli/lamp_bump_09_b.png,2,10,90,28,"[1, 0]",right,0,77,25,f,y,y,2019_Jul_15_1430,2AFC_task,59.949845960821,
stimuli/hdri_bump_07_a.png,stimuli/hdri_bump_07_b.png,2,11,91,6,"[0, 1]",right,1,77,25,f,y,y,2019_Jul_15_1430,2AFC_task,59.949845960821,
stimuli/hdri_bump_02_a.png,stimuli/hdri_bump_02_b.png,2,12,92,1,"[1, 0]",left,1,77,25,f,y,y,2019_Jul_15_1430,2AFC_task,59.949845960821,
stimuli/lamp_bump_03_a.png,stimuli/lamp_bump_03_b.png,2,13,93,22,"[0, 1]",right,1,77,25,f,y,y,2019_Jul_15_1430,2AFC_task,59.949845960821,
stimuli/hdri_light_08_a.png,stimuli/hdri_light_08_b.png,2,14,94,17,"[0, 1]",right,1,77,25,f,y,y,2019_Jul_15_1430,2AFC_task,59.949845960821,
stimuli/hdri_bump_08_a.png,stimuli/hdri_bump_08_b.png,2,15,95,7,"[1, 0]",left,1,77,25,f,y,y,2019_Jul_15_1430,2AFC_task,59.949845960821,
stimuli/hdri_light_09_a.png,stimuli/hdri_light_09_b.png,2,16,96,18,"[0, 1]",left,0,77,25,f,y,y,2019_Jul_15_1430,2AFC_task,59.949845960821,
stimuli/lamp_bump_05_a.png,stimuli/lamp_bump_05_b.png,2,17,97,24,"[0, 1]",right,1,77,25,f,y,y,2019_Jul_15_1430,2AFC_task,59.949845960821,
stimuli/lamp_light_07_a.png,stimuli/lamp_light_07_b.png,2,18,98,36,"[0, 1]",right,1,77,25,f,y,y,2019_Jul_15_1430,2AFC_task,59.949845960821,
stimuli/lamp_bump_01_a.png,stimuli/lamp_bump_01_b.png,2,19,99,20,"[1, 0]",right,0,77,25,f,y,y,2019_Jul_15_1430,2AFC_task,59.949845960821,
stimuli/hdri_light_07_a.png,stimuli/hdri_light_07_b.png,2,20,100,16,"[1, 0]",left,1,77,25,f,y,y,2019_Jul_15_1430,2AFC_task,59.949845960821,
stimuli/hdri_bump_03_a.png,stimuli/hdri_bump_03_b.png,2,21,101,2,"[0, 1]",left,0,77,25,f,y,y,2019_Jul_15_1430,2AFC_task,59.949845960821,
stimuli/hdri_light_10_a.png,stimuli/hdri_light_10_b.png,2,22,102,19,"[1, 0]",left,1,77,25,f,y,y,2019_Jul_15_1430,2AFC_task,59.949845960821,
stimuli/lamp_light_09_a.png,stimuli/lamp_light_09_b.png,2,23,103,38,"[1, 0]",left,1,77,25,f,y,y,2019_Jul_15_1430,2AFC_task,59.949845960821,
stimuli/hdri_light_04_a.png,stimuli/hdri_light_04_b.png,2,24,104,13,"[0, 1]",right,1,77,25,f,y,y,2019_Jul_15_1430,2AFC_task,59.949845960821,
stimuli/hdri_bump_05_a.png,stimuli/hdri_bump_05_b.png,2,25,105,4,"[1, 0]",left,1,77,25,f,y,y,2019_Jul_15_1430,2AFC_task,59.949845960821,
stimuli/lamp_light_03_a.png,stimuli/lamp_light_03_b.png,2,26,106,32,"[1, 0]",right,0,77,25,f,y,y,2019_Jul_15_1430,2AFC_task,59.949845960821,
stimuli/hdri_bump_01_a.png,stimuli/hdri_bump_01_b.png,2,27,107,0,"[0, 1]",right,1,77,25,f,y,y,2019_Jul_15_1430,2AFC_task,59.949845960821,
stimuli/lamp_light_02_a.png,stimuli/lamp_light_02_b.png,2,28,108,31,"[0, 1]",left,0,77,25,f,y,y,2019_Jul_15_1430,2AFC_task,59.949845960821,
stimuli/lamp_bump_06_a.png,stimuli/lamp_bump_06_b.png,2,29,109,25,"[0, 1]",left,0,77,25,f,y,y,2019_Jul_15_1430,2AFC_task,59.949845960821,
stimuli/lamp_light_04_a.png,stimuli/lamp_light_04_b.png,2,30,110,33,"[0, 1]",right,1,77,25,f,y,y,2019_Jul_15_1430,2AFC_task,59.949845960821,
stimuli/hdri_light_05_a.png,stimuli/hdri_light_05_b.png,2,31,111,14,"[0, 1]",left,0,77,25,f,y,y,2019_Jul_15_1430,2AFC_task,59.949845960821,
stimuli/hdri_bump_10_a.png,stimuli/hdri_bump_10_b.png,2,32,112,9,"[1, 0]",left,1,77,25,f,y,y,2019_Jul_15_1430,2AFC_task,59.949845960821,
stimuli/hdri_light_06_a.png,stimuli/hdri_light_06_b.png,2,33,113,15,"[0, 1]",left,0,77,25,f,y,y,2019_Jul_15_1430,2AFC_task,59.949845960821,
stimuli/hdri_light_03_a.png,stimuli/hdri_light_03_b.png,2,34,114,12,"[1, 0]",right,0,77,25,f,y,y,2019_Jul_15_1430,2AFC_task,59.949845960821,
stimuli/hdri_bump_04_a.png,stimuli/hdri_bump_04_b.png,2,35,115,3,"[1, 0]",left,1,77,25,f,y,y,2019_Jul_15_1430,2AFC_task,59.949845960821,
stimuli/lamp_bump_08_a.png,stimuli/lamp_bump_08_b.png,2,36,116,27,"[1, 0]",right,0,77,25,f,y,y,2019_Jul_15_1430,2AFC_task,59.949845960821,
stimuli/lamp_bump_10_a.png,stimuli/lamp_bump_10_b.png,2,37,117,29,"[1, 0]",left,1,77,25,f,y,y,2019_Jul_15_1430,2AFC_task,59.949845960821,
stimuli/lamp_bump_02_a.png,stimuli/lamp_bump_02_b.png,2,38,118,21,"[0, 1]",left,0,77,25,f,y,y,2019_Jul_15_1430,2AFC_task,59.949845960821,
stimuli/lamp_light_10_a.png,stimuli/lamp_light_10_b.png,2,39,119,39,"[1, 0]",left,1,77,25,f,y,y,2019_Jul_15_1430,2AFC_task,59.949845960821,
stimuli/hdri_bump_06_a.png,stimuli/hdri_bump_06_b.png,3,0,120,5,"[0, 1]",left,0,77,25,f,y,y,2019_Jul_15_1430,2AFC_task,59.949845960821,
stimuli/hdri_bump_10_a.png,stimuli/hdri_bump_10_b.png,3,1,121,9,"[1, 0]",right,0,77,25,f,y,y,2019_Jul_15_1430,2AFC_task,59.949845960821,
stimuli/hdri_light_02_a.png,stimuli/hdri_light_02_b.png,3,2,122,11,"[0, 1]",left,0,77,25,f,y,y,2019_Jul_15_1430,2AFC_task,59.949845960821,
stimuli/hdri_light_10_a.png,stimuli/hdri_light_10_b.png,3,3,123,19,"[1, 0]",left,1,77,25,f,y,y,2019_Jul_15_1430,2AFC_task,59.949845960821,
stimuli/lamp_light_10_a.png,stimuli/lamp_light_10_b.png,3,4,124,39,"[0, 1]",right,1,77,25,f,y,y,2019_Jul_15_1430,2AFC_task,59.949845960821,
stimuli/lamp_bump_01_a.png,stimuli/lamp_bump_01_b.png,3,5,125,20,"[1, 0]",right,0,77,25,f,y,y,2019_Jul_15_1430,2AFC_task,59.949845960821,
stimuli/lamp_bump_02_a.png,stimuli/lamp_bump_02_b.png,3,6,126,21,"[0, 1]",left,0,77,25,f,y,y,2019_Jul_15_1430,2AFC_task,59.949845960821,
stimuli/hdri_bump_04_a.png,stimuli/hdri_bump_04_b.png,3,7,127,3,"[0, 1]",right,1,77,25,f,y,y,2019_Jul_15_1430,2AFC_task,59.949845960821,
stimuli/lamp_light_01_a.png,stimuli/lamp_light_01_b.png,3,8,128,30,"[1, 0]",left,1,77,25,f,y,y,2019_Jul_15_1430,2AFC_task,59.949845960821,
stimuli/lamp_bump_07_a.png,stimuli/lamp_bump_07_b.png,3,9,129,26,"[1, 0]",right,0,77,25,f,y,y,2019_Jul_15_1430,2AFC_task,59.949845960821,
stimuli/lamp_bump_06_a.png,stimuli/lamp_bump_06_b.png,3,10,130,25,"[1, 0]",left,1,77,25,f,y,y,2019_Jul_15_1430,2AFC_task,59.949845960821,
stimuli/hdri_light_03_a.png,stimuli/hdri_light_03_b.png,3,11,131,12,"[1, 0]",right,0,77,25,f,y,y,2019_Jul_15_1430,2AFC_task,59.949845960821,
stimuli/hdri_bump_09_a.png,stimuli/hdri_bump_09_b.png,3,12,132,8,"[1, 0]",left,1,77,25,f,y,y,2019_Jul_15_1430,2AFC_task,59.949845960821,
stimuli/hdri_light_05_a.png,stimuli/hdri_light_05_b.png,3,13,133,14,"[0, 1]",left,0,77,25,f,y,y,2019_Jul_15_1430,2AFC_task,59.949845960821,
stimuli/lamp_light_07_a.png,stimuli/lamp_light_07_b.png,3,14,134,36,"[0, 1]",right,1,77,25,f,y,y,2019_Jul_15_1430,2AFC_task,59.949845960821,
stimuli/lamp_bump_09_a.png,stimuli/lamp_bump_09_b.png,3,15,135,28,"[1, 0]",right,0,77,25,f,y,y,2019_Jul_15_1430,2AFC_task,59.949845960821,
stimuli/hdri_bump_05_a.png,stimuli/hdri_bump_05_b.png,3,16,136,4,"[1, 0]",left,1,77,25,f,y,y,2019_Jul_15_1430,2AFC_task,59.949845960821,
stimuli/hdri_light_08_a.png,stimuli/hdri_light_08_b.png,3,17,137,17,"[1, 0]",left,1,77,25,f,y,y,2019_Jul_15_1430,2AFC_task,59.949845960821,
stimuli/hdri_light_09_a.png,stimuli/hdri_light_09_b.png,3,18,138,18,"[0, 1]",left,0,77,25,f,y,y,2019_Jul_15_1430,2AFC_task,59.949845960821,
stimuli/lamp_bump_10_a.png,stimuli/lamp_bump_10_b.png,3,19,139,29,"[1, 0]",left,1,77,25,f,y,y,2019_Jul_15_1430,2AFC_task,59.949845960821,
stimuli/lamp_light_06_a.png,stimuli/lamp_light_06_b.png,3,20,140,35,"[0, 1]",right,1,77,25,f,y,y,2019_Jul_15_1430,2AFC_task,59.949845960821,
stimuli/lamp_light_03_a.png,stimuli/lamp_light_03_b.png,3,21,141,32,"[1, 0]",left,1,77,25,f,y,y,2019_Jul_15_1430,2AFC_task,59.949845960821,
stimuli/lamp_bump_08_a.png,stimuli/lamp_bump_08_b.png,3,22,142,27,"[1, 0]",right,0,77,25,f,y,y,2019_Jul_15_1430,2AFC_task,59.949845960821,
stimuli/lamp_light_08_a.png,stimuli/lamp_light_08_b.png,3,23,143,37,"[0, 1]",right,1,77,25,f,y,y,2019_Jul_15_1430,2AFC_task,59.949845960821,
stimuli/lamp_light_02_a.png,stimuli/lamp_light_02_b.png,3,24,144,31,"[1, 0]",left,1,77,25,f,y,y,2019_Jul_15_1430,2AFC_task,59.949845960821,
stimuli/lamp_light_05_a.png,stimuli/lamp_light_05_b.png,3,25,145,34,"[1, 0]",left,1,77,25,f,y,y,2019_Jul_15_1430,2AFC_task,59.949845960821,
stimuli/lamp_light_04_a.png,stimuli/lamp_light_04_b.png,3,26,146,33,"[1, 0]",left,1,77,25,f,y,y,2019_Jul_15_1430,2AFC_task,59.949845960821,
stimuli/lamp_bump_03_a.png,stimuli/lamp_bump_03_b.png,3,27,147,22,"[0, 1]",right,1,77,25,f,y,y,2019_Jul_15_1430,2AFC_task,59.949845960821,
stimuli/hdri_bump_02_a.png,stimuli/hdri_bump_02_b.png,3,28,148,1,"[0, 1]",right,1,77,25,f,y,y,2019_Jul_15_1430,2AFC_task,59.949845960821,
stimuli/hdri_bump_07_a.png,stimuli/hdri_bump_07_b.png,3,29,149,6,"[1, 0]",left,1,77,25,f,y,y,2019_Jul_15_1430,2AFC_task,59.949845960821,
stimuli/hdri_light_07_a.png,stimuli/hdri_light_07_b.png,3,30,150,16,"[1, 0]",left,1,77,25,f,y,y,2019_Jul_15_1430,2AFC_task,59.949845960821,
stimuli/lamp_bump_04_a.png,stimuli/lamp_bump_04_b.png,3,31,151,23,"[0, 1]",left,0,77,25,f,y,y,2019_Jul_15_1430,2AFC_task,59.949845960821,
stimuli/hdri_bump_01_a.png,stimuli/hdri_bump_01_b.png,3,32,152,0,"[1, 0]",left,1,77,25,f,y,y,2019_Jul_15_1430,2AFC_task,59.949845960821,
stimuli/hdri_light_06_a.png,stimuli/hdri_light_06_b.png,3,33,153,15,"[1, 0]",right,0,77,25,f,y,y,2019_Jul_15_1430,2AFC_task,59.949845960821,
stimuli/hdri_bump_08_a.png,stimuli/hdri_bump_08_b.png,3,34,154,7,"[0, 1]",right,1,77,25,f,y,y,2019_Jul_15_1430,2AFC_task,59.949845960821,
stimuli/lamp_bump_05_a.png,stimuli/lamp_bump_05_b.png,3,35,155,24,"[0, 1]",right,1,77,25,f,y,y,2019_Jul_15_1430,2AFC_task,59.949845960821,
stimuli/hdri_bump_03_a.png,stimuli/hdri_bump_03_b.png,3,36,156,2,"[1, 0]",left,1,77,25,f,y,y,2019_Jul_15_1430,2AFC_task,59.949845960821,
stimuli/hdri_light_04_a.png,stimuli/hdri_light_04_b.png,3,37,157,13,"[1, 0]",left,1,77,25,f,y,y,2019_Jul_15_1430,2AFC_task,59.949845960821,
stimuli/hdri_light_01_a.png,stimuli/hdri_light_01_b.png,3,38,158,10,"[0, 1]",left,0,77,25,f,y,y,2019_Jul_15_1430,2AFC_task,59.949845960821,
stimuli/lamp_light_09_a.png,stimuli/lamp_light_09_b.png,3,39,159,38,"[0, 1]",right,1,77,25,f,y,y,2019_Jul_15_1430,2AFC_task,59.949845960821,
stimuli/lamp_light_01_a.png,stimuli/lamp_light_01_b.png,4,0,160,30,"[1, 0]",left,1,77,25,f,y,y,2019_Jul_15_1430,2AFC_task,59.949845960821,
stimuli/lamp_light_06_a.png,stimuli/lamp_light_06_b.png,4,1,161,35,"[0, 1]",right,1,77,25,f,y,y,2019_Jul_15_1430,2AFC_task,59.949845960821,
stimuli/hdri_bump_03_a.png,stimuli/hdri_bump_03_b.png,4,2,162,2,"[1, 0]",left,1,77,25,f,y,y,2019_Jul_15_1430,2AFC_task,59.949845960821,
stimuli/lamp_bump_10_a.png,stimuli/lamp_bump_10_b.png,4,3,163,29,"[1, 0]",left,1,77,25,f,y,y,2019_Jul_15_1430,2AFC_task,59.949845960821,
stimuli/hdri_light_07_a.png,stimuli/hdri_light_07_b.png,4,4,164,16,"[1, 0]",left,1,77,25,f,y,y,2019_Jul_15_1430,2AFC_task,59.949845960821,
stimuli/hdri_light_09_a.png,stimuli/hdri_light_09_b.png,4,5,165,18,"[0, 1]",left,0,77,25,f,y,y,2019_Jul_15_1430,2AFC_task,59.949845960821,
stimuli/lamp_bump_09_a.png,stimuli/lamp_bump_09_b.png,4,6,166,28,"[1, 0]",left,1,77,25,f,y,y,2019_Jul_15_1430,2AFC_task,59.949845960821,
stimuli/hdri_light_06_a.png,stimuli/hdri_light_06_b.png,4,7,167,15,"[0, 1]",left,0,77,25,f,y,y,2019_Jul_15_1430,2AFC_task,59.949845960821,
stimuli/lamp_light_05_a.png,stimuli/lamp_light_05_b.png,4,8,168,34,"[0, 1]",right,1,77,25,f,y,y,2019_Jul_15_1430,2AFC_task,59.949845960821,
stimuli/hdri_bump_05_a.png,stimuli/hdri_bump_05_b.png,4,9,169,4,"[0, 1]",right,1,77,25,f,y,y,2019_Jul_15_1430,2AFC_task,59.949845960821,
stimuli/lamp_bump_01_a.png,stimuli/lamp_bump_01_b.png,4,10,170,20,"[0, 1]",left,0,77,25,f,y,y,2019_Jul_15_1430,2AFC_task,59.949845960821,
stimuli/lamp_bump_02_a.png,stimuli/lamp_bump_02_b.png,4,11,171,21,"[0, 1]",left,0,77,25,f,y,y,2019_Jul_15_1430,2AFC_task,59.949845960821,
stimuli/hdri_bump_06_a.png,stimuli/hdri_bump_06_b.png,4,12,172,5,"[1, 0]",left,1,77,25,f,y,y,2019_Jul_15_1430,2AFC_task,59.949845960821,
stimuli/lamp_bump_03_a.png,stimuli/lamp_bump_03_b.png,4,13,173,22,"[0, 1]",right,1,77,25,f,y,y,2019_Jul_15_1430,2AFC_task,59.949845960821,
stimuli/lamp_bump_08_a.png,stimuli/lamp_bump_08_b.png,4,14,174,27,"[1, 0]",left,1,77,25,f,y,y,2019_Jul_15_1430,2AFC_task,59.949845960821,
stimuli/hdri_light_08_a.png,stimuli/hdri_light_08_b.png,4,15,175,17,"[1, 0]",left,1,77,25,f,y,y,2019_Jul_15_1430,2AFC_task,59.949845960821,
stimuli/lamp_bump_07_a.png,stimuli/lamp_bump_07_b.png,4,16,176,26,"[0, 1]",left,0,77,25,f,y,y,2019_Jul_15_1430,2AFC_task,59.949845960821,
stimuli/lamp_bump_06_a.png,stimuli/lamp_bump_06_b.png,4,17,177,25,"[1, 0]",right,0,77,25,f,y,y,2019_Jul_15_1430,2AFC_task,59.949845960821,
stimuli/lamp_light_04_a.png,stimuli/lamp_light_04_b.png,4,18,178,33,"[1, 0]",left,1,77,25,f,y,y,2019_Jul_15_1430,2AFC_task,59.949845960821,
stimuli/hdri_bump_02_a.png,stimuli/hdri_bump_02_b.png,4,19,179,1,"[0, 1]",right,1,77,25,f,y,y,2019_Jul_15_1430,2AFC_task,59.949845960821,
stimuli/hdri_bump_01_a.png,stimuli/hdri_bump_01_b.png,4,20,180,0,"[1, 0]",left,1,77,25,f,y,y,2019_Jul_15_1430,2AFC_task,59.949845960821,
stimuli/lamp_light_10_a.png,stimuli/lamp_light_10_b.png,4,21,181,39,"[1, 0]",left,1,77,25,f,y,y,2019_Jul_15_1430,2AFC_task,59.949845960821,
stimuli/lamp_light_08_a.png,stimuli/lamp_light_08_b.png,4,22,182,37,"[1, 0]",left,1,77,25,f,y,y,2019_Jul_15_1430,2AFC_task,59.949845960821,
stimuli/lamp_light_03_a.png,stimuli/lamp_light_03_b.png,4,23,183,32,"[0, 1]",right,1,77,25,f,y,y,2019_Jul_15_1430,2AFC_task,59.949845960821,
stimuli/lamp_bump_05_a.png,stimuli/lamp_bump_05_b.png,4,24,184,24,"[1, 0]",left,1,77,25,f,y,y,2019_Jul_15_1430,2AFC_task,59.949845960821,
stimuli/hdri_light_04_a.png,stimuli/hdri_light_04_b.png,4,25,185,13,"[0, 1]",right,1,77,25,f,y,y,2019_Jul_15_1430,2AFC_task,59.949845960821,
stimuli/hdri_bump_08_a.png,stimuli/hdri_bump_08_b.png,4,26,186,7,"[0, 1]",right,1,77,25,f,y,y,2019_Jul_15_1430,2AFC_task,59.949845960821,
stimuli/hdri_light_10_a.png,stimuli/hdri_light_10_b.png,4,27,187,19,"[1, 0]",left,1,77,25,f,y,y,2019_Jul_15_1430,2AFC_task,59.949845960821,
stimuli/hdri_bump_10_a.png,stimuli/hdri_bump_10_b.png,4,28,188,9,"[1, 0]",left,1,77,25,f,y,y,2019_Jul_15_1430,2AFC_task,59.949845960821,
stimuli/hdri_bump_04_a.png,stimuli/hdri_bump_04_b.png,4,29,189,3,"[0, 1]",right,1,77,25,f,y,y,2019_Jul_15_1430,2AFC_task,59.949845960821,
stimuli/hdri_light_05_a.png,stimuli/hdri_light_05_b.png,4,30,190,14,"[1, 0]",right,0,77,25,f,y,y,2019_Jul_15_1430,2AFC_task,59.949845960821,
stimuli/hdri_light_03_a.png,stimuli/hdri_light_03_b.png,4,31,191,12,"[1, 0]",right,0,77,25,f,y,y,2019_Jul_15_1430,2AFC_task,59.949845960821,
stimuli/lamp_light_07_a.png,stimuli/lamp_light_07_b.png,4,32,192,36,"[0, 1]",right,1,77,25,f,y,y,2019_Jul_15_1430,2AFC_task,59.949845960821,
stimuli/hdri_light_01_a.png,stimuli/hdri_light_01_b.png,4,33,193,10,"[1, 0]",right,0,77,25,f,y,y,2019_Jul_15_1430,2AFC_task,59.949845960821,
stimuli/hdri_bump_07_a.png,stimuli/hdri_bump_07_b.png,4,34,194,6,"[1, 0]",left,1,77,25,f,y,y,2019_Jul_15_1430,2AFC_task,59.949845960821,
stimuli/hdri_bump_09_a.png,stimuli/hdri_bump_09_b.png,4,35,195,8,"[0, 1]",right,1,77,25,f,y,y,2019_Jul_15_1430,2AFC_task,59.949845960821,
stimuli/hdri_light_02_a.png,stimuli/hdri_light_02_b.png,4,36,196,11,"[1, 0]",right,0,77,25,f,y,y,2019_Jul_15_1430,2AFC_task,59.949845960821,
stimuli/lamp_light_09_a.png,stimuli/lamp_light_09_b.png,4,37,197,38,"[0, 1]",right,1,77,25,f,y,y,2019_Jul_15_1430,2AFC_task,59.949845960821,
stimuli/lamp_light_02_a.png,stimuli/lamp_light_02_b.png,4,38,198,31,"[0, 1]",right,1,77,25,f,y,y,2019_Jul_15_1430,2AFC_task,59.949845960821,
stimuli/lamp_bump_04_a.png,stimuli/lamp_bump_04_b.png,4,39,199,23,"[0, 1]",left,0,77,25,f,y,y,2019_Jul_15_1430,2AFC_task,59.949845960821,
stimuli/lamp_bump_05_a.png,stimuli/lamp_bump_05_b.png,5,0,200,24,"[1, 0]",left,1,77,25,f,y,y,2019_Jul_15_1430,2AFC_task,59.949845960821,
stimuli/hdri_light_05_a.png,stimuli/hdri_light_05_b.png,5,1,201,14,"[0, 1]",left,0,77,25,f,y,y,2019_Jul_15_1430,2AFC_task,59.949845960821,
stimuli/lamp_bump_09_a.png,stimuli/lamp_bump_09_b.png,5,2,202,28,"[1, 0]",right,0,77,25,f,y,y,2019_Jul_15_1430,2AFC_task,59.949845960821,
stimuli/hdri_bump_01_a.png,stimuli/hdri_bump_01_b.png,5,3,203,0,"[0, 1]",right,1,77,25,f,y,y,2019_Jul_15_1430,2AFC_task,59.949845960821,
stimuli/hdri_bump_09_a.png,stimuli/hdri_bump_09_b.png,5,4,204,8,"[0, 1]",left,0,77,25,f,y,y,2019_Jul_15_1430,2AFC_task,59.949845960821,
stimuli/lamp_light_07_a.png,stimuli/lamp_light_07_b.png,5,5,205,36,"[0, 1]",right,1,77,25,f,y,y,2019_Jul_15_1430,2AFC_task,59.949845960821,
stimuli/hdri_bump_06_a.png,stimuli/hdri_bump_06_b.png,5,6,206,5,"[1, 0]",left,1,77,25,f,y,y,2019_Jul_15_1430,2AFC_task,59.949845960821,
stimuli/lamp_bump_08_a.png,stimuli/lamp_bump_08_b.png,5,7,207,27,"[1, 0]",right,0,77,25,f,y,y,2019_Jul_15_1430,2AFC_task,59.949845960821,
stimuli/lamp_light_01_a.png,stimuli/lamp_light_01_b.png,5,8,208,30,"[0, 1]",right,1,77,25,f,y,y,2019_Jul_15_1430,2AFC_task,59.949845960821,
stimuli/hdri_bump_05_a.png,stimuli/hdri_bump_05_b.png,5,9,209,4,"[1, 0]",left,1,77,25,f,y,y,2019_Jul_15_1430,2AFC_task,59.949845960821,
stimuli/lamp_bump_01_a.png,stimuli/lamp_bump_01_b.png,5,10,210,20,"[0, 1]",left,0,77,25,f,y,y,2019_Jul_15_1430,2AFC_task,59.949845960821,
stimuli/hdri_bump_10_a.png,stimuli/hdri_bump_10_b.png,5,11,211,9,"[1, 0]",left,1,77,25,f,y,y,2019_Jul_15_1430,2AFC_task,59.949845960821,
stimuli/hdri_light_09_a.png,stimuli/hdri_light_09_b.png,5,12,212,18,"[1, 0]",right,0,77,25,f,y,y,2019_Jul_15_1430,2AFC_task,59.949845960821,
stimuli/lamp_bump_10_a.png,stimuli/lamp_bump_10_b.png,5,13,213,29,"[1, 0]",left,1,77,25,f,y,y,2019_Jul_15_1430,2AFC_task,59.949845960821,
stimuli/hdri_bump_04_a.png,stimuli/hdri_bump_04_b.png,5,14,214,3,"[1, 0]",left,1,77,25,f,y,y,2019_Jul_15_1430,2AFC_task,59.949845960821,
stimuli/hdri_light_02_a.png,stimuli/hdri_light_02_b.png,5,15,215,11,"[0, 1]",left,0,77,25,f,y,y,2019_Jul_15_1430,2AFC_task,59.949845960821,
stimuli/lamp_light_05_a.png,stimuli/lamp_light_05_b.png,5,16,216,34,"[0, 1]",right,1,77,25,f,y,y,2019_Jul_15_1430,2AFC_task,59.949845960821,
stimuli/hdri_light_07_a.png,stimuli/hdri_light_07_b.png,5,17,217,16,"[0, 1]",right,1,77,25,f,y,y,2019_Jul_15_1430,2AFC_task,59.949845960821,
stimuli/lamp_light_06_a.png,stimuli/lamp_light_06_b.png,5,18,218,35,"[1, 0]",left,1,77,25,f,y,y,2019_Jul_15_1430,2AFC_task,59.949845960821,
stimuli/lamp_light_03_a.png,stimuli/lamp_light_03_b.png,5,19,219,32,"[1, 0]",left,1,77,25,f,y,y,2019_Jul_15_1430,2AFC_task,59.949845960821,
stimuli/lamp_bump_04_a.png,stimuli/lamp_bump_04_b.png,5,20,220,23,"[1, 0]",right,0,77,25,f,y,y,2019_Jul_15_1430,2AFC_task,59.949845960821,
stimuli/hdri_bump_03_a.png,stimuli/hdri_bump_03_b.png,5,21,221,2,"[1, 0]",left,1,77,25,f,y,y,2019_Jul_15_1430,2AFC_task,59.949845960821,
stimuli/hdri_light_10_a.png,stimuli/hdri_light_10_b.png,5,22,222,19,"[1, 0]",left,1,77,25,f,y,y,2019_Jul_15_1430,2AFC_task,59.949845960821,
stimuli/lamp_bump_02_a.png,stimuli/lamp_bump_02_b.png,5,23,223,21,"[0, 1]",left,0,77,25,f,y,y,2019_Jul_15_1430,2AFC_task,59.949845960821,
stimuli/hdri_light_08_a.png,stimuli/hdri_light_08_b.png,5,24,224,17,"[1, 0]",left,1,77,25,f,y,y,2019_Jul_15_1430,2AFC_task,59.949845960821,
stimuli/hdri_light_01_a.png,stimuli/hdri_light_01_b.png,5,25,225,10,"[1, 0]",right,0,77,25,f,y,y,2019_Jul_15_1430,2AFC_task,59.949845960821,
stimuli/lamp_light_04_a.png,stimuli/lamp_light_04_b.png,5,26,226,33,"[1, 0]",left,1,77,25,f,y,y,2019_Jul_15_1430,2AFC_task,59.949845960821,
stimuli/lamp_light_02_a.png,stimuli/lamp_light_02_b.png,5,27,227,31,"[0, 1]",right,1,77,25,f,y,y,2019_Jul_15_1430,2AFC_task,59.949845960821,
stimuli/hdri_bump_02_a.png,stimuli/hdri_bump_02_b.png,5,28,228,1,"[1, 0]",left,1,77,25,f,y,y,2019_Jul_15_1430,2AFC_task,59.949845960821,
stimuli/lamp_bump_06_a.png,stimuli/lamp_bump_06_b.png,5,29,229,25,"[0, 1]",left,0,77,25,f,y,y,2019_Jul_15_1430,2AFC_task,59.949845960821,
stimuli/hdri_light_06_a.png,stimuli/hdri_light_06_b.png,5,30,230,15,"[1, 0]",right,0,77,25,f,y,y,2019_Jul_15_1430,2AFC_task,59.949845960821,
stimuli/lamp_bump_03_a.png,stimuli/lamp_bump_03_b.png,5,31,231,22,"[0, 1]",right,1,77,25,f,y,y,2019_Jul_15_1430,2AFC_task,59.949845960821,
stimuli/hdri_bump_08_a.png,stimuli/hdri_bump_08_b.png,5,32,232,7,"[1, 0]",right,0,77,25,f,y,y,2019_Jul_15_1430,2AFC_task,59.949845960821,
stimuli/lamp_light_08_a.png,stimuli/lamp_light_08_b.png,5,33,233,37,"[0, 1]",right,1,77,25,f,y,y,2019_Jul_15_1430,2AFC_task,59.949845960821,
stimuli/hdri_bump_07_a.png,stimuli/hdri_bump_07_b.png,5,34,234,6,"[1, 0]",left,1,77,25,f,y,y,2019_Jul_15_1430,2AFC_task,59.949845960821,
stimuli/hdri_light_04_a.png,stimuli/hdri_light_04_b.png,5,35,235,13,"[1, 0]",right,0,77,25,f,y,y,2019_Jul_15_1430,2AFC_task,59.949845960821,
stimuli/lamp_light_10_a.png,stimuli/lamp_light_10_b.png,5,36,236,39,"[1, 0]",left,1,77,25,f,y,y,2019_Jul_15_1430,2AFC_task,59.949845960821,
stimuli/hdri_light_03_a.png,stimuli/hdri_light_03_b.png,5,37,237,12,"[0, 1]",left,0,77,25,f,y,y,2019_Jul_15_1430,2AFC_task,59.949845960821,
stimuli/lamp_bump_07_a.png,stimuli/lamp_bump_07_b.png,5,38,238,26,"[1, 0]",right,0,77,25,f,y,y,2019_Jul_15_1430,2AFC_task,59.949845960821,
stimuli/lamp_light_09_a.png,stimuli/lamp_light_09_b.png,5,39,239,38,"[1, 0]",left,1,77,25,f,y,y,2019_Jul_15_1430,2AFC_task,59.949845960821,
stimuli/hdri_bump_10_a.png,stimuli/hdri_bump_10_b.png,6,0,240,9,"[0, 1]",right,1,77,25,f,y,y,2019_Jul_15_1430,2AFC_task,59.949845960821,
stimuli/lamp_bump_10_a.png,stimuli/lamp_bump_10_b.png,6,1,241,29,"[1, 0]",left,1,77,25,f,y,y,2019_Jul_15_1430,2AFC_task,59.949845960821,
stimuli/hdri_bump_02_a.png,stimuli/hdri_bump_02_b.png,6,2,242,1,"[1, 0]",left,1,77,25,f,y,y,2019_Jul_15_1430,2AFC_task,59.949845960821,
stimuli/lamp_light_03_a.png,stimuli/lamp_light_03_b.png,6,3,243,32,"[1, 0]",left,1,77,25,f,y,y,2019_Jul_15_1430,2AFC_task,59.949845960821,
stimuli/lamp_light_07_a.png,stimuli/lamp_light_07_b.png,6,4,244,36,"[0, 1]",right,1,77,25,f,y,y,2019_Jul_15_1430,2AFC_task,59.949845960821,
stimuli/hdri_bump_07_a.png,stimuli/hdri_bump_07_b.png,6,5,245,6,"[1, 0]",left,1,77,25,f,y,y,2019_Jul_15_1430,2AFC_task,59.949845960821,
stimuli/lamp_bump_01_a.png,stimuli/lamp_bump_01_b.png,6,6,246,20,"[0, 1]",right,1,77,25,f,y,y,2019_Jul_15_1430,2AFC_task,59.949845960821,
stimuli/hdri_light_03_a.png,stimuli/hdri_light_03_b.png,6,7,247,12,"[1, 0]",left,1,77,25,f,y,y,2019_Jul_15_1430,2AFC_task,59.949845960821,
stimuli/lamp_bump_02_a.png,stimuli/lamp_bump_02_b.png,6,8,248,21,"[0, 1]",left,0,77,25,f,y,y,2019_Jul_15_1430,2AFC_task,59.949845960821,
stimuli/hdri_light_08_a.png,stimuli/hdri_light_08_b.png,6,9,249,17,"[0, 1]",left,0,77,25,f,y,y,2019_Jul_15_1430,2AFC_task,59.949845960821,
stimuli/hdri_light_09_a.png,stimuli/hdri_light_09_b.png,6,10,250,18,"[1, 0]",right,0,77,25,f,y,y,2019_Jul_15_1430,2AFC_task,59.949845960821,
stimuli/lamp_light_08_a.png,stimuli/lamp_light_08_b.png,6,11,251,37,"[1, 0]",left,1,77,25,f,y,y,2019_Jul_15_1430,2AFC_task,59.949845960821,
stimuli/hdri_bump_01_a.png,stimuli/hdri_bump_01_b.png,6,12,252,0,"[1, 0]",left,1,77,25,f,y,y,2019_Jul_15_1430,2AFC_task,59.949845960821,
stimuli/hdri_bump_03_a.png,stimuli/hdri_bump_03_b.png,6,13,253,2,"[0, 1]",right,1,77,25,f,y,y,2019_Jul_15_1430,2AFC_task,59.949845960821,
stimuli/hdri_bump_05_a.png,stimuli/hdri_bump_05_b.png,6,14,254,4,"[0, 1]",right,1,77,25,f,y,y,2019_Jul_15_1430,2AFC_task,59.949845960821,
stimuli/hdri_light_02_a.png,stimuli/hdri_light_02_b.png,6,15,255,11,"[0, 1]",left,0,77,25,f,y,y,2019_Jul_15_1430,2AFC_task,59.949845960821,
stimuli/lamp_light_04_a.png,stimuli/lamp_light_04_b.png,6,16,256,33,"[0, 1]",right,1,77,25,f,y,y,2019_Jul_15_1430,2AFC_task,59.949845960821,
stimuli/hdri_bump_04_a.png,stimuli/hdri_bump_04_b.png,6,17,257,3,"[0, 1]",right,1,77,25,f,y,y,2019_Jul_15_1430,2AFC_task,59.949845960821,
stimuli/lamp_light_09_a.png,stimuli/lamp_light_09_b.png,6,18,258,38,"[1, 0]",left,1,77,25,f,y,y,2019_Jul_15_1430,2AFC_task,59.949845960821,
stimuli/lamp_light_05_a.png,stimuli/lamp_light_05_b.png,6,19,259,34,"[1, 0]",left,1,77,25,f,y,y,2019_Jul_15_1430,2AFC_task,59.949845960821,
stimuli/hdri_bump_08_a.png,stimuli/hdri_bump_08_b.png,6,20,260,7,"[1, 0]",right,0,77,25,f,y,y,2019_Jul_15_1430,2AFC_task,59.949845960821,
stimuli/lamp_light_02_a.png,stimuli/lamp_light_02_b.png,6,21,261,31,"[1, 0]",left,1,77,25,f,y,y,2019_Jul_15_1430,2AFC_task,59.949845960821,
stimuli/lamp_bump_07_a.png,stimuli/lamp_bump_07_b.png,6,22,262,26,"[0, 1]",left,0,77,25,f,y,y,2019_Jul_15_1430,2AFC_task,59.949845960821,
stimuli/lamp_bump_05_a.png,stimuli/lamp_bump_05_b.png,6,23,263,24,"[0, 1]",right,1,77,25,f,y,y,2019_Jul_15_1430,2AFC_task,59.949845960821,
stimuli/hdri_light_10_a.png,stimuli/hdri_light_10_b.png,6,24,264,19,"[0, 1]",right,1,77,25,f,y,y,2019_Jul_15_1430,2AFC_task,59.949845960821,
stimuli/hdri_light_07_a.png,stimuli/hdri_light_07_b.png,6,25,265,16,"[1, 0]",left,1,77,25,f,y,y,2019_Jul_15_1430,2AFC_task,59.949845960821,
stimuli/lamp_light_06_a.png,stimuli/lamp_light_06_b.png,6,26,266,35,"[1, 0]",left,1,77,25,f,y,y,2019_Jul_15_1430,2AFC_task,59.949845960821,
stimuli/hdri_light_06_a.png,stimuli/hdri_light_06_b.png,6,27,267,15,"[1, 0]",right,0,77,25,f,y,y,2019_Jul_15_1430,2AFC_task,59.949845960821,
stimuli/lamp_bump_08_a.png,stimuli/lamp_bump_08_b.png,6,28,268,27,"[1, 0]",right,0,77,25,f,y,y,2019_Jul_15_1430,2AFC_task,59.949845960821,
stimuli/lamp_light_10_a.png,stimuli/lamp_light_10_b.png,6,29,269,39,"[0, 1]",right,1,77,25,f,y,y,2019_Jul_15_1430,2AFC_task,59.949845960821,
stimuli/lamp_bump_04_a.png,stimuli/lamp_bump_04_b.png,6,30,270,23,"[0, 1]",left,0,77,25,f,y,y,2019_Jul_15_1430,2AFC_task,59.949845960821,
stimuli/lamp_light_01_a.png,stimuli/lamp_light_01_b.png,6,31,271,30,"[0, 1]",right,1,77,25,f,y,y,2019_Jul_15_1430,2AFC_task,59.949845960821,
stimuli/hdri_light_04_a.png,stimuli/hdri_light_04_b.png,6,32,272,13,"[1, 0]",left,1,77,25,f,y,y,2019_Jul_15_1430,2AFC_task,59.949845960821,
stimuli/hdri_bump_09_a.png,stimuli/hdri_bump_09_b.png,6,33,273,8,"[0, 1]",right,1,77,25,f,y,y,2019_Jul_15_1430,2AFC_task,59.949845960821,
stimuli/hdri_bump_06_a.png,stimuli/hdri_bump_06_b.png,6,34,274,5,"[0, 1]",right,1,77,25,f,y,y,2019_Jul_15_1430,2AFC_task,59.949845960821,
stimuli/lamp_bump_03_a.png,stimuli/lamp_bump_03_b.png,6,35,275,22,"[1, 0]",left,1,77,25,f,y,y,2019_Jul_15_1430,2AFC_task,59.949845960821,
stimuli/lamp_bump_06_a.png,stimuli/lamp_bump_06_b.png,6,36,276,25,"[1, 0]",right,0,77,25,f,y,y,2019_Jul_15_1430,2AFC_task,59.949845960821,
stimuli/lamp_bump_09_a.png,stimuli/lamp_bump_09_b.png,6,37,277,28,"[1, 0]",right,0,77,25,f,y,y,2019_Jul_15_1430,2AFC_task,59.949845960821,
stimuli/hdri_light_05_a.png,stimuli/hdri_light_05_b.png,6,38,278,14,"[1, 0]",right,0,77,25,f,y,y,2019_Jul_15_1430,2AFC_task,59.949845960821,
stimuli/hdri_light_01_a.png,stimuli/hdri_light_01_b.png,6,39,279,10,"[0, 1]",left,0,77,25,f,y,y,2019_Jul_15_1430,2AFC_task,59.949845960821,
stimuli/lamp_bump_07_a.png,stimuli/lamp_bump_07_b.png,7,0,280,26,"[1, 0]",right,0,77,25,f,y,y,2019_Jul_15_1430,2AFC_task,59.949845960821,
stimuli/hdri_bump_09_a.png,stimuli/hdri_bump_09_b.png,7,1,281,8,"[1, 0]",right,0,77,25,f,y,y,2019_Jul_15_1430,2AFC_task,59.949845960821,
stimuli/hdri_light_02_a.png,stimuli/hdri_light_02_b.png,7,2,282,11,"[0, 1]",left,0,77,25,f,y,y,2019_Jul_15_1430,2AFC_task,59.949845960821,
stimuli/lamp_light_02_a.png,stimuli/lamp_light_02_b.png,7,3,283,31,"[0, 1]",right,1,77,25,f,y,y,2019_Jul_15_1430,2AFC_task,59.949845960821,
stimuli/hdri_bump_08_a.png,stimuli/hdri_bump_08_b.png,7,4,284,7,"[1, 0]",right,0,77,25,f,y,y,2019_Jul_15_1430,2AFC_task,59.949845960821,
stimuli/hdri_light_03_a.png,stimuli/hdri_light_03_b.png,7,5,285,12,"[1, 0]",right,0,77,25,f,y,y,2019_Jul_15_1430,2AFC_task,59.949845960821,
stimuli/hdri_light_08_a.png,stimuli/hdri_light_08_b.png,7,6,286,17,"[0, 1]",right,1,77,25,f,y,y,2019_Jul_15_1430,2AFC_task,59.949845960821,
stimuli/hdri_bump_05_a.png,stimuli/hdri_bump_05_b.png,7,7,287,4,"[1, 0]",left,1,77,25,f,y,y,2019_Jul_15_1430,2AFC_task,59.949845960821,
stimuli/hdri_light_09_a.png,stimuli/hdri_light_09_b.png,7,8,288,18,"[0, 1]",left,0,77,25,f,y,y,2019_Jul_15_1430,2AFC_task,59.949845960821,
stimuli/lamp_bump_09_a.png,stimuli/lamp_bump_09_b.png,7,9,289,28,"[0, 1]",left,0,77,25,f,y,y,2019_Jul_15_1430,2AFC_task,59.949845960821,
stimuli/lamp_bump_04_a.png,stimuli/lamp_bump_04_b.png,7,10,290,23,"[0, 1]",left,0,77,25,f,y,y,2019_Jul_15_1430,2AFC_task,59.949845960821,
stimuli/lamp_light_08_a.png,stimuli/lamp_light_08_b.png,7,11,291,37,"[0, 1]",right,1,77,25,f,y,y,2019_Jul_15_1430,2AFC_task,59.949845960821,
stimuli/lamp_bump_06_a.png,stimuli/lamp_bump_06_b.png,7,12,292,25,"[1, 0]",right,0,77,25,f,y,y,2019_Jul_15_1430,2AFC_task,59.949845960821,
stimuli/hdri_light_05_a.png,stimuli/hdri_light_05_b.png,7,13,293,14,"[1, 0]",right,0,77,25,f,y,y,2019_Jul_15_1430,2AFC_task,59.949845960821,
stimuli/lamp_light_03_a.png,stimuli/lamp_light_03_b.png,7,14,294,32,"[1, 0]",left,1,77,25,f,y,y,2019_Jul_15_1430,2AFC_task,59.949845960821,
stimuli/hdri_light_01_a.png,stimuli/hdri_light_01_b.png,7,15,295,10,"[0, 1]",left,0,77,25,f,y,y,2019_Jul_15_1430,2AFC_task,59.949845960821,
stimuli/lamp_bump_01_a.png,stimuli/lamp_bump_01_b.png,7,16,296,20,"[1, 0]",right,0,77,25,f,y,y,2019_Jul_15_1430,2AFC_task,59.949845960821,
stimuli/lamp_light_10_a.png,stimuli/lamp_light_10_b.png,7,17,297,39,"[0, 1]",right,1,77,25,f,y,y,2019_Jul_15_1430,2AFC_task,59.949845960821,
stimuli/lamp_light_09_a.png,stimuli/lamp_light_09_b.png,7,18,298,38,"[1, 0]",left,1,77,25,f,y,y,2019_Jul_15_1430,2AFC_task,59.949845960821,
stimuli/hdri_light_10_a.png,stimuli/hdri_light_10_b.png,7,19,299,19,"[1, 0]",left,1,77,25,f,y,y,2019_Jul_15_1430,2AFC_task,59.949845960821,
stimuli/lamp_bump_02_a.png,stimuli/lamp_bump_02_b.png,7,20,300,21,"[0, 1]",left,0,77,25,f,y,y,2019_Jul_15_1430,2AFC_task,59.949845960821,
stimuli/hdri_bump_07_a.png,stimuli/hdri_bump_07_b.png,7,21,301,6,"[1, 0]",left,1,77,25,f,y,y,2019_Jul_15_1430,2AFC_task,59.949845960821,
stimuli/lamp_light_04_a.png,stimuli/lamp_light_04_b.png,7,22,302,33,"[1, 0]",left,1,77,25,f,y,y,2019_Jul_15_1430,2AFC_task,59.949845960821,
stimuli/hdri_light_06_a.png,stimuli/hdri_light_06_b.png,7,23,303,15,"[0, 1]",left,0,77,25,f,y,y,2019_Jul_15_1430,2AFC_task,59.949845960821,
stimuli/hdri_bump_02_a.png,stimuli/hdri_bump_02_b.png,7,24,304,1,"[1, 0]",left,1,77,25,f,y,y,2019_Jul_15_1430,2AFC_task,59.949845960821,
stimuli/hdri_bump_01_a.png,stimuli/hdri_bump_01_b.png,7,25,305,0,"[0, 1]",right,1,77,25,f,y,y,2019_Jul_15_1430,2AFC_task,59.949845960821,
stimuli/hdri_bump_06_a.png,stimuli/hdri_bump_06_b.png,7,26,306,5,"[1, 0]",right,0,77,25,f,y,y,2019_Jul_15_1430,2AFC_task,59.949845960821,
stimuli/lamp_bump_03_a.png,stimuli/lamp_bump_03_b.png,7,27,307,22,"[0, 1]",right,1,77,25,f,y,y,2019_Jul_15_1430,2AFC_task,59.949845960821,
stimuli/hdri_light_07_a.png,stimuli/hdri_light_07_b.png,7,28,308,16,"[0, 1]",right,1,77,25,f,y,y,2019_Jul_15_1430,2AFC_task,59.949845960821,
stimuli/hdri_bump_03_a.png,stimuli/hdri_bump_03_b.png,7,29,309,2,"[1, 0]",left,1,77,25,f,y,y,2019_Jul_15_1430,2AFC_task,59.949845960821,
stimuli/lamp_light_01_a.png,stimuli/lamp_light_01_b.png,7,30,310,30,"[0, 1]",right,1,77,25,f,y,y,2019_Jul_15_1430,2AFC_task,59.949845960821,
stimuli/lamp_light_06_a.png,stimuli/lamp_light_06_b.png,7,31,311,35,"[0, 1]",right,1,77,25,f,y,y,2019_Jul_15_1430,2AFC_task,59.949845960821,
stimuli/lamp_bump_10_a.png,stimuli/lamp_bump_10_b.png,7,32,312,29,"[1, 0]",left,1,77,25,f,y,y,2019_Jul_15_1430,2AFC_task,59.949845960821,
stimuli/lamp_bump_08_a.png,stimuli/lamp_bump_08_b.png,7,33,313,27,"[0, 1]",right,1,77,25,f,y,y,2019_Jul_15_1430,2AFC_task,59.949845960821,
stimuli/lamp_bump_05_a.png,stimuli/lamp_bump_05_b.png,7,34,314,24,"[1, 0]",left,1,77,25,f,y,y,2019_Jul_15_1430,2AFC_task,59.949845960821,
stimuli/lamp_light_07_a.png,stimuli/lamp_light_07_b.png,7,35,315,36,"[1, 0]",left,1,77,25,f,y,y,2019_Jul_15_1430,2AFC_task,59.949845960821,
stimuli/hdri_bump_04_a.png,stimuli/hdri_bump_04_b.png,7,36,316,3,"[1, 0]",left,1,77,25,f,y,y,2019_Jul_15_1430,2AFC_task,59.949845960821,
stimuli/hdri_bump_10_a.png,stimuli/hdri_bump_10_b.png,7,37,317,9,"[0, 1]",right,1,77,25,f,y,y,2019_Jul_15_1430,2AFC_task,59.949845960821,
stimuli/lamp_light_05_a.png,stimuli/lamp_light_05_b.png,7,38,318,34,"[1, 0]",left,1,77,25,f,y,y,2019_Jul_15_1430,2AFC_task,59.949845960821,
stimuli/hdri_light_04_a.png,stimuli/hdri_light_04_b.png,7,39,319,13,"[0, 1]",right,1,77,25,f,y,y,2019_Jul_15_1430,2AFC_task,59.949845960821,
