stimOne,stimTwo,trials_1.thisRepN,trials_1.thisTrialN,trials_1.thisN,trials_1.thisIndex,presentation_positions,resp_key,corresponding_image,participant ID (two digits, e.g. 01),age,gender (m/f/-),normal or corrected-to-normal vision (y/n),normal colour vision (y/n),date,expName,frameRate,
stimuli/hdri_bump_09_a.png,stimuli/hdri_bump_09_b.png,0,0,0,8,"[1, 0]",left,1,87,25,f,y,y,2019_Jul_12_1425,2AFC_task,59.982425153518186,
stimuli/hdri_bump_04_a.png,stimuli/hdri_bump_04_b.png,0,1,1,3,"[0, 1]",right,1,87,25,f,y,y,2019_Jul_12_1425,2AFC_task,59.982425153518186,
stimuli/hdri_light_05_a.png,stimuli/hdri_light_05_b.png,0,2,2,14,"[0, 1]",left,0,87,25,f,y,y,2019_Jul_12_1425,2AFC_task,59.982425153518186,
stimuli/hdri_light_08_a.png,stimuli/hdri_light_08_b.png,0,3,3,17,"[1, 0]",left,1,87,25,f,y,y,2019_Jul_12_1425,2AFC_task,59.982425153518186,
stimuli/lamp_light_01_a.png,stimuli/lamp_light_01_b.png,0,4,4,30,"[1, 0]",right,0,87,25,f,y,y,2019_Jul_12_1425,2AFC_task,59.982425153518186,
stimuli/hdri_bump_10_a.png,stimuli/hdri_bump_10_b.png,0,5,5,9,"[0, 1]",right,1,87,25,f,y,y,2019_Jul_12_1425,2AFC_task,59.982425153518186,
stimuli/lamp_bump_08_a.png,stimuli/lamp_bump_08_b.png,0,6,6,27,"[1, 0]",right,0,87,25,f,y,y,2019_Jul_12_1425,2AFC_task,59.982425153518186,
stimuli/hdri_light_07_a.png,stimuli/hdri_light_07_b.png,0,7,7,16,"[0, 1]",right,1,87,25,f,y,y,2019_Jul_12_1425,2AFC_task,59.982425153518186,
stimuli/lamp_bump_09_a.png,stimuli/lamp_bump_09_b.png,0,8,8,28,"[0, 1]",left,0,87,25,f,y,y,2019_Jul_12_1425,2AFC_task,59.982425153518186,
stimuli/hdri_light_01_a.png,stimuli/hdri_light_01_b.png,0,9,9,10,"[0, 1]",left,0,87,25,f,y,y,2019_Jul_12_1425,2AFC_task,59.982425153518186,
stimuli/lamp_bump_04_a.png,stimuli/lamp_bump_04_b.png,0,10,10,23,"[1, 0]",right,0,87,25,f,y,y,2019_Jul_12_1425,2AFC_task,59.982425153518186,
stimuli/hdri_bump_05_a.png,stimuli/hdri_bump_05_b.png,0,11,11,4,"[0, 1]",right,1,87,25,f,y,y,2019_Jul_12_1425,2AFC_task,59.982425153518186,
stimuli/lamp_light_10_a.png,stimuli/lamp_light_10_b.png,0,12,12,39,"[1, 0]",left,1,87,25,f,y,y,2019_Jul_12_1425,2AFC_task,59.982425153518186,
stimuli/hdri_light_02_a.png,stimuli/hdri_light_02_b.png,0,13,13,11,"[1, 0]",right,0,87,25,f,y,y,2019_Jul_12_1425,2AFC_task,59.982425153518186,
stimuli/hdri_light_03_a.png,stimuli/hdri_light_03_b.png,0,14,14,12,"[0, 1]",left,0,87,25,f,y,y,2019_Jul_12_1425,2AFC_task,59.982425153518186,
stimuli/lamp_light_02_a.png,stimuli/lamp_light_02_b.png,0,15,15,31,"[0, 1]",right,1,87,25,f,y,y,2019_Jul_12_1425,2AFC_task,59.982425153518186,
stimuli/hdri_bump_07_a.png,stimuli/hdri_bump_07_b.png,0,16,16,6,"[0, 1]",right,1,87,25,f,y,y,2019_Jul_12_1425,2AFC_task,59.982425153518186,
stimuli/hdri_bump_08_a.png,stimuli/hdri_bump_08_b.png,0,17,17,7,"[0, 1]",right,1,87,25,f,y,y,2019_Jul_12_1425,2AFC_task,59.982425153518186,
stimuli/lamp_bump_06_a.png,stimuli/lamp_bump_06_b.png,0,18,18,25,"[0, 1]",left,0,87,25,f,y,y,2019_Jul_12_1425,2AFC_task,59.982425153518186,
stimuli/hdri_light_04_a.png,stimuli/hdri_light_04_b.png,0,19,19,13,"[1, 0]",left,1,87,25,f,y,y,2019_Jul_12_1425,2AFC_task,59.982425153518186,
stimuli/lamp_bump_03_a.png,stimuli/lamp_bump_03_b.png,0,20,20,22,"[0, 1]",right,1,87,25,f,y,y,2019_Jul_12_1425,2AFC_task,59.982425153518186,
stimuli/lamp_light_03_a.png,stimuli/lamp_light_03_b.png,0,21,21,32,"[0, 1]",right,1,87,25,f,y,y,2019_Jul_12_1425,2AFC_task,59.982425153518186,
stimuli/hdri_light_06_a.png,stimuli/hdri_light_06_b.png,0,22,22,15,"[0, 1]",left,0,87,25,f,y,y,2019_Jul_12_1425,2AFC_task,59.982425153518186,
stimuli/hdri_light_10_a.png,stimuli/hdri_light_10_b.png,0,23,23,19,"[1, 0]",left,1,87,25,f,y,y,2019_Jul_12_1425,2AFC_task,59.982425153518186,
stimuli/hdri_bump_03_a.png,stimuli/hdri_bump_03_b.png,0,24,24,2,"[0, 1]",left,0,87,25,f,y,y,2019_Jul_12_1425,2AFC_task,59.982425153518186,
stimuli/lamp_light_09_a.png,stimuli/lamp_light_09_b.png,0,25,25,38,"[1, 0]",left,1,87,25,f,y,y,2019_Jul_12_1425,2AFC_task,59.982425153518186,
stimuli/lamp_light_08_a.png,stimuli/lamp_light_08_b.png,0,26,26,37,"[0, 1]",right,1,87,25,f,y,y,2019_Jul_12_1425,2AFC_task,59.982425153518186,
stimuli/lamp_bump_05_a.png,stimuli/lamp_bump_05_b.png,0,27,27,24,"[1, 0]",left,1,87,25,f,y,y,2019_Jul_12_1425,2AFC_task,59.982425153518186,
stimuli/lamp_bump_10_a.png,stimuli/lamp_bump_10_b.png,0,28,28,29,"[0, 1]",right,1,87,25,f,y,y,2019_Jul_12_1425,2AFC_task,59.982425153518186,
stimuli/lamp_bump_01_a.png,stimuli/lamp_bump_01_b.png,0,29,29,20,"[1, 0]",right,0,87,25,f,y,y,2019_Jul_12_1425,2AFC_task,59.982425153518186,
stimuli/lamp_light_07_a.png,stimuli/lamp_light_07_b.png,0,30,30,36,"[1, 0]",left,1,87,25,f,y,y,2019_Jul_12_1425,2AFC_task,59.982425153518186,
stimuli/lamp_bump_02_a.png,stimuli/lamp_bump_02_b.png,0,31,31,21,"[1, 0]",right,0,87,25,f,y,y,2019_Jul_12_1425,2AFC_task,59.982425153518186,
stimuli/hdri_light_09_a.png,stimuli/hdri_light_09_b.png,0,32,32,18,"[1, 0]",right,0,87,25,f,y,y,2019_Jul_12_1425,2AFC_task,59.982425153518186,
stimuli/lamp_light_04_a.png,stimuli/lamp_light_04_b.png,0,33,33,33,"[1, 0]",left,1,87,25,f,y,y,2019_Jul_12_1425,2AFC_task,59.982425153518186,
stimuli/hdri_bump_02_a.png,stimuli/hdri_bump_02_b.png,0,34,34,1,"[0, 1]",left,0,87,25,f,y,y,2019_Jul_12_1425,2AFC_task,59.982425153518186,
stimuli/hdri_bump_01_a.png,stimuli/hdri_bump_01_b.png,0,35,35,0,"[0, 1]",right,1,87,25,f,y,y,2019_Jul_12_1425,2AFC_task,59.982425153518186,
stimuli/lamp_light_05_a.png,stimuli/lamp_light_05_b.png,0,36,36,34,"[0, 1]",right,1,87,25,f,y,y,2019_Jul_12_1425,2AFC_task,59.982425153518186,
stimuli/hdri_bump_06_a.png,stimuli/hdri_bump_06_b.png,0,37,37,5,"[1, 0]",right,0,87,25,f,y,y,2019_Jul_12_1425,2AFC_task,59.982425153518186,
stimuli/lamp_bump_07_a.png,stimuli/lamp_bump_07_b.png,0,38,38,26,"[1, 0]",right,0,87,25,f,y,y,2019_Jul_12_1425,2AFC_task,59.982425153518186,
stimuli/lamp_light_06_a.png,stimuli/lamp_light_06_b.png,0,39,39,35,"[1, 0]",left,1,87,25,f,y,y,2019_Jul_12_1425,2AFC_task,59.982425153518186,
stimuli/hdri_bump_01_a.png,stimuli/hdri_bump_01_b.png,1,0,40,0,"[1, 0]",right,0,87,25,f,y,y,2019_Jul_12_1425,2AFC_task,59.982425153518186,
stimuli/hdri_light_06_a.png,stimuli/hdri_light_06_b.png,1,1,41,15,"[0, 1]",left,0,87,25,f,y,y,2019_Jul_12_1425,2AFC_task,59.982425153518186,
stimuli/lamp_bump_09_a.png,stimuli/lamp_bump_09_b.png,1,2,42,28,"[0, 1]",left,0,87,25,f,y,y,2019_Jul_12_1425,2AFC_task,59.982425153518186,
stimuli/lamp_bump_08_a.png,stimuli/lamp_bump_08_b.png,1,3,43,27,"[0, 1]",left,0,87,25,f,y,y,2019_Jul_12_1425,2AFC_task,59.982425153518186,
stimuli/lamp_bump_04_a.png,stimuli/lamp_bump_04_b.png,1,4,44,23,"[0, 1]",left,0,87,25,f,y,y,2019_Jul_12_1425,2AFC_task,59.982425153518186,
stimuli/hdri_light_08_a.png,stimuli/hdri_light_08_b.png,1,5,45,17,"[1, 0]",left,1,87,25,f,y,y,2019_Jul_12_1425,2AFC_task,59.982425153518186,
stimuli/hdri_light_02_a.png,stimuli/hdri_light_02_b.png,1,6,46,11,"[0, 1]",left,0,87,25,f,y,y,2019_Jul_12_1425,2AFC_task,59.982425153518186,
stimuli/hdri_light_04_a.png,stimuli/hdri_light_04_b.png,1,7,47,13,"[1, 0]",right,0,87,25,f,y,y,2019_Jul_12_1425,2AFC_task,59.982425153518186,
stimuli/hdri_bump_05_a.png,stimuli/hdri_bump_05_b.png,1,8,48,4,"[1, 0]",left,1,87,25,f,y,y,2019_Jul_12_1425,2AFC_task,59.982425153518186,
stimuli/hdri_light_03_a.png,stimuli/hdri_light_03_b.png,1,9,49,12,"[0, 1]",left,0,87,25,f,y,y,2019_Jul_12_1425,2AFC_task,59.982425153518186,
stimuli/lamp_light_10_a.png,stimuli/lamp_light_10_b.png,1,10,50,39,"[0, 1]",right,1,87,25,f,y,y,2019_Jul_12_1425,2AFC_task,59.982425153518186,
stimuli/lamp_light_08_a.png,stimuli/lamp_light_08_b.png,1,11,51,37,"[1, 0]",left,1,87,25,f,y,y,2019_Jul_12_1425,2AFC_task,59.982425153518186,
stimuli/lamp_bump_10_a.png,stimuli/lamp_bump_10_b.png,1,12,52,29,"[1, 0]",left,1,87,25,f,y,y,2019_Jul_12_1425,2AFC_task,59.982425153518186,
stimuli/lamp_light_09_a.png,stimuli/lamp_light_09_b.png,1,13,53,38,"[1, 0]",left,1,87,25,f,y,y,2019_Jul_12_1425,2AFC_task,59.982425153518186,
stimuli/hdri_bump_04_a.png,stimuli/hdri_bump_04_b.png,1,14,54,3,"[1, 0]",left,1,87,25,f,y,y,2019_Jul_12_1425,2AFC_task,59.982425153518186,
stimuli/lamp_bump_01_a.png,stimuli/lamp_bump_01_b.png,1,15,55,20,"[1, 0]",right,0,87,25,f,y,y,2019_Jul_12_1425,2AFC_task,59.982425153518186,
stimuli/hdri_bump_03_a.png,stimuli/hdri_bump_03_b.png,1,16,56,2,"[1, 0]",right,0,87,25,f,y,y,2019_Jul_12_1425,2AFC_task,59.982425153518186,
stimuli/lamp_light_02_a.png,stimuli/lamp_light_02_b.png,1,17,57,31,"[0, 1]",right,1,87,25,f,y,y,2019_Jul_12_1425,2AFC_task,59.982425153518186,
stimuli/lamp_bump_05_a.png,stimuli/lamp_bump_05_b.png,1,18,58,24,"[0, 1]",right,1,87,25,f,y,y,2019_Jul_12_1425,2AFC_task,59.982425153518186,
stimuli/lamp_light_01_a.png,stimuli/lamp_light_01_b.png,1,19,59,30,"[0, 1]",right,1,87,25,f,y,y,2019_Jul_12_1425,2AFC_task,59.982425153518186,
stimuli/hdri_bump_08_a.png,stimuli/hdri_bump_08_b.png,1,20,60,7,"[1, 0]",left,1,87,25,f,y,y,2019_Jul_12_1425,2AFC_task,59.982425153518186,
stimuli/hdri_bump_06_a.png,stimuli/hdri_bump_06_b.png,1,21,61,5,"[0, 1]",left,0,87,25,f,y,y,2019_Jul_12_1425,2AFC_task,59.982425153518186,
stimuli/hdri_light_07_a.png,stimuli/hdri_light_07_b.png,1,22,62,16,"[1, 0]",left,1,87,25,f,y,y,2019_Jul_12_1425,2AFC_task,59.982425153518186,
stimuli/lamp_light_04_a.png,stimuli/lamp_light_04_b.png,1,23,63,33,"[0, 1]",right,1,87,25,f,y,y,2019_Jul_12_1425,2AFC_task,59.982425153518186,
stimuli/hdri_bump_09_a.png,stimuli/hdri_bump_09_b.png,1,24,64,8,"[1, 0]",left,1,87,25,f,y,y,2019_Jul_12_1425,2AFC_task,59.982425153518186,
stimuli/hdri_light_10_a.png,stimuli/hdri_light_10_b.png,1,25,65,19,"[1, 0]",left,1,87,25,f,y,y,2019_Jul_12_1425,2AFC_task,59.982425153518186,
stimuli/lamp_light_05_a.png,stimuli/lamp_light_05_b.png,1,26,66,34,"[0, 1]",right,1,87,25,f,y,y,2019_Jul_12_1425,2AFC_task,59.982425153518186,
stimuli/hdri_light_09_a.png,stimuli/hdri_light_09_b.png,1,27,67,18,"[1, 0]",right,0,87,25,f,y,y,2019_Jul_12_1425,2AFC_task,59.982425153518186,
stimuli/lamp_bump_02_a.png,stimuli/lamp_bump_02_b.png,1,28,68,21,"[0, 1]",left,0,87,25,f,y,y,2019_Jul_12_1425,2AFC_task,59.982425153518186,
stimuli/lamp_light_06_a.png,stimuli/lamp_light_06_b.png,1,29,69,35,"[1, 0]",left,1,87,25,f,y,y,2019_Jul_12_1425,2AFC_task,59.982425153518186,
stimuli/lamp_light_03_a.png,stimuli/lamp_light_03_b.png,1,30,70,32,"[1, 0]",left,1,87,25,f,y,y,2019_Jul_12_1425,2AFC_task,59.982425153518186,
stimuli/lamp_bump_07_a.png,stimuli/lamp_bump_07_b.png,1,31,71,26,"[0, 1]",left,0,87,25,f,y,y,2019_Jul_12_1425,2AFC_task,59.982425153518186,
stimuli/hdri_light_01_a.png,stimuli/hdri_light_01_b.png,1,32,72,10,"[1, 0]",right,0,87,25,f,y,y,2019_Jul_12_1425,2AFC_task,59.982425153518186,
stimuli/lamp_bump_06_a.png,stimuli/lamp_bump_06_b.png,1,33,73,25,"[0, 1]",left,0,87,25,f,y,y,2019_Jul_12_1425,2AFC_task,59.982425153518186,
stimuli/lamp_light_07_a.png,stimuli/lamp_light_07_b.png,1,34,74,36,"[1, 0]",left,1,87,25,f,y,y,2019_Jul_12_1425,2AFC_task,59.982425153518186,
stimuli/lamp_bump_03_a.png,stimuli/lamp_bump_03_b.png,1,35,75,22,"[1, 0]",left,1,87,25,f,y,y,2019_Jul_12_1425,2AFC_task,59.982425153518186,
stimuli/hdri_bump_02_a.png,stimuli/hdri_bump_02_b.png,1,36,76,1,"[0, 1]",right,1,87,25,f,y,y,2019_Jul_12_1425,2AFC_task,59.982425153518186,
stimuli/hdri_bump_07_a.png,stimuli/hdri_bump_07_b.png,1,37,77,6,"[1, 0]",left,1,87,25,f,y,y,2019_Jul_12_1425,2AFC_task,59.982425153518186,
stimuli/hdri_bump_10_a.png,stimuli/hdri_bump_10_b.png,1,38,78,9,"[1, 0]",left,1,87,25,f,y,y,2019_Jul_12_1425,2AFC_task,59.982425153518186,
stimuli/hdri_light_05_a.png,stimuli/hdri_light_05_b.png,1,39,79,14,"[1, 0]",right,0,87,25,f,y,y,2019_Jul_12_1425,2AFC_task,59.982425153518186,
stimuli/lamp_bump_03_a.png,stimuli/lamp_bump_03_b.png,2,0,80,22,"[1, 0]",left,1,87,25,f,y,y,2019_Jul_12_1425,2AFC_task,59.982425153518186,
stimuli/hdri_bump_10_a.png,stimuli/hdri_bump_10_b.png,2,1,81,9,"[0, 1]",right,1,87,25,f,y,y,2019_Jul_12_1425,2AFC_task,59.982425153518186,
stimuli/lamp_bump_05_a.png,stimuli/lamp_bump_05_b.png,2,2,82,24,"[0, 1]",right,1,87,25,f,y,y,2019_Jul_12_1425,2AFC_task,59.982425153518186,
stimuli/lamp_light_09_a.png,stimuli/lamp_light_09_b.png,2,3,83,38,"[0, 1]",right,1,87,25,f,y,y,2019_Jul_12_1425,2AFC_task,59.982425153518186,
stimuli/lamp_light_07_a.png,stimuli/lamp_light_07_b.png,2,4,84,36,"[0, 1]",right,1,87,25,f,y,y,2019_Jul_12_1425,2AFC_task,59.982425153518186,
stimuli/hdri_light_03_a.png,stimuli/hdri_light_03_b.png,2,5,85,12,"[1, 0]",right,0,87,25,f,y,y,2019_Jul_12_1425,2AFC_task,59.982425153518186,
stimuli/lamp_bump_10_a.png,stimuli/lamp_bump_10_b.png,2,6,86,29,"[1, 0]",left,1,87,25,f,y,y,2019_Jul_12_1425,2AFC_task,59.982425153518186,
stimuli/hdri_bump_07_a.png,stimuli/hdri_bump_07_b.png,2,7,87,6,"[1, 0]",left,1,87,25,f,y,y,2019_Jul_12_1425,2AFC_task,59.982425153518186,
stimuli/hdri_light_02_a.png,stimuli/hdri_light_02_b.png,2,8,88,11,"[1, 0]",right,0,87,25,f,y,y,2019_Jul_12_1425,2AFC_task,59.982425153518186,
stimuli/lamp_bump_06_a.png,stimuli/lamp_bump_06_b.png,2,9,89,25,"[1, 0]",right,0,87,25,f,y,y,2019_Jul_12_1425,2AFC_task,59.982425153518186,
stimuli/lamp_light_10_a.png,stimuli/lamp_light_10_b.png,2,10,90,39,"[1, 0]",left,1,87,25,f,y,y,2019_Jul_12_1425,2AFC_task,59.982425153518186,
stimuli/hdri_bump_06_a.png,stimuli/hdri_bump_06_b.png,2,11,91,5,"[1, 0]",right,0,87,25,f,y,y,2019_Jul_12_1425,2AFC_task,59.982425153518186,
stimuli/lamp_light_06_a.png,stimuli/lamp_light_06_b.png,2,12,92,35,"[1, 0]",left,1,87,25,f,y,y,2019_Jul_12_1425,2AFC_task,59.982425153518186,
stimuli/hdri_bump_08_a.png,stimuli/hdri_bump_08_b.png,2,13,93,7,"[1, 0]",left,1,87,25,f,y,y,2019_Jul_12_1425,2AFC_task,59.982425153518186,
stimuli/hdri_light_09_a.png,stimuli/hdri_light_09_b.png,2,14,94,18,"[0, 1]",left,0,87,25,f,y,y,2019_Jul_12_1425,2AFC_task,59.982425153518186,
stimuli/lamp_bump_09_a.png,stimuli/lamp_bump_09_b.png,2,15,95,28,"[0, 1]",left,0,87,25,f,y,y,2019_Jul_12_1425,2AFC_task,59.982425153518186,
stimuli/lamp_light_05_a.png,stimuli/lamp_light_05_b.png,2,16,96,34,"[0, 1]",right,1,87,25,f,y,y,2019_Jul_12_1425,2AFC_task,59.982425153518186,
stimuli/lamp_light_08_a.png,stimuli/lamp_light_08_b.png,2,17,97,37,"[0, 1]",right,1,87,25,f,y,y,2019_Jul_12_1425,2AFC_task,59.982425153518186,
stimuli/hdri_bump_05_a.png,stimuli/hdri_bump_05_b.png,2,18,98,4,"[1, 0]",left,1,87,25,f,y,y,2019_Jul_12_1425,2AFC_task,59.982425153518186,
stimuli/lamp_bump_01_a.png,stimuli/lamp_bump_01_b.png,2,19,99,20,"[0, 1]",left,0,87,25,f,y,y,2019_Jul_12_1425,2AFC_task,59.982425153518186,
stimuli/hdri_light_06_a.png,stimuli/hdri_light_06_b.png,2,20,100,15,"[1, 0]",right,0,87,25,f,y,y,2019_Jul_12_1425,2AFC_task,59.982425153518186,
stimuli/hdri_light_08_a.png,stimuli/hdri_light_08_b.png,2,21,101,17,"[1, 0]",left,1,87,25,f,y,y,2019_Jul_12_1425,2AFC_task,59.982425153518186,
stimuli/hdri_light_04_a.png,stimuli/hdri_light_04_b.png,2,22,102,13,"[0, 1]",left,0,87,25,f,y,y,2019_Jul_12_1425,2AFC_task,59.982425153518186,
stimuli/lamp_light_04_a.png,stimuli/lamp_light_04_b.png,2,23,103,33,"[1, 0]",left,1,87,25,f,y,y,2019_Jul_12_1425,2AFC_task,59.982425153518186,
stimuli/hdri_light_05_a.png,stimuli/hdri_light_05_b.png,2,24,104,14,"[1, 0]",right,0,87,25,f,y,y,2019_Jul_12_1425,2AFC_task,59.982425153518186,
stimuli/hdri_light_01_a.png,stimuli/hdri_light_01_b.png,2,25,105,10,"[1, 0]",right,0,87,25,f,y,y,2019_Jul_12_1425,2AFC_task,59.982425153518186,
stimuli/lamp_light_03_a.png,stimuli/lamp_light_03_b.png,2,26,106,32,"[1, 0]",left,1,87,25,f,y,y,2019_Jul_12_1425,2AFC_task,59.982425153518186,
stimuli/lamp_bump_04_a.png,stimuli/lamp_bump_04_b.png,2,27,107,23,"[1, 0]",right,0,87,25,f,y,y,2019_Jul_12_1425,2AFC_task,59.982425153518186,
stimuli/hdri_bump_01_a.png,stimuli/hdri_bump_01_b.png,2,28,108,0,"[1, 0]",left,1,87,25,f,y,y,2019_Jul_12_1425,2AFC_task,59.982425153518186,
stimuli/lamp_light_02_a.png,stimuli/lamp_light_02_b.png,2,29,109,31,"[1, 0]",left,1,87,25,f,y,y,2019_Jul_12_1425,2AFC_task,59.982425153518186,
stimuli/hdri_bump_04_a.png,stimuli/hdri_bump_04_b.png,2,30,110,3,"[1, 0]",left,1,87,25,f,y,y,2019_Jul_12_1425,2AFC_task,59.982425153518186,
stimuli/hdri_light_07_a.png,stimuli/hdri_light_07_b.png,2,31,111,16,"[0, 1]",right,1,87,25,f,y,y,2019_Jul_12_1425,2AFC_task,59.982425153518186,
stimuli/lamp_bump_08_a.png,stimuli/lamp_bump_08_b.png,2,32,112,27,"[1, 0]",right,0,87,25,f,y,y,2019_Jul_12_1425,2AFC_task,59.982425153518186,
stimuli/hdri_bump_02_a.png,stimuli/hdri_bump_02_b.png,2,33,113,1,"[0, 1]",right,1,87,25,f,y,y,2019_Jul_12_1425,2AFC_task,59.982425153518186,
stimuli/lamp_light_01_a.png,stimuli/lamp_light_01_b.png,2,34,114,30,"[1, 0]",left,1,87,25,f,y,y,2019_Jul_12_1425,2AFC_task,59.982425153518186,
stimuli/lamp_bump_02_a.png,stimuli/lamp_bump_02_b.png,2,35,115,21,"[0, 1]",left,0,87,25,f,y,y,2019_Jul_12_1425,2AFC_task,59.982425153518186,
stimuli/hdri_light_10_a.png,stimuli/hdri_light_10_b.png,2,36,116,19,"[1, 0]",left,1,87,25,f,y,y,2019_Jul_12_1425,2AFC_task,59.982425153518186,
stimuli/hdri_bump_03_a.png,stimuli/hdri_bump_03_b.png,2,37,117,2,"[1, 0]",left,1,87,25,f,y,y,2019_Jul_12_1425,2AFC_task,59.982425153518186,
stimuli/lamp_bump_07_a.png,stimuli/lamp_bump_07_b.png,2,38,118,26,"[1, 0]",right,0,87,25,f,y,y,2019_Jul_12_1425,2AFC_task,59.982425153518186,
stimuli/hdri_bump_09_a.png,stimuli/hdri_bump_09_b.png,2,39,119,8,"[0, 1]",right,1,87,25,f,y,y,2019_Jul_12_1425,2AFC_task,59.982425153518186,
stimuli/hdri_bump_10_a.png,stimuli/hdri_bump_10_b.png,3,0,120,9,"[0, 1]",right,1,87,25,f,y,y,2019_Jul_12_1425,2AFC_task,59.982425153518186,
stimuli/hdri_bump_01_a.png,stimuli/hdri_bump_01_b.png,3,1,121,0,"[0, 1]",right,1,87,25,f,y,y,2019_Jul_12_1425,2AFC_task,59.982425153518186,
stimuli/hdri_bump_02_a.png,stimuli/hdri_bump_02_b.png,3,2,122,1,"[0, 1]",right,1,87,25,f,y,y,2019_Jul_12_1425,2AFC_task,59.982425153518186,
stimuli/hdri_light_01_a.png,stimuli/hdri_light_01_b.png,3,3,123,10,"[0, 1]",left,0,87,25,f,y,y,2019_Jul_12_1425,2AFC_task,59.982425153518186,
stimuli/lamp_light_07_a.png,stimuli/lamp_light_07_b.png,3,4,124,36,"[1, 0]",left,1,87,25,f,y,y,2019_Jul_12_1425,2AFC_task,59.982425153518186,
stimuli/hdri_bump_09_a.png,stimuli/hdri_bump_09_b.png,3,5,125,8,"[1, 0]",left,1,87,25,f,y,y,2019_Jul_12_1425,2AFC_task,59.982425153518186,
stimuli/hdri_bump_06_a.png,stimuli/hdri_bump_06_b.png,3,6,126,5,"[0, 1]",left,0,87,25,f,y,y,2019_Jul_12_1425,2AFC_task,59.982425153518186,
stimuli/hdri_bump_08_a.png,stimuli/hdri_bump_08_b.png,3,7,127,7,"[1, 0]",right,0,87,25,f,y,y,2019_Jul_12_1425,2AFC_task,59.982425153518186,
stimuli/hdri_bump_04_a.png,stimuli/hdri_bump_04_b.png,3,8,128,3,"[1, 0]",left,1,87,25,f,y,y,2019_Jul_12_1425,2AFC_task,59.982425153518186,
stimuli/lamp_light_08_a.png,stimuli/lamp_light_08_b.png,3,9,129,37,"[0, 1]",right,1,87,25,f,y,y,2019_Jul_12_1425,2AFC_task,59.982425153518186,
stimuli/hdri_bump_05_a.png,stimuli/hdri_bump_05_b.png,3,10,130,4,"[0, 1]",right,1,87,25,f,y,y,2019_Jul_12_1425,2AFC_task,59.982425153518186,
stimuli/lamp_bump_01_a.png,stimuli/lamp_bump_01_b.png,3,11,131,20,"[1, 0]",right,0,87,25,f,y,y,2019_Jul_12_1425,2AFC_task,59.982425153518186,
stimuli/lamp_bump_02_a.png,stimuli/lamp_bump_02_b.png,3,12,132,21,"[0, 1]",left,0,87,25,f,y,y,2019_Jul_12_1425,2AFC_task,59.982425153518186,
stimuli/lamp_bump_03_a.png,stimuli/lamp_bump_03_b.png,3,13,133,22,"[0, 1]",right,1,87,25,f,y,y,2019_Jul_12_1425,2AFC_task,59.982425153518186,
stimuli/lamp_bump_07_a.png,stimuli/lamp_bump_07_b.png,3,14,134,26,"[1, 0]",right,0,87,25,f,y,y,2019_Jul_12_1425,2AFC_task,59.982425153518186,
stimuli/lamp_light_03_a.png,stimuli/lamp_light_03_b.png,3,15,135,32,"[0, 1]",right,1,87,25,f,y,y,2019_Jul_12_1425,2AFC_task,59.982425153518186,
stimuli/lamp_bump_09_a.png,stimuli/lamp_bump_09_b.png,3,16,136,28,"[0, 1]",left,0,87,25,f,y,y,2019_Jul_12_1425,2AFC_task,59.982425153518186,
stimuli/lamp_bump_04_a.png,stimuli/lamp_bump_04_b.png,3,17,137,23,"[0, 1]",left,0,87,25,f,y,y,2019_Jul_12_1425,2AFC_task,59.982425153518186,
stimuli/lamp_bump_10_a.png,stimuli/lamp_bump_10_b.png,3,18,138,29,"[1, 0]",left,1,87,25,f,y,y,2019_Jul_12_1425,2AFC_task,59.982425153518186,
stimuli/hdri_light_03_a.png,stimuli/hdri_light_03_b.png,3,19,139,12,"[1, 0]",right,0,87,25,f,y,y,2019_Jul_12_1425,2AFC_task,59.982425153518186,
stimuli/hdri_light_05_a.png,stimuli/hdri_light_05_b.png,3,20,140,14,"[1, 0]",right,0,87,25,f,y,y,2019_Jul_12_1425,2AFC_task,59.982425153518186,
stimuli/lamp_light_06_a.png,stimuli/lamp_light_06_b.png,3,21,141,35,"[1, 0]",left,1,87,25,f,y,y,2019_Jul_12_1425,2AFC_task,59.982425153518186,
stimuli/hdri_light_06_a.png,stimuli/hdri_light_06_b.png,3,22,142,15,"[1, 0]",right,0,87,25,f,y,y,2019_Jul_12_1425,2AFC_task,59.982425153518186,
stimuli/lamp_light_01_a.png,stimuli/lamp_light_01_b.png,3,23,143,30,"[1, 0]",left,1,87,25,f,y,y,2019_Jul_12_1425,2AFC_task,59.982425153518186,
stimuli/lamp_light_05_a.png,stimuli/lamp_light_05_b.png,3,24,144,34,"[1, 0]",left,1,87,25,f,y,y,2019_Jul_12_1425,2AFC_task,59.982425153518186,
stimuli/hdri_light_02_a.png,stimuli/hdri_light_02_b.png,3,25,145,11,"[0, 1]",left,0,87,25,f,y,y,2019_Jul_12_1425,2AFC_task,59.982425153518186,
stimuli/lamp_bump_08_a.png,stimuli/lamp_bump_08_b.png,3,26,146,27,"[1, 0]",right,0,87,25,f,y,y,2019_Jul_12_1425,2AFC_task,59.982425153518186,
stimuli/lamp_light_04_a.png,stimuli/lamp_light_04_b.png,3,27,147,33,"[1, 0]",left,1,87,25,f,y,y,2019_Jul_12_1425,2AFC_task,59.982425153518186,
stimuli/lamp_light_09_a.png,stimuli/lamp_light_09_b.png,3,28,148,38,"[0, 1]",right,1,87,25,f,y,y,2019_Jul_12_1425,2AFC_task,59.982425153518186,
stimuli/hdri_light_08_a.png,stimuli/hdri_light_08_b.png,3,29,149,17,"[0, 1]",right,1,87,25,f,y,y,2019_Jul_12_1425,2AFC_task,59.982425153518186,
stimuli/hdri_bump_07_a.png,stimuli/hdri_bump_07_b.png,3,30,150,6,"[1, 0]",left,1,87,25,f,y,y,2019_Jul_12_1425,2AFC_task,59.982425153518186,
stimuli/hdri_light_10_a.png,stimuli/hdri_light_10_b.png,3,31,151,19,"[1, 0]",left,1,87,25,f,y,y,2019_Jul_12_1425,2AFC_task,59.982425153518186,
stimuli/hdri_light_04_a.png,stimuli/hdri_light_04_b.png,3,32,152,13,"[0, 1]",left,0,87,25,f,y,y,2019_Jul_12_1425,2AFC_task,59.982425153518186,
stimuli/lamp_light_10_a.png,stimuli/lamp_light_10_b.png,3,33,153,39,"[1, 0]",left,1,87,25,f,y,y,2019_Jul_12_1425,2AFC_task,59.982425153518186,
stimuli/hdri_light_07_a.png,stimuli/hdri_light_07_b.png,3,34,154,16,"[1, 0]",left,1,87,25,f,y,y,2019_Jul_12_1425,2AFC_task,59.982425153518186,
stimuli/lamp_light_02_a.png,stimuli/lamp_light_02_b.png,3,35,155,31,"[1, 0]",right,0,87,25,f,y,y,2019_Jul_12_1425,2AFC_task,59.982425153518186,
stimuli/hdri_light_09_a.png,stimuli/hdri_light_09_b.png,3,36,156,18,"[1, 0]",right,0,87,25,f,y,y,2019_Jul_12_1425,2AFC_task,59.982425153518186,
stimuli/lamp_bump_06_a.png,stimuli/lamp_bump_06_b.png,3,37,157,25,"[0, 1]",left,0,87,25,f,y,y,2019_Jul_12_1425,2AFC_task,59.982425153518186,
stimuli/lamp_bump_05_a.png,stimuli/lamp_bump_05_b.png,3,38,158,24,"[1, 0]",left,1,87,25,f,y,y,2019_Jul_12_1425,2AFC_task,59.982425153518186,
stimuli/hdri_bump_03_a.png,stimuli/hdri_bump_03_b.png,3,39,159,2,"[0, 1]",right,1,87,25,f,y,y,2019_Jul_12_1425,2AFC_task,59.982425153518186,
stimuli/lamp_bump_08_a.png,stimuli/lamp_bump_08_b.png,4,0,160,27,"[1, 0]",right,0,87,25,f,y,y,2019_Jul_12_1425,2AFC_task,59.982425153518186,
stimuli/hdri_bump_08_a.png,stimuli/hdri_bump_08_b.png,4,1,161,7,"[0, 1]",right,1,87,25,f,y,y,2019_Jul_12_1425,2AFC_task,59.982425153518186,
stimuli/hdri_bump_05_a.png,stimuli/hdri_bump_05_b.png,4,2,162,4,"[1, 0]",left,1,87,25,f,y,y,2019_Jul_12_1425,2AFC_task,59.982425153518186,
stimuli/lamp_bump_10_a.png,stimuli/lamp_bump_10_b.png,4,3,163,29,"[1, 0]",left,1,87,25,f,y,y,2019_Jul_12_1425,2AFC_task,59.982425153518186,
stimuli/lamp_bump_04_a.png,stimuli/lamp_bump_04_b.png,4,4,164,23,"[1, 0]",right,0,87,25,f,y,y,2019_Jul_12_1425,2AFC_task,59.982425153518186,
stimuli/lamp_light_02_a.png,stimuli/lamp_light_02_b.png,4,5,165,31,"[1, 0]",right,0,87,25,f,y,y,2019_Jul_12_1425,2AFC_task,59.982425153518186,
stimuli/lamp_light_09_a.png,stimuli/lamp_light_09_b.png,4,6,166,38,"[0, 1]",right,1,87,25,f,y,y,2019_Jul_12_1425,2AFC_task,59.982425153518186,
stimuli/lamp_bump_07_a.png,stimuli/lamp_bump_07_b.png,4,7,167,26,"[1, 0]",right,0,87,25,f,y,y,2019_Jul_12_1425,2AFC_task,59.982425153518186,
stimuli/hdri_bump_09_a.png,stimuli/hdri_bump_09_b.png,4,8,168,8,"[1, 0]",left,1,87,25,f,y,y,2019_Jul_12_1425,2AFC_task,59.982425153518186,
stimuli/hdri_light_03_a.png,stimuli/hdri_light_03_b.png,4,9,169,12,"[1, 0]",right,0,87,25,f,y,y,2019_Jul_12_1425,2AFC_task,59.982425153518186,
stimuli/hdri_light_04_a.png,stimuli/hdri_light_04_b.png,4,10,170,13,"[0, 1]",left,0,87,25,f,y,y,2019_Jul_12_1425,2AFC_task,59.982425153518186,
stimuli/lamp_light_08_a.png,stimuli/lamp_light_08_b.png,4,11,171,37,"[1, 0]",left,1,87,25,f,y,y,2019_Jul_12_1425,2AFC_task,59.982425153518186,
stimuli/lamp_light_01_a.png,stimuli/lamp_light_01_b.png,4,12,172,30,"[1, 0]",left,1,87,25,f,y,y,2019_Jul_12_1425,2AFC_task,59.982425153518186,
stimuli/hdri_light_02_a.png,stimuli/hdri_light_02_b.png,4,13,173,11,"[0, 1]",left,0,87,25,f,y,y,2019_Jul_12_1425,2AFC_task,59.982425153518186,
stimuli/hdri_bump_02_a.png,stimuli/hdri_bump_02_b.png,4,14,174,1,"[1, 0]",left,1,87,25,f,y,y,2019_Jul_12_1425,2AFC_task,59.982425153518186,
stimuli/lamp_bump_06_a.png,stimuli/lamp_bump_06_b.png,4,15,175,25,"[0, 1]",left,0,87,25,f,y,y,2019_Jul_12_1425,2AFC_task,59.982425153518186,
stimuli/lamp_light_03_a.png,stimuli/lamp_light_03_b.png,4,16,176,32,"[0, 1]",right,1,87,25,f,y,y,2019_Jul_12_1425,2AFC_task,59.982425153518186,
stimuli/lamp_light_06_a.png,stimuli/lamp_light_06_b.png,4,17,177,35,"[0, 1]",right,1,87,25,f,y,y,2019_Jul_12_1425,2AFC_task,59.982425153518186,
stimuli/lamp_bump_03_a.png,stimuli/lamp_bump_03_b.png,4,18,178,22,"[0, 1]",right,1,87,25,f,y,y,2019_Jul_12_1425,2AFC_task,59.982425153518186,
stimuli/hdri_light_10_a.png,stimuli/hdri_light_10_b.png,4,19,179,19,"[1, 0]",left,1,87,25,f,y,y,2019_Jul_12_1425,2AFC_task,59.982425153518186,
stimuli/hdri_bump_06_a.png,stimuli/hdri_bump_06_b.png,4,20,180,5,"[0, 1]",right,1,87,25,f,y,y,2019_Jul_12_1425,2AFC_task,59.982425153518186,
stimuli/hdri_light_08_a.png,stimuli/hdri_light_08_b.png,4,21,181,17,"[1, 0]",left,1,87,25,f,y,y,2019_Jul_12_1425,2AFC_task,59.982425153518186,
stimuli/lamp_bump_05_a.png,stimuli/lamp_bump_05_b.png,4,22,182,24,"[1, 0]",left,1,87,25,f,y,y,2019_Jul_12_1425,2AFC_task,59.982425153518186,
stimuli/lamp_light_04_a.png,stimuli/lamp_light_04_b.png,4,23,183,33,"[0, 1]",right,1,87,25,f,y,y,2019_Jul_12_1425,2AFC_task,59.982425153518186,
stimuli/hdri_light_06_a.png,stimuli/hdri_light_06_b.png,4,24,184,15,"[0, 1]",left,0,87,25,f,y,y,2019_Jul_12_1425,2AFC_task,59.982425153518186,
stimuli/hdri_bump_01_a.png,stimuli/hdri_bump_01_b.png,4,25,185,0,"[1, 0]",left,1,87,25,f,y,y,2019_Jul_12_1425,2AFC_task,59.982425153518186,
stimuli/lamp_bump_09_a.png,stimuli/lamp_bump_09_b.png,4,26,186,28,"[0, 1]",left,0,87,25,f,y,y,2019_Jul_12_1425,2AFC_task,59.982425153518186,
stimuli/hdri_bump_07_a.png,stimuli/hdri_bump_07_b.png,4,27,187,6,"[1, 0]",left,1,87,25,f,y,y,2019_Jul_12_1425,2AFC_task,59.982425153518186,
stimuli/hdri_bump_10_a.png,stimuli/hdri_bump_10_b.png,4,28,188,9,"[1, 0]",left,1,87,25,f,y,y,2019_Jul_12_1425,2AFC_task,59.982425153518186,
stimuli/hdri_bump_04_a.png,stimuli/hdri_bump_04_b.png,4,29,189,3,"[0, 1]",right,1,87,25,f,y,y,2019_Jul_12_1425,2AFC_task,59.982425153518186,
stimuli/hdri_bump_03_a.png,stimuli/hdri_bump_03_b.png,4,30,190,2,"[1, 0]",right,0,87,25,f,y,y,2019_Jul_12_1425,2AFC_task,59.982425153518186,
stimuli/lamp_bump_02_a.png,stimuli/lamp_bump_02_b.png,4,31,191,21,"[0, 1]",left,0,87,25,f,y,y,2019_Jul_12_1425,2AFC_task,59.982425153518186,
stimuli/hdri_light_01_a.png,stimuli/hdri_light_01_b.png,4,32,192,10,"[0, 1]",left,0,87,25,f,y,y,2019_Jul_12_1425,2AFC_task,59.982425153518186,
stimuli/lamp_light_07_a.png,stimuli/lamp_light_07_b.png,4,33,193,36,"[0, 1]",right,1,87,25,f,y,y,2019_Jul_12_1425,2AFC_task,59.982425153518186,
stimuli/lamp_bump_01_a.png,stimuli/lamp_bump_01_b.png,4,34,194,20,"[1, 0]",right,0,87,25,f,y,y,2019_Jul_12_1425,2AFC_task,59.982425153518186,
stimuli/lamp_light_10_a.png,stimuli/lamp_light_10_b.png,4,35,195,39,"[0, 1]",right,1,87,25,f,y,y,2019_Jul_12_1425,2AFC_task,59.982425153518186,
stimuli/hdri_light_07_a.png,stimuli/hdri_light_07_b.png,4,36,196,16,"[0, 1]",left,0,87,25,f,y,y,2019_Jul_12_1425,2AFC_task,59.982425153518186,
stimuli/lamp_light_05_a.png,stimuli/lamp_light_05_b.png,4,37,197,34,"[1, 0]",left,1,87,25,f,y,y,2019_Jul_12_1425,2AFC_task,59.982425153518186,
stimuli/hdri_light_09_a.png,stimuli/hdri_light_09_b.png,4,38,198,18,"[0, 1]",left,0,87,25,f,y,y,2019_Jul_12_1425,2AFC_task,59.982425153518186,
stimuli/hdri_light_05_a.png,stimuli/hdri_light_05_b.png,4,39,199,14,"[0, 1]",left,0,87,25,f,y,y,2019_Jul_12_1425,2AFC_task,59.982425153518186,
stimuli/hdri_light_09_a.png,stimuli/hdri_light_09_b.png,5,0,200,18,"[1, 0]",right,0,87,25,f,y,y,2019_Jul_12_1425,2AFC_task,59.982425153518186,
stimuli/lamp_light_02_a.png,stimuli/lamp_light_02_b.png,5,1,201,31,"[1, 0]",right,0,87,25,f,y,y,2019_Jul_12_1425,2AFC_task,59.982425153518186,
stimuli/hdri_bump_08_a.png,stimuli/hdri_bump_08_b.png,5,2,202,7,"[1, 0]",left,1,87,25,f,y,y,2019_Jul_12_1425,2AFC_task,59.982425153518186,
stimuli/lamp_bump_05_a.png,stimuli/lamp_bump_05_b.png,5,3,203,24,"[1, 0]",left,1,87,25,f,y,y,2019_Jul_12_1425,2AFC_task,59.982425153518186,
stimuli/hdri_bump_03_a.png,stimuli/hdri_bump_03_b.png,5,4,204,2,"[1, 0]",left,1,87,25,f,y,y,2019_Jul_12_1425,2AFC_task,59.982425153518186,
stimuli/lamp_light_06_a.png,stimuli/lamp_light_06_b.png,5,5,205,35,"[0, 1]",left,0,87,25,f,y,y,2019_Jul_12_1425,2AFC_task,59.982425153518186,
stimuli/hdri_light_03_a.png,stimuli/hdri_light_03_b.png,5,6,206,12,"[1, 0]",right,0,87,25,f,y,y,2019_Jul_12_1425,2AFC_task,59.982425153518186,
stimuli/hdri_bump_10_a.png,stimuli/hdri_bump_10_b.png,5,7,207,9,"[1, 0]",left,1,87,25,f,y,y,2019_Jul_12_1425,2AFC_task,59.982425153518186,
stimuli/lamp_light_03_a.png,stimuli/lamp_light_03_b.png,5,8,208,32,"[1, 0]",left,1,87,25,f,y,y,2019_Jul_12_1425,2AFC_task,59.982425153518186,
stimuli/hdri_light_06_a.png,stimuli/hdri_light_06_b.png,5,9,209,15,"[0, 1]",left,0,87,25,f,y,y,2019_Jul_12_1425,2AFC_task,59.982425153518186,
stimuli/lamp_light_04_a.png,stimuli/lamp_light_04_b.png,5,10,210,33,"[0, 1]",right,1,87,25,f,y,y,2019_Jul_12_1425,2AFC_task,59.982425153518186,
stimuli/hdri_light_02_a.png,stimuli/hdri_light_02_b.png,5,11,211,11,"[0, 1]",left,0,87,25,f,y,y,2019_Jul_12_1425,2AFC_task,59.982425153518186,
stimuli/hdri_bump_02_a.png,stimuli/hdri_bump_02_b.png,5,12,212,1,"[0, 1]",right,1,87,25,f,y,y,2019_Jul_12_1425,2AFC_task,59.982425153518186,
stimuli/lamp_light_08_a.png,stimuli/lamp_light_08_b.png,5,13,213,37,"[1, 0]",left,1,87,25,f,y,y,2019_Jul_12_1425,2AFC_task,59.982425153518186,
stimuli/lamp_bump_03_a.png,stimuli/lamp_bump_03_b.png,5,14,214,22,"[0, 1]",right,1,87,25,f,y,y,2019_Jul_12_1425,2AFC_task,59.982425153518186,
stimuli/lamp_bump_07_a.png,stimuli/lamp_bump_07_b.png,5,15,215,26,"[0, 1]",left,0,87,25,f,y,y,2019_Jul_12_1425,2AFC_task,59.982425153518186,
stimuli/lamp_bump_09_a.png,stimuli/lamp_bump_09_b.png,5,16,216,28,"[0, 1]",left,0,87,25,f,y,y,2019_Jul_12_1425,2AFC_task,59.982425153518186,
stimuli/hdri_light_05_a.png,stimuli/hdri_light_05_b.png,5,17,217,14,"[0, 1]",left,0,87,25,f,y,y,2019_Jul_12_1425,2AFC_task,59.982425153518186,
stimuli/lamp_bump_04_a.png,stimuli/lamp_bump_04_b.png,5,18,218,23,"[1, 0]",right,0,87,25,f,y,y,2019_Jul_12_1425,2AFC_task,59.982425153518186,
stimuli/hdri_light_08_a.png,stimuli/hdri_light_08_b.png,5,19,219,17,"[1, 0]",left,1,87,25,f,y,y,2019_Jul_12_1425,2AFC_task,59.982425153518186,
stimuli/hdri_bump_06_a.png,stimuli/hdri_bump_06_b.png,5,20,220,5,"[1, 0]",left,1,87,25,f,y,y,2019_Jul_12_1425,2AFC_task,59.982425153518186,
stimuli/lamp_bump_01_a.png,stimuli/lamp_bump_01_b.png,5,21,221,20,"[0, 1]",left,0,87,25,f,y,y,2019_Jul_12_1425,2AFC_task,59.982425153518186,
stimuli/lamp_light_10_a.png,stimuli/lamp_light_10_b.png,5,22,222,39,"[1, 0]",left,1,87,25,f,y,y,2019_Jul_12_1425,2AFC_task,59.982425153518186,
stimuli/hdri_bump_01_a.png,stimuli/hdri_bump_01_b.png,5,23,223,0,"[0, 1]",right,1,87,25,f,y,y,2019_Jul_12_1425,2AFC_task,59.982425153518186,
stimuli/hdri_bump_09_a.png,stimuli/hdri_bump_09_b.png,5,24,224,8,"[0, 1]",right,1,87,25,f,y,y,2019_Jul_12_1425,2AFC_task,59.982425153518186,
stimuli/hdri_bump_05_a.png,stimuli/hdri_bump_05_b.png,5,25,225,4,"[0, 1]",right,1,87,25,f,y,y,2019_Jul_12_1425,2AFC_task,59.982425153518186,
stimuli/lamp_bump_08_a.png,stimuli/lamp_bump_08_b.png,5,26,226,27,"[1, 0]",right,0,87,25,f,y,y,2019_Jul_12_1425,2AFC_task,59.982425153518186,
stimuli/hdri_bump_04_a.png,stimuli/hdri_bump_04_b.png,5,27,227,3,"[0, 1]",right,1,87,25,f,y,y,2019_Jul_12_1425,2AFC_task,59.982425153518186,
stimuli/lamp_light_07_a.png,stimuli/lamp_light_07_b.png,5,28,228,36,"[1, 0]",left,1,87,25,f,y,y,2019_Jul_12_1425,2AFC_task,59.982425153518186,
stimuli/hdri_bump_07_a.png,stimuli/hdri_bump_07_b.png,5,29,229,6,"[0, 1]",right,1,87,25,f,y,y,2019_Jul_12_1425,2AFC_task,59.982425153518186,
stimuli/lamp_bump_10_a.png,stimuli/lamp_bump_10_b.png,5,30,230,29,"[1, 0]",left,1,87,25,f,y,y,2019_Jul_12_1425,2AFC_task,59.982425153518186,
stimuli/lamp_light_01_a.png,stimuli/lamp_light_01_b.png,5,31,231,30,"[0, 1]",right,1,87,25,f,y,y,2019_Jul_12_1425,2AFC_task,59.982425153518186,
stimuli/lamp_light_09_a.png,stimuli/lamp_light_09_b.png,5,32,232,38,"[1, 0]",left,1,87,25,f,y,y,2019_Jul_12_1425,2AFC_task,59.982425153518186,
stimuli/lamp_bump_02_a.png,stimuli/lamp_bump_02_b.png,5,33,233,21,"[1, 0]",right,0,87,25,f,y,y,2019_Jul_12_1425,2AFC_task,59.982425153518186,
stimuli/lamp_light_05_a.png,stimuli/lamp_light_05_b.png,5,34,234,34,"[0, 1]",right,1,87,25,f,y,y,2019_Jul_12_1425,2AFC_task,59.982425153518186,
stimuli/lamp_bump_06_a.png,stimuli/lamp_bump_06_b.png,5,35,235,25,"[0, 1]",left,0,87,25,f,y,y,2019_Jul_12_1425,2AFC_task,59.982425153518186,
stimuli/hdri_light_10_a.png,stimuli/hdri_light_10_b.png,5,36,236,19,"[1, 0]",left,1,87,25,f,y,y,2019_Jul_12_1425,2AFC_task,59.982425153518186,
stimuli/hdri_light_04_a.png,stimuli/hdri_light_04_b.png,5,37,237,13,"[1, 0]",right,0,87,25,f,y,y,2019_Jul_12_1425,2AFC_task,59.982425153518186,
stimuli/hdri_light_07_a.png,stimuli/hdri_light_07_b.png,5,38,238,16,"[0, 1]",right,1,87,25,f,y,y,2019_Jul_12_1425,2AFC_task,59.982425153518186,
stimuli/hdri_light_01_a.png,stimuli/hdri_light_01_b.png,5,39,239,10,"[1, 0]",right,0,87,25,f,y,y,2019_Jul_12_1425,2AFC_task,59.982425153518186,
stimuli/lamp_light_03_a.png,stimuli/lamp_light_03_b.png,6,0,240,32,"[1, 0]",left,1,87,25,f,y,y,2019_Jul_12_1425,2AFC_task,59.982425153518186,
stimuli/hdri_bump_05_a.png,stimuli/hdri_bump_05_b.png,6,1,241,4,"[1, 0]",left,1,87,25,f,y,y,2019_Jul_12_1425,2AFC_task,59.982425153518186,
stimuli/hdri_light_10_a.png,stimuli/hdri_light_10_b.png,6,2,242,19,"[1, 0]",left,1,87,25,f,y,y,2019_Jul_12_1425,2AFC_task,59.982425153518186,
stimuli/hdri_light_09_a.png,stimuli/hdri_light_09_b.png,6,3,243,18,"[1, 0]",right,0,87,25,f,y,y,2019_Jul_12_1425,2AFC_task,59.982425153518186,
stimuli/lamp_bump_05_a.png,stimuli/lamp_bump_05_b.png,6,4,244,24,"[0, 1]",right,1,87,25,f,y,y,2019_Jul_12_1425,2AFC_task,59.982425153518186,
stimuli/lamp_bump_03_a.png,stimuli/lamp_bump_03_b.png,6,5,245,22,"[0, 1]",right,1,87,25,f,y,y,2019_Jul_12_1425,2AFC_task,59.982425153518186,
stimuli/hdri_bump_03_a.png,stimuli/hdri_bump_03_b.png,6,6,246,2,"[1, 0]",left,1,87,25,f,y,y,2019_Jul_12_1425,2AFC_task,59.982425153518186,
stimuli/lamp_light_05_a.png,stimuli/lamp_light_05_b.png,6,7,247,34,"[1, 0]",left,1,87,25,f,y,y,2019_Jul_12_1425,2AFC_task,59.982425153518186,
stimuli/lamp_bump_06_a.png,stimuli/lamp_bump_06_b.png,6,8,248,25,"[0, 1]",left,0,87,25,f,y,y,2019_Jul_12_1425,2AFC_task,59.982425153518186,
stimuli/lamp_light_08_a.png,stimuli/lamp_light_08_b.png,6,9,249,37,"[0, 1]",right,1,87,25,f,y,y,2019_Jul_12_1425,2AFC_task,59.982425153518186,
stimuli/lamp_bump_02_a.png,stimuli/lamp_bump_02_b.png,6,10,250,21,"[0, 1]",left,0,87,25,f,y,y,2019_Jul_12_1425,2AFC_task,59.982425153518186,
stimuli/hdri_bump_09_a.png,stimuli/hdri_bump_09_b.png,6,11,251,8,"[0, 1]",right,1,87,25,f,y,y,2019_Jul_12_1425,2AFC_task,59.982425153518186,
stimuli/lamp_light_06_a.png,stimuli/lamp_light_06_b.png,6,12,252,35,"[0, 1]",right,1,87,25,f,y,y,2019_Jul_12_1425,2AFC_task,59.982425153518186,
stimuli/hdri_bump_07_a.png,stimuli/hdri_bump_07_b.png,6,13,253,6,"[1, 0]",left,1,87,25,f,y,y,2019_Jul_12_1425,2AFC_task,59.982425153518186,
stimuli/lamp_bump_01_a.png,stimuli/lamp_bump_01_b.png,6,14,254,20,"[0, 1]",left,0,87,25,f,y,y,2019_Jul_12_1425,2AFC_task,59.982425153518186,
stimuli/hdri_light_03_a.png,stimuli/hdri_light_03_b.png,6,15,255,12,"[1, 0]",right,0,87,25,f,y,y,2019_Jul_12_1425,2AFC_task,59.982425153518186,
stimuli/hdri_light_01_a.png,stimuli/hdri_light_01_b.png,6,16,256,10,"[0, 1]",left,0,87,25,f,y,y,2019_Jul_12_1425,2AFC_task,59.982425153518186,
stimuli/hdri_light_08_a.png,stimuli/hdri_light_08_b.png,6,17,257,17,"[0, 1]",right,1,87,25,f,y,y,2019_Jul_12_1425,2AFC_task,59.982425153518186,
stimuli/hdri_light_05_a.png,stimuli/hdri_light_05_b.png,6,18,258,14,"[0, 1]",left,0,87,25,f,y,y,2019_Jul_12_1425,2AFC_task,59.982425153518186,
stimuli/hdri_bump_06_a.png,stimuli/hdri_bump_06_b.png,6,19,259,5,"[0, 1]",right,1,87,25,f,y,y,2019_Jul_12_1425,2AFC_task,59.982425153518186,
stimuli/lamp_light_09_a.png,stimuli/lamp_light_09_b.png,6,20,260,38,"[0, 1]",right,1,87,25,f,y,y,2019_Jul_12_1425,2AFC_task,59.982425153518186,
stimuli/hdri_bump_01_a.png,stimuli/hdri_bump_01_b.png,6,21,261,0,"[1, 0]",left,1,87,25,f,y,y,2019_Jul_12_1425,2AFC_task,59.982425153518186,
stimuli/lamp_bump_08_a.png,stimuli/lamp_bump_08_b.png,6,22,262,27,"[1, 0]",right,0,87,25,f,y,y,2019_Jul_12_1425,2AFC_task,59.982425153518186,
stimuli/lamp_bump_07_a.png,stimuli/lamp_bump_07_b.png,6,23,263,26,"[1, 0]",right,0,87,25,f,y,y,2019_Jul_12_1425,2AFC_task,59.982425153518186,
stimuli/hdri_bump_02_a.png,stimuli/hdri_bump_02_b.png,6,24,264,1,"[0, 1]",right,1,87,25,f,y,y,2019_Jul_12_1425,2AFC_task,59.982425153518186,
stimuli/hdri_bump_04_a.png,stimuli/hdri_bump_04_b.png,6,25,265,3,"[1, 0]",left,1,87,25,f,y,y,2019_Jul_12_1425,2AFC_task,59.982425153518186,
stimuli/lamp_bump_10_a.png,stimuli/lamp_bump_10_b.png,6,26,266,29,"[0, 1]",right,1,87,25,f,y,y,2019_Jul_12_1425,2AFC_task,59.982425153518186,
stimuli/lamp_bump_09_a.png,stimuli/lamp_bump_09_b.png,6,27,267,28,"[1, 0]",right,0,87,25,f,y,y,2019_Jul_12_1425,2AFC_task,59.982425153518186,
stimuli/lamp_light_02_a.png,stimuli/lamp_light_02_b.png,6,28,268,31,"[0, 1]",right,1,87,25,f,y,y,2019_Jul_12_1425,2AFC_task,59.982425153518186,
stimuli/lamp_light_07_a.png,stimuli/lamp_light_07_b.png,6,29,269,36,"[1, 0]",left,1,87,25,f,y,y,2019_Jul_12_1425,2AFC_task,59.982425153518186,
stimuli/hdri_bump_08_a.png,stimuli/hdri_bump_08_b.png,6,30,270,7,"[1, 0]",left,1,87,25,f,y,y,2019_Jul_12_1425,2AFC_task,59.982425153518186,
stimuli/lamp_light_04_a.png,stimuli/lamp_light_04_b.png,6,31,271,33,"[1, 0]",left,1,87,25,f,y,y,2019_Jul_12_1425,2AFC_task,59.982425153518186,
stimuli/lamp_light_01_a.png,stimuli/lamp_light_01_b.png,6,32,272,30,"[1, 0]",left,1,87,25,f,y,y,2019_Jul_12_1425,2AFC_task,59.982425153518186,
stimuli/lamp_bump_04_a.png,stimuli/lamp_bump_04_b.png,6,33,273,23,"[0, 1]",left,0,87,25,f,y,y,2019_Jul_12_1425,2AFC_task,59.982425153518186,
stimuli/hdri_light_06_a.png,stimuli/hdri_light_06_b.png,6,34,274,15,"[0, 1]",left,0,87,25,f,y,y,2019_Jul_12_1425,2AFC_task,59.982425153518186,
stimuli/hdri_light_04_a.png,stimuli/hdri_light_04_b.png,6,35,275,13,"[1, 0]",right,0,87,25,f,y,y,2019_Jul_12_1425,2AFC_task,59.982425153518186,
stimuli/hdri_light_07_a.png,stimuli/hdri_light_07_b.png,6,36,276,16,"[0, 1]",right,1,87,25,f,y,y,2019_Jul_12_1425,2AFC_task,59.982425153518186,
stimuli/hdri_light_02_a.png,stimuli/hdri_light_02_b.png,6,37,277,11,"[0, 1]",left,0,87,25,f,y,y,2019_Jul_12_1425,2AFC_task,59.982425153518186,
stimuli/hdri_bump_10_a.png,stimuli/hdri_bump_10_b.png,6,38,278,9,"[0, 1]",right,1,87,25,f,y,y,2019_Jul_12_1425,2AFC_task,59.982425153518186,
stimuli/lamp_light_10_a.png,stimuli/lamp_light_10_b.png,6,39,279,39,"[0, 1]",right,1,87,25,f,y,y,2019_Jul_12_1425,2AFC_task,59.982425153518186,
stimuli/lamp_light_02_a.png,stimuli/lamp_light_02_b.png,7,0,280,31,"[0, 1]",right,1,87,25,f,y,y,2019_Jul_12_1425,2AFC_task,59.982425153518186,
stimuli/lamp_light_08_a.png,stimuli/lamp_light_08_b.png,7,1,281,37,"[1, 0]",left,1,87,25,f,y,y,2019_Jul_12_1425,2AFC_task,59.982425153518186,
stimuli/hdri_bump_10_a.png,stimuli/hdri_bump_10_b.png,7,2,282,9,"[0, 1]",right,1,87,25,f,y,y,2019_Jul_12_1425,2AFC_task,59.982425153518186,
stimuli/lamp_bump_08_a.png,stimuli/lamp_bump_08_b.png,7,3,283,27,"[1, 0]",right,0,87,25,f,y,y,2019_Jul_12_1425,2AFC_task,59.982425153518186,
stimuli/hdri_light_09_a.png,stimuli/hdri_light_09_b.png,7,4,284,18,"[0, 1]",left,0,87,25,f,y,y,2019_Jul_12_1425,2AFC_task,59.982425153518186,
stimuli/lamp_bump_09_a.png,stimuli/lamp_bump_09_b.png,7,5,285,28,"[0, 1]",left,0,87,25,f,y,y,2019_Jul_12_1425,2AFC_task,59.982425153518186,
stimuli/hdri_bump_08_a.png,stimuli/hdri_bump_08_b.png,7,6,286,7,"[0, 1]",right,1,87,25,f,y,y,2019_Jul_12_1425,2AFC_task,59.982425153518186,
stimuli/hdri_bump_01_a.png,stimuli/hdri_bump_01_b.png,7,7,287,0,"[0, 1]",right,1,87,25,f,y,y,2019_Jul_12_1425,2AFC_task,59.982425153518186,
stimuli/lamp_light_06_a.png,stimuli/lamp_light_06_b.png,7,8,288,35,"[1, 0]",left,1,87,25,f,y,y,2019_Jul_12_1425,2AFC_task,59.982425153518186,
stimuli/hdri_light_07_a.png,stimuli/hdri_light_07_b.png,7,9,289,16,"[0, 1]",right,1,87,25,f,y,y,2019_Jul_12_1425,2AFC_task,59.982425153518186,
stimuli/hdri_bump_07_a.png,stimuli/hdri_bump_07_b.png,7,10,290,6,"[0, 1]",right,1,87,25,f,y,y,2019_Jul_12_1425,2AFC_task,59.982425153518186,
stimuli/lamp_light_07_a.png,stimuli/lamp_light_07_b.png,7,11,291,36,"[0, 1]",right,1,87,25,f,y,y,2019_Jul_12_1425,2AFC_task,59.982425153518186,
stimuli/hdri_bump_09_a.png,stimuli/hdri_bump_09_b.png,7,12,292,8,"[1, 0]",left,1,87,25,f,y,y,2019_Jul_12_1425,2AFC_task,59.982425153518186,
stimuli/lamp_light_03_a.png,stimuli/lamp_light_03_b.png,7,13,293,32,"[1, 0]",left,1,87,25,f,y,y,2019_Jul_12_1425,2AFC_task,59.982425153518186,
stimuli/hdri_bump_03_a.png,stimuli/hdri_bump_03_b.png,7,14,294,2,"[0, 1]",right,1,87,25,f,y,y,2019_Jul_12_1425,2AFC_task,59.982425153518186,
stimuli/hdri_bump_05_a.png,stimuli/hdri_bump_05_b.png,7,15,295,4,"[1, 0]",left,1,87,25,f,y,y,2019_Jul_12_1425,2AFC_task,59.982425153518186,
stimuli/lamp_light_01_a.png,stimuli/lamp_light_01_b.png,7,16,296,30,"[1, 0]",left,1,87,25,f,y,y,2019_Jul_12_1425,2AFC_task,59.982425153518186,
stimuli/lamp_bump_01_a.png,stimuli/lamp_bump_01_b.png,7,17,297,20,"[0, 1]",left,0,87,25,f,y,y,2019_Jul_12_1425,2AFC_task,59.982425153518186,
stimuli/lamp_light_09_a.png,stimuli/lamp_light_09_b.png,7,18,298,38,"[0, 1]",right,1,87,25,f,y,y,2019_Jul_12_1425,2AFC_task,59.982425153518186,
stimuli/lamp_bump_07_a.png,stimuli/lamp_bump_07_b.png,7,19,299,26,"[1, 0]",right,0,87,25,f,y,y,2019_Jul_12_1425,2AFC_task,59.982425153518186,
stimuli/hdri_light_04_a.png,stimuli/hdri_light_04_b.png,7,20,300,13,"[0, 1]",right,1,87,25,f,y,y,2019_Jul_12_1425,2AFC_task,59.982425153518186,
stimuli/lamp_bump_04_a.png,stimuli/lamp_bump_04_b.png,7,21,301,23,"[1, 0]",right,0,87,25,f,y,y,2019_Jul_12_1425,2AFC_task,59.982425153518186,
stimuli/lamp_light_04_a.png,stimuli/lamp_light_04_b.png,7,22,302,33,"[0, 1]",right,1,87,25,f,y,y,2019_Jul_12_1425,2AFC_task,59.982425153518186,
stimuli/lamp_bump_05_a.png,stimuli/lamp_bump_05_b.png,7,23,303,24,"[0, 1]",right,1,87,25,f,y,y,2019_Jul_12_1425,2AFC_task,59.982425153518186,
stimuli/hdri_light_10_a.png,stimuli/hdri_light_10_b.png,7,24,304,19,"[0, 1]",right,1,87,25,f,y,y,2019_Jul_12_1425,2AFC_task,59.982425153518186,
stimuli/hdri_light_02_a.png,stimuli/hdri_light_02_b.png,7,25,305,11,"[1, 0]",right,0,87,25,f,y,y,2019_Jul_12_1425,2AFC_task,59.982425153518186,
stimuli/lamp_light_05_a.png,stimuli/lamp_light_05_b.png,7,26,306,34,"[1, 0]",left,1,87,25,f,y,y,2019_Jul_12_1425,2AFC_task,59.982425153518186,
stimuli/hdri_bump_06_a.png,stimuli/hdri_bump_06_b.png,7,27,307,5,"[0, 1]",right,1,87,25,f,y,y,2019_Jul_12_1425,2AFC_task,59.982425153518186,
stimuli/hdri_light_03_a.png,stimuli/hdri_light_03_b.png,7,28,308,12,"[1, 0]",right,0,87,25,f,y,y,2019_Jul_12_1425,2AFC_task,59.982425153518186,
stimuli/lamp_bump_10_a.png,stimuli/lamp_bump_10_b.png,7,29,309,29,"[1, 0]",left,1,87,25,f,y,y,2019_Jul_12_1425,2AFC_task,59.982425153518186,
stimuli/hdri_light_06_a.png,stimuli/hdri_light_06_b.png,7,30,310,15,"[1, 0]",right,0,87,25,f,y,y,2019_Jul_12_1425,2AFC_task,59.982425153518186,
stimuli/hdri_bump_04_a.png,stimuli/hdri_bump_04_b.png,7,31,311,3,"[0, 1]",right,1,87,25,f,y,y,2019_Jul_12_1425,2AFC_task,59.982425153518186,
stimuli/lamp_bump_06_a.png,stimuli/lamp_bump_06_b.png,7,32,312,25,"[1, 0]",right,0,87,25,f,y,y,2019_Jul_12_1425,2AFC_task,59.982425153518186,
stimuli/lamp_bump_03_a.png,stimuli/lamp_bump_03_b.png,7,33,313,22,"[1, 0]",left,1,87,25,f,y,y,2019_Jul_12_1425,2AFC_task,59.982425153518186,
stimuli/lamp_bump_02_a.png,stimuli/lamp_bump_02_b.png,7,34,314,21,"[1, 0]",right,0,87,25,f,y,y,2019_Jul_12_1425,2AFC_task,59.982425153518186,
stimuli/hdri_light_08_a.png,stimuli/hdri_light_08_b.png,7,35,315,17,"[0, 1]",right,1,87,25,f,y,y,2019_Jul_12_1425,2AFC_task,59.982425153518186,
stimuli/lamp_light_10_a.png,stimuli/lamp_light_10_b.png,7,36,316,39,"[0, 1]",right,1,87,25,f,y,y,2019_Jul_12_1425,2AFC_task,59.982425153518186,
stimuli/hdri_light_01_a.png,stimuli/hdri_light_01_b.png,7,37,317,10,"[0, 1]",left,0,87,25,f,y,y,2019_Jul_12_1425,2AFC_task,59.982425153518186,
stimuli/hdri_bump_02_a.png,stimuli/hdri_bump_02_b.png,7,38,318,1,"[0, 1]",right,1,87,25,f,y,y,2019_Jul_12_1425,2AFC_task,59.982425153518186,
stimuli/hdri_light_05_a.png,stimuli/hdri_light_05_b.png,7,39,319,14,"[1, 0]",right,0,87,25,f,y,y,2019_Jul_12_1425,2AFC_task,59.982425153518186,
